time,seconds_elapsed,rotationRateX,rotationRateY,rotationRateZ,gravityX,gravityY,gravityZ,accelerationX,accelerationY,accelerationZ,quaternionW,quaternionX,quaternionY,quaternionZ,pitch,roll,yaw
1772660175956854784,0.07886886596679688,0.0017189427744597197,-0.028027718886733055,-0.018568335101008415,-0.14925730228424072,0.03946633264422417,-0.9880104660987854,0.026301980018615723,0.0019155032932758331,0.0082283616065979,0.9869111543702269,-0.008971522876896577,-0.07690437582401244,0.1414623042215513,-0.039476585006486375,-0.14993482094850508,0.28177198362378114
1772660175966891776,0.08890581130981445,-0.018438344821333885,-0.04262717068195343,-0.02460465580224991,-0.14962352812290192,0.039515480399131775,-0.9879531264305115,0.034709587693214417,-0.0021772272884845734,0.019218385219573975,0.9869123925621119,-0.0089784336713017,-0.07708980815487683,0.1413521917225189,-0.03952577255719622,-0.1503057933311041,0.2815418999590025
1772660175976928768,0.09894275665283203,-0.028356488794088364,-0.052452102303504944,-0.0216075349599123,-0.15010730922222137,0.039719317108392715,-0.987871527671814,0.03627672791481018,-0.011948321014642715,0.023149847984313965,0.9869088929664758,-0.009054585847696443,-0.07734498205648123,0.14123226284565912,-0.039729767374553915,-0.15079671000032488,0.28127955815715844
1772660175986966784,0.10898089408874512,-0.02193516492843628,-0.05759892612695694,-0.02209169790148735,-0.15068066120147705,0.039948757737874985,-0.9877749681472778,0.034118786454200745,-0.013856228440999985,0.018033206462860107,0.9869013796356383,-0.009137004450267985,-0.07764675738343468,0.14111414823985508,-0.03995939002159108,-0.15137853205520133,0.28101810928233056
1772660175997003776,0.1190178394317627,-0.007683258503675461,-0.04947628453373909,-0.02516205608844757,-0.15122976899147034,0.04007803648710251,-0.9876858592033386,0.030303865671157837,-0.00011526793241500854,0.008926093578338623,0.986896280569368,-0.00917181450946187,-0.07792920092294671,0.14099192791523632,-0.040088772788775213,-0.15193525555622814,0.2807557987211362
1772660176007040768,0.12905478477478027,0.013172310777008533,-0.046690888702869415,-0.027774084359407425,-0.15171577036380768,0.040031418204307556,-0.9876132011413574,0.027570247650146484,0.010536212474107742,0.0007052421569824219,0.9868961199289775,-0.009124250956465687,-0.07816746277816843,0.14086451257672636,-0.04004211835864316,-0.15242703748711753,0.2804964641311874
1772660176017078784,0.13909292221069336,0.012377623468637466,-0.04005535691976547,-0.028723502531647682,-0.15214581787586212,0.039824288338422775,-0.9875553846359253,0.023849934339523315,0.011201098561286926,-0.0023432374000549316,0.9869012771643002,-0.009001991814407952,-0.07836620859066037,0.14072476347004698,-0.03983482100582828,-0.1528612214168176,0.2802245009033086
1772660176027115776,0.14912986755371094,0.004103049170225859,-0.04534292593598366,-0.03126854822039604,-0.15254634618759155,0.03966512531042099,-0.987500011920929,0.023670613765716553,0.0039444901049137115,-0.0010100603103637695,0.9869085038016833,-0.008906446104366339,-0.07855358300769867,0.14057556965508858,-0.039675532530943275,-0.1532658268736224,0.27993025193995624
1772660176037152768,0.15916681289672852,-0.00331199006177485,-0.04443452134728432,-0.03308509290218353,-0.15291379392147064,0.039619602262973785,-0.9874449968338013,0.022603735327720642,-0.004371799528598785,0.0018950700759887695,0.9869174994588068,-0.008870620311521756,-0.07873248651687707,0.14041510966857587,-0.0396299748524049,-0.15363766722910668,0.2796051268716282
1772660176047190784,0.1692049503326416,-0.011582703329622746,-0.05214623734354973,-0.03239187225699425,-0.1533070206642151,0.03963441774249077,-0.9873834252357483,0.021745741367340088,-0.00791139155626297,0.005190432071685791,0.9869247964597933,-0.008863010366086364,-0.07892859672071874,0.14025442626500118,-0.039644803710445896,-0.15403599682707161,0.27927483292801153
1772660176057227776,0.17924189567565918,-0.009888666681945324,-0.050631966441869736,-0.028531085699796677,-0.1537238210439682,0.03965498507022858,-0.9873178005218506,0.020972371101379395,-0.003751058131456375,0.0013406872749328613,0.9869296602734978,-0.008855950451524293,-0.07913699746252781,0.14010251488291592,-0.03966538546053572,-0.15445825637673488,0.27896163780787503
1772660176067264768,0.18927884101867676,0.003094243351370096,-0.03897291049361229,-0.027245579287409782,-0.1540750116109848,0.03961972892284393,-0.9872645139694214,0.015891417860984802,0.007041648030281067,-0.004221081733703613,0.9869346965389061,-0.008824147169931644,-0.07930882892627396,0.13997188961956394,-0.03963009997555532,-0.1548137455046815,0.27869638274326275
1772660176077303040,0.19931697845458984,0.010497031733393669,-0.026843810454010963,-0.021012717857956886,-0.15432901680469513,0.03952642157673836,-0.9872285723686218,0.01214762032032013,0.015771429985761642,-0.011520206928253174,0.9869420946764886,-0.008769255129562049,-0.07942810275650858,0.13985559060300798,-0.039536722010835586,-0.15507046181421452,0.27846541291398536
1772660176087339776,0.20935392379760742,0.01900578662753105,-0.019055264070630074,-0.010882185772061348,-0.1544685959815979,0.03941615670919418,-0.9872111082077026,0.008762434124946594,0.017392311245203018,-0.014680922031402588,0.9869480746859942,-0.008710565533374105,-0.07948937031640119,0.13978224084074553,-0.03942636989517939,-0.1552111667273803,0.2783238011217041
1772660176097376768,0.219390869140625,0.02549351379275322,-0.012945439666509628,-0.01447425689548254,-0.15454986691474915,0.0392034687101841,-0.9872068762779236,0.0075772106647491455,0.013942893594503403,-0.013006746768951416,0.9869553370902294,-0.008603925770081226,-0.07951434618948122,0.13972377729778798,-0.03921351951491761,-0.1552921823990672,0.2782206071994786
1772660176107414784,0.22942876815795898,0.021313149482011795,-0.012198156677186489,-0.004165160935372114,-0.1545974761247635,0.03898543119430542,-0.9872080683708191,0.009196460247039795,0.011505905538797379,-0.011693298816680908,0.9869601707405402,-0.00849486249871038,-0.07952235645267214,0.1396918445978079,-0.038995313388436266,-0.15533906274237194,0.2781718812258633
1772660176117452032,0.23946595191955566,0.016796428710222244,-0.01723632588982582,0.0007856555748730898,-0.15466982126235962,0.038763754069805145,-0.987205445766449,0.014350011944770813,0.013024568557739258,-0.00455474853515625,0.9869593803090289,-0.008379686273199443,-0.07954277162631303,0.13969172890078863,-0.03877346901449989,-0.15541100153642906,0.27818766101118864
1772660176127488768,0.24950289726257324,0.011489104479551315,-0.01793540269136429,-0.003132120706140995,-0.15475893020629883,0.03858482092618942,-0.987198531627655,0.014500156044960022,0.00952613353729248,-0.0028222203254699707,0.9869568260943553,-0.008284088681887146,-0.07957463725384924,0.13969742572874363,-0.038594400225109175,-0.1555001781705454,0.2782119207263883
1772660176137526784,0.2595407962799072,0.00661179143935442,-0.02107394114136696,-0.005986496340483427,-0.15488334000110626,0.03849915415048599,-0.9871823191642761,0.010733574628829956,0.004637442529201508,-0.00035119056701660156,0.986955127759102,-0.008234130300088403,-0.07963058734498545,0.1396807374616162,-0.038508669399377506,-0.15562567678611947,0.27818351388750917
1772660176147564032,0.2695779800415039,0.002274345140904188,-0.026960723102092743,0.0003487642388790846,-0.15507254004478455,0.038485776633024216,-0.987153172492981,0.009778350591659546,0.0020568259060382843,0.001511693000793457,0.9869498021815848,-0.00821534523703197,-0.0797240922629445,0.13966611917409677,-0.03849528275926529,-0.155817264554554,0.27815330215843037
1772660176157592832,0.27960681915283203,0.0035209706984460354,-0.027079766616225243,0.0012292052851989865,-0.1553191989660263,0.03849942982196808,-0.9871138334274292,0.010574325919151306,0.002195756882429123,0.0017775297164916992,0.9869398439214163,-0.0082047728085766,-0.07984836160905749,0.1396659604572229,-0.038508947651693895,-0.15606722316487945,0.2781498640701174
1772660176167629824,0.2896437644958496,0.006716808304190636,-0.03052256815135479,-0.0027795180212706327,-0.15559640526771545,0.03849010542035103,-0.9870705604553223,0.012606292963027954,0.0051805488765239716,0.008265018463134766,0.9869293541306824,-0.008180878442926311,-0.07998623808355777,0.1396628101981022,-0.03849961384479484,-0.1563479907343471,0.27814186320952544
1772660176177667584,0.2996816635131836,0.008627094328403473,-0.036765020340681076,-0.0003328719176352024,-0.15589389204978943,0.03846084326505661,-0.98702472448349,0.013819307088851929,0.00774277001619339,0.01366657018661499,0.986918096565258,-0.008145596230195968,-0.08013285271344378,0.13966039919690199,-0.038470333483632504,-0.1566492034105135,0.27813670408804486
1772660176187704832,0.3097188472747803,0.0016200507525354624,-0.040487587451934814,-0.004552384838461876,-0.15622292459011078,0.0384313128888607,-0.9869738817214966,0.013614282011985779,0.003362506628036499,0.018132328987121582,0.9869060631784371,-0.008108254172461873,-0.08029519542372184,0.13965432978516204,-0.03844078039597544,-0.1569823919717357,0.27812390213021265
1772660176197741824,0.31975579261779785,0.0021912988740950823,-0.04778224974870682,-0.0063705239444971085,-0.15659280121326447,0.03844032436609268,-0.9869149327278137,0.014396145939826965,-0.0009952560067176819,0.01782923936843872,0.986894790391047,-0.008088786404693916,-0.08048054279155722,0.13962854284316245,-0.03844979740716202,-0.15735722085704265,0.2780678862760252
1772660176207779584,0.32979369163513184,-0.004087147768586874,-0.05907285213470459,-0.007442047353833914,-0.15707223117351532,0.038483694195747375,-0.9868370294570923,0.01716439425945282,-0.003785204142332077,0.017659783363342285,0.9868788053044418,-0.008078713474270693,-0.08072310756303328,0.1396023536565343,-0.038493199184866704,-0.15784328903677222,0.27800752983083216
1772660176217816576,0.3398306369781494,-0.01617896370589733,-0.06170538812875748,-0.011390715837478638,-0.15763650834560394,0.03859570994973183,-0.9867426753044128,0.018171176314353943,-0.004263430833816528,0.015581786632537842,0.9868612816659287,-0.008098313679160288,-0.08101283766287291,0.13955741765234958,-0.038605297917495784,-0.1584158053186815,0.2779031947846047
1772660176227853824,0.3498678207397461,-0.013476033695042133,-0.06832867115736008,-0.007098499685525894,-0.15823522210121155,0.038746241480112076,-0.9866409301757812,0.014848381280899048,-0.004719141870737076,0.010520994663238525,0.9868426955288659,-0.008135136544344217,-0.081322499048926,0.13950653795585102,-0.03875594207671982,-0.1590235264950586,0.27778350375187155
1772660176237891584,0.3599057197570801,-0.01709447056055069,-0.07339506596326828,-0.010846099816262722,-0.15889054536819458,0.038892801851034164,-0.9865298271179199,0.013077571988105774,-0.004545263946056366,0.012256205081939697,0.9868212031041264,-0.008165708846575569,-0.08166024108654965,0.1394596118653275,-0.0389026121887303,-0.1596886752556955,0.27767159482581766
1772660176247928576,0.36994266510009766,-0.012311166152358055,-0.07236042618751526,-0.006962944753468037,-0.1595798283815384,0.03905163332819939,-0.9864122867584229,0.014255136251449585,0.0034440942108631134,0.01636528968811035,0.9867981363915832,-0.008200086112701625,-0.08201586842644502,0.13941189564203413,-0.039061567406818806,-0.16038842094559816,0.2775567593639387
1772660176257965824,0.37997984886169434,-0.0030444313306361437,-0.07295671105384827,-0.008029807358980179,-0.16025994718074799,0.03912834823131561,-0.9862989783287048,0.01931452751159668,0.008479073643684387,0.01527547836303711,0.9867741078259203,-0.00819312737792097,-0.08236122212706211,0.13937879719289265,-0.039138339383576234,-0.1610784292588089,0.2774779702816577
1772660176268003584,0.3900177478790283,-0.006310443393886089,-0.07465900480747223,-0.010156340897083282,-0.16093476116657257,0.03916448354721069,-0.9861876964569092,0.02177460491657257,0.006627138704061508,0.01690363883972168,0.9867518448127797,-0.008167198481366314,-0.08270100205376973,0.13933620894024856,-0.03917450357619179,-0.16176288617758364,0.27738313011162385
1772660176278040576,0.4000546932220459,-0.013217884115874767,-0.08241253346204758,-0.009996018372476101,-0.1616775095462799,0.03922971710562706,-0.9860635995864868,0.023600727319717407,-0.00201353058218956,0.013315796852111816,0.9867274948209319,-0.008151582622502008,-0.08307679821910562,0.13928640349531832,-0.03923978748219547,-0.16251650797707043,0.27727083764723676
1772660176288077568,0.4100916385650635,-0.010055292397737503,-0.08451935648918152,0.0026934111956506968,-0.16254091262817383,0.03933197632431984,-0.9859175682067871,0.026524066925048828,-0.007807314395904541,0.006669521331787109,0.9866873318695627,-0.008139769366748302,-0.08351622224299018,0.13930923895139397,-0.039342125548779146,-0.16339283071442112,0.27730182740285575
1772660176298115840,0.42012977600097656,-0.007600389886647463,-0.08623656630516052,-0.014178512617945671,-0.16339018940925598,0.039403706789016724,-0.9857743382453918,0.02174285054206848,-0.004232197999954224,0.0005753636360168457,0.9866552115114567,-0.008118259187049056,-0.08394604111773518,0.1392791177267886,-0.03941391039653266,-0.16425477503175365,0.27722795226839153
1772660176308152576,0.43016672134399414,-0.000240611145272851,-0.08892915397882462,-0.010839841328561306,-0.16426214575767517,0.03942786157131195,-0.9856284260749817,0.02313360571861267,0.0012215524911880493,-0.0010201334953308105,0.9866284823827015,-0.008075139734295385,-0.08438352709305846,0.13920689345949738,-0.03943808567927899,-0.16513954435088754,0.2770723698609256
1772660176318189568,0.4402036666870117,-0.0005796316545456648,-0.08999361842870712,0.008936526253819466,-0.16515858471393585,0.03944210708141327,-0.9854780435562134,0.027737930417060852,0.001665070652961731,0.0004469156265258789,0.9865915918643366,-0.008020006621727922,-0.08483313669677703,0.13919775460689815,-0.03945234020190089,-0.16604921165466488,0.2770452604696257
1772660176328227840,0.4502418041229248,0.0210990309715271,-0.08148268610239029,0.0047146170400083065,-0.16600681841373444,0.03935246914625168,-0.9853391051292419,0.021094098687171936,0.00138850137591362,0.004260003566741943,0.9865493426579555,-0.007911498454751026,-0.08525176293221827,0.13924816346221366,-0.039362634108457625,-0.16690941030595224,0.27714776469923486
1772660176338264576,0.4602787494659424,0.034233208745718,-0.07732363045215607,-0.007175065577030182,-0.16679517924785614,0.03908967226743698,-0.9852163791656494,0.015626370906829834,0.005954273045063019,0.0047476887702941895,0.9865174117024156,-0.007724957098461942,-0.08562780916039624,0.13925418911903734,-0.03909963332930565,-0.16770781267051493,0.2771749935703594
1772660176348301568,0.47031569480895996,0.051062215119600296,-0.0728488564491272,0.000998309114947915,-0.16752579808235168,0.03868985176086426,-0.9851081967353821,0.022719889879226685,0.005865812301635742,0.00378495454788208,0.9864899869315307,-0.007474946870976426,-0.08596520077444161,0.13925362944280772,-0.0386995119210569,-0.16844678314507097,0.27720076927279197
1772660176358339840,0.48035383224487305,0.05921042338013649,-0.08082448691129684,-0.0027735261246562004,-0.16826657950878143,0.03814263641834259,-0.9850032925605774,0.030067741870880127,-0.00397820770740509,0.0015285611152648926,0.9864588552971078,-0.00714807076048668,-0.08629748686413653,0.1392861028454744,-0.038151891425576706,-0.16919522685406313,0.27730594794623464
1772660176368376832,0.4903907775878906,0.06167841702699661,-0.09484244138002396,-0.0032410440035164356,-0.16914384067058563,0.03753305971622467,-0.9848764538764954,0.033249080181121826,-0.011196393519639969,0.00028783082962036133,0.986424176593417,-0.006781853199841481,-0.08669359754569937,0.13930378770816434,-0.03754187885323527,-0.1700819433561279,0.2773857989211955
1772660176378413568,0.5004277229309082,0.05583544075489044,-0.09793996065855026,0.0014362660003826022,-0.1700984239578247,0.03695717826485634,-0.9847338199615479,0.03223526477813721,-0.01918068528175354,-0.0038983821868896484,0.9863837587940837,-0.006425746538617864,-0.08713093255866636,0.13933440353875673,-0.036965595146584894,-0.1710475448774567,0.2774892032732404
1772660176388451584,0.5104656219482422,0.05315776541829109,-0.10307200253009796,-0.0025828436482697725,-0.17110490798950195,0.036425892263650894,-0.9845792055130005,0.025459781289100647,-0.024569816887378693,-0.005365192890167236,0.9863408970180053,-0.006088506253463634,-0.08759745466205025,0.1393602606059809,-0.03643395372967318,-0.17206634064370968,0.27757952483950077
1772660176398488832,0.5205028057098389,0.04233681038022041,-0.1005164310336113,-0.006536839529871941,-0.17212282121181488,0.03594757616519928,-0.9844193458557129,0.019565463066101074,-0.026624459773302078,-0.007111966609954834,0.9863005015600335,-0.005779168595381769,-0.08807334568087292,0.1393587428790209,-0.035955321822628186,-0.17309724882511313,0.27761042360227606
1772660176408525824,0.5305397510528564,0.04652121290564537,-0.10206625610589981,-0.0038770067039877176,-0.17312955856323242,0.03550467640161514,-0.9842588901519775,0.017611980438232422,-0.026532504707574844,-0.010492086410522461,0.9862606054819774,-0.0054885013204741245,-0.08854619262778483,0.13935376036762995,-0.03551213874894603,-0.1741172289386048,0.27763198312506393
1772660176418563584,0.5405776500701904,0.04710284620523453,-0.09031426161527634,-0.007414218038320541,-0.1740616112947464,0.035026486963033676,-0.9841116070747375,0.012944072484970093,-0.023353520780801773,-0.015934109687805176,0.9862229144935798,-0.0051848876196798855,-0.0889792239073048,0.1393560064482617,-0.035033654587197746,-0.17506128003005955,0.27767212294275984
1772660176428600832,0.5506148338317871,0.05003955960273743,-0.07781245559453964,-0.014419795013964176,-0.17489725351333618,0.03453315421938896,-0.9839808940887451,0.007371008396148682,-0.020647656172513962,-0.016309022903442383,0.986195282048883,-0.004884230930632361,-0.0893627130898076,0.13931730090066388,-0.03454002235190612,-0.17590742940189347,0.27763155328742195
1772660176438637824,0.5606517791748047,0.051231324672698975,-0.0714658722281456,-0.02507004328072071,-0.17564259469509125,0.03399914503097534,-0.9838667511940002,0.0027452558279037476,-0.02116650715470314,-0.020115792751312256,0.9861770484864131,-0.004573124960194758,-0.08969795891041386,0.13924130346512317,-0.03400569676591669,-0.17666168880648658,0.2775197560766859
1772660176448675584,0.5706896781921387,0.06029321625828743,-0.061001118272542953,-0.032535817474126816,-0.1763009876012802,0.03340090811252594,-0.9837694764137268,-0.0006246715784072876,-0.01872194930911064,-0.016856133937835693,0.9861691762230045,-0.004240158367449873,-0.08998495978652832,0.1391225791758854,-0.03340711992977552,-0.17732729039532216,0.27732772563188024
1772660176458712576,0.5807266235351562,0.06867977976799011,-0.061907652765512466,-0.031122475862503052,-0.1769358515739441,0.03271641954779625,-0.9836784601211548,-0.0015309453010559082,-0.012056011706590652,-0.01043158769607544,0.9861650473104971,-0.0038673944871338134,-0.0902541083785747,0.1389889074403457,-0.032722257591713204,-0.17796858716655675,0.27711344435278157
1772660176468750592,0.5907647609710693,0.07829538732767105,-0.04841155558824539,0.0029446803964674473,-0.17753557860851288,0.031980518251657486,-0.9835945963859558,-0.0023655295372009277,-0.0053844451904296875,-0.0006124973297119141,0.9861477694835586,-0.00346193652468965,-0.09050252224707227,0.13896052230247274,-0.031985971360938795,-0.17857400199246268,0.2771177779106985
1772660176478787584,0.6008017063140869,0.09239602833986282,-0.04781580716371536,-0.01912546716630459,-0.17795763909816742,0.031110646203160286,-0.983546257019043,-0.01451672613620758,-0.00036418624222278595,0.006831169128417969,0.9861355017872924,-0.0029998389478020624,-0.09065252841152907,0.13896000027715616,-0.03111566682767773,-0.17899815074642414,0.2771914158999513
1772660176488824576,0.6108386516571045,0.10156892985105515,-0.04159599542617798,0.0016093715094029903,-0.1784132719039917,0.03013383224606514,-0.9834941029548645,-0.0192795991897583,0.0014060847461223602,0.011936485767364502,0.9861241824722882,-0.002483389111850666,-0.09081178155271943,0.1389465739421996,-0.030138394314012513,-0.17945599387454497,0.27724865473934956
1772660176498862848,0.6208767890930176,0.10516127198934555,-0.04192196577787399,0.052740465849637985,-0.17882683873176575,0.029185933992266655,-0.9834476113319397,-0.014196857810020447,-0.0016285590827465057,0.017535746097564697,0.986084739950998,-0.0019649293118408654,-0.09095244909413026,0.1391428235027129,-0.029190079872221646,-0.17987139545751069,0.2777292243391329
1772660176508899584,0.6309137344360352,0.10225198417901993,-0.05223971605300903,0.08762401342391968,-0.17928998172283173,0.028299329802393913,-0.983389139175415,-0.03274613618850708,-0.006479265168309212,0.026235878467559814,0.9860135615141743,-0.0014546664916913717,-0.09112245896085565,0.1395412705467227,-0.02830310779851084,-0.18033771736209858,0.2786148879281961
1772660176518936576,0.6409506797790527,0.1268657147884369,-0.054727375507354736,0.13507753610610962,-0.17979538440704346,0.0273657888174057,-0.983323335647583,-0.06080520153045654,-0.0008765310049057007,0.03222775459289551,0.9859103006305676,-0.0008982775253326392,-0.09131011785243442,0.14015175360592072,-0.027369205203993906,-0.18084691611488854,0.27993538276882235
1772660176528974848,0.6509888172149658,0.17822708189487457,-0.047245487570762634,0.19939449429512024,-0.18027576804161072,0.026155946776270866,-0.9832682609558105,-0.08910289406776428,0.017606260254979134,0.04021406173706055,0.9857682481805512,-0.00017939988878934378,-0.09146489569074459,0.1410500369647546,-0.026158930543324015,-0.1813295348114815,0.2818651082966885
1772660176539011840,0.6610257625579834,0.24580000340938568,-0.03320556879043579,0.2661902904510498,-0.1806209683418274,0.024506274610757828,-0.9832474589347839,-0.12151831388473511,0.04029780253767967,0.055696189403533936,0.9855835299706385,0.0007811012473074208,-0.09151871115220583,0.14229852990063674,-0.02450872862930365,-0.18167293515992597,0.28454570452289585
1772660176549048576,0.671062707901001,0.33512789011001587,-0.00645744614303112,0.3280916213989258,-0.18074388802051544,0.0221945159137249,-0.9832797646522522,-0.15333203971385956,0.0587228424847126,0.0741000771522522,0.9853584456574929,0.0020876374946963683,-0.09140990628857969,0.14390485125433686,-0.02219633802238824,-0.18178802358664967,0.28801270826880154
1772660176559086848,0.6811008453369141,0.4399075508117676,0.019687604159116745,0.3984137177467346,-0.18060095608234406,0.019029241055250168,-0.9833723306655884,-0.17831628024578094,0.07086028158664703,0.09228956699371338,0.9850919130700689,0.0038318345714200945,-0.09109962347972982,0.14587689152428945,-0.019030389927483255,-0.1816306758590899,0.29229916368851205
1772660176569123840,0.6911377906799316,0.5583035945892334,0.026526469737291336,0.4751536548137665,-0.18029086291790009,0.01491650938987732,-0.9835002422332764,-0.18975003063678741,0.07710924744606018,0.11167407035827637,0.9847680730881522,0.00607066122143654,-0.0906257837100096,0.14826297019897888,-0.014917062246945117,-0.18130254957381595,0.2975117838780551
1772660176579160576,0.7011747360229492,0.661964476108551,0.02030186355113983,0.5623708367347717,-0.1799830198287964,0.009824863635003567,-0.9836206436157227,-0.1936437040567398,0.08442867547273636,0.12542057037353516,0.9843684480394008,0.008833765762937441,-0.0900646392786932,0.15109273098263754,-0.009825022107557651,-0.180978014960498,0.3037152675264924
1772660176589198592,0.7112126350402832,0.7645849585533142,0.014371402561664581,0.6546449661254883,-0.1797863394021988,0.0038996778894215822,-0.9836979508399963,-0.1993640512228012,0.09148300439119339,0.14351850748062134,0.9838724480397464,0.01206072637987395,-0.08947381392288607,0.15441451158118505,-0.0038996876595256357,-0.1807706410255923,0.3109980220905972
1772660176599235840,0.7212498188018799,0.8593764305114746,0.00503808818757534,0.7536512017250061,-0.17969970405101776,-0.0028618481010198593,-0.9837173223495483,-0.20872801542282104,0.08919607847929001,0.15481418371200562,0.98326749449411,0.01575417057378966,-0.0888432896268081,0.1582521301372798,0.002861851898674504,-0.18068192108325715,0.3194126164913099
1772660176609272832,0.7312867641448975,0.9386351704597473,-0.024838585406541824,0.8578723669052124,-0.17985577881336212,-0.010272229090332985,-0.9836393594741821,-0.21874956786632538,0.07487794011831284,0.16401350498199463,0.9825338065550331,0.019833218230215464,-0.08824378842556499,0.16262553007851951,0.010272409730856536,-0.18084949149413962,0.3289901727801629
1772660176619310592,0.7413246631622314,1.041020393371582,-0.062447480857372284,0.9654534459114075,-0.18044507503509521,-0.018368862569332123,-0.9834135174751282,-0.2364097684621811,0.06110873073339462,0.16314679384231567,0.9816480047127619,0.02433473538605386,-0.08775567768126273,0.16755284048103525,0.018369895891742285,-0.1814698986652815,0.33978360573803357
1772660176629347840,0.7513618469238281,1.1460601091384888,-0.08867748081684113,1.0726962089538574,-0.18144802749156952,-0.027276039123535156,-0.9830222129821777,-0.2610263526439667,0.06487369537353516,0.15544652938842773,0.980865203352782,0.029184582929672957,-0.0873908661707004,0.17150673294905885,0.027279423128630152,-0.18252739345719915,0.34870180468403666
1772660176639384832,0.7613987922668457,1.2726534605026245,-0.08684282749891281,1.1685365438461304,-0.1827140748500824,-0.03715924173593521,-0.9824635982513428,-0.2921851873397827,0.07356671988964081,0.14181119203567505,0.9796497921316143,0.03472492256143082,-0.08696189515913845,0.1775334182617456,0.03716779828114018,-0.18387473220315617,0.3619785020712355
1772660176649422592,0.7714366912841797,1.388306736946106,-0.067426398396492,1.2771755456924438,-0.18403784930706024,-0.04801526293158531,-0.981745719909668,-0.32758933305740356,0.06719556450843811,0.13515758514404297,0.9782539563455692,0.04079845383560991,-0.08638656639862623,0.18409827312430582,0.048033731119526774,-0.18530911395209335,0.3764943919579303
1772660176659459584,0.7814736366271973,1.5104880332946777,-0.04339056462049484,1.3584705591201782,-0.18533654510974884,-0.059872012585401535,-0.9808495044708252,-0.35836464166641235,0.051449161022901535,0.1233513355255127,0.9766648052390189,0.04740791505321082,-0.08560226760135937,0.19118227087168901,0.05990784035835598,-0.18675329724802964,0.39222366489517213
1772660176669496832,0.791510820388794,1.597864031791687,0.010172263719141483,1.4453234672546387,-0.18642261624336243,-0.07260444760322571,-0.9797832369804382,-0.3776185214519501,0.05037239193916321,0.13569754362106323,0.9748882701093475,0.05446290200607,-0.08451136226635088,0.1987072691525271,0.07266838432691182,-0.18802180005568647,0.4089976084559456
1772660176679534592,0.8015487194061279,1.7214821577072144,0.051732223480939865,1.5320924520492554,-0.18728423118591309,-0.08609354496002197,-0.978525698184967,-0.3871634006500244,0.06717265397310257,0.12034088373184204,0.9729017246219303,0.06190081315683081,-0.08309900176340494,0.2067008449168417,0.08620025996577807,-0.1891073068993366,0.42687060240212366
1772660176689571584,0.8115856647491455,1.8874480724334717,0.09595094621181488,1.5844842195510864,-0.18803291022777557,-0.10084798187017441,-0.9769715070724487,-0.39054983854293823,0.08098103851079941,0.10776984691619873,0.9706847110769196,0.06997198496852901,-0.08135215480486795,0.21507412553191735,0.10101971467499868,-0.1901400735072378,0.44573479525161097
1772660176699608832,0.8216228485107422,2.016474723815918,0.13973571360111237,1.6455483436584473,-0.18867793679237366,-0.11693571507930756,-0.9750521183013916,-0.38834843039512634,0.09711455553770065,0.10459929704666138,0.9682246460805297,0.07870071595822582,-0.07924725210554596,0.2237568379047509,0.11720386567261114,-0.1911431009041226,0.4654743326752333
1772660176709646592,0.8316607475280762,2.14518141746521,0.17213760316371918,1.7447904348373413,-0.18929782509803772,-0.13404738903045654,-0.9727268815040588,-0.3838528096675873,0.09779252111911774,0.11347401142120361,0.965475614407847,0.08794828156072211,-0.0768221827430531,0.23285235923109973,0.13445211349417008,-0.19220301479030452,0.48629909938274546
1772660176719683584,0.8416976928710938,2.289538621902466,0.2187967151403427,1.8290435075759888,-0.18996275961399078,-0.15225885808467865,-0.9699130654335022,-0.37801510095596313,0.09917354583740234,0.10509073734283447,0.962382234002335,0.09776356326646726,-0.07406581025745712,0.24243963994809178,0.1528533761352847,-0.1934072606608413,0.5084189835337468
1772660176729720576,0.8517346382141113,2.4201462268829346,0.26201167702674866,1.8871915340423584,-0.1906580924987793,-0.17161187529563904,-0.9665396213531494,-0.3720860481262207,0.12130364775657654,0.10316681861877441,0.9589429887841379,0.10815201684001965,-0.07094595520826052,0.2523847630802678,0.17246559004081227,-0.19475805629353105,0.5315978301302835
1772660176739758848,0.8617727756500244,2.513535261154175,0.30295538902282715,1.964571237564087,-0.19144581258296967,-0.19179418683052063,-0.9625816941261292,-0.35620740056037903,0.14252357184886932,0.11413198709487915,0.9551474910228326,0.11896302540875102,-0.06750523695339951,0.2626483817984621,0.19298994796741473,-0.19632596273208378,0.5557631963594551
1772660176749795584,0.871809720993042,2.5961742401123047,0.33657142519950867,2.0541675090789795,-0.1924533247947693,-0.21256467700004578,-0.958007276058197,-0.3295956254005432,0.13596557080745697,0.11639350652694702,0.9509508025654965,0.1301002393061715,-0.06379875843773271,0.2733060280286559,0.21419887882072297,-0.19825041530051743,0.5811036022104723
1772660176759832576,0.8818466663360596,2.634047269821167,0.357395201921463,2.132478713989258,-0.19383852183818817,-0.2336171567440033,-0.9528114199638367,-0.31115108728408813,0.1129811704158783,0.11920857429504395,0.9463434031634964,0.14143449628268906,-0.05992127834082942,0.2843235043039901,0.2357961196235616,-0.20069959742477528,0.6075800745646537
1772660176769870848,0.8918848037719727,2.6406409740448,0.377232164144516,2.2067246437072754,-0.1956765204668045,-0.25451308488845825,-0.9470658898353577,-0.2975180745124817,0.08582714200019836,0.12843185663223267,0.9413436729345395,0.15276049744319237,-0.05595792204339779,0.2956433373569359,0.2573441711085087,-0.20374645216097623,0.635072590571811
1772660176779907584,0.9019217491149902,2.635558843612671,0.41068464517593384,2.2840373516082764,-0.19793719053268433,-0.2750912010669708,-0.9408218264579773,-0.2769315838813782,0.06833460927009583,0.1308242678642273,0.9359540723302113,0.1639967101948642,-0.05190537712348116,0.3072472955919326,0.2786845651518129,-0.20736333755512057,0.6635620464323979
1772660176789944576,0.9119586944580078,2.5702877044677734,0.4667706787586212,2.3680286407470703,-0.20048461854457855,-0.29496926069259644,-0.9342371821403503,-0.24939024448394775,0.06329509615898132,0.13403576612472534,0.9301887215401029,0.1749346674813206,-0.04774186150277616,0.31916695825064123,0.299423347058524,-0.2113910598294791,0.693069102972306
1772660176799982848,0.9219968318939209,2.489565372467041,0.4842386245727539,2.4401280879974365,-0.2033899426460266,-0.3137313425540924,-0.9274724721908569,-0.2182103991508484,0.04770961403846741,0.14606988430023193,0.9240851351017746,0.18537791092335906,-0.04357515852104663,0.33136535339912365,0.31912024892753726,-0.21587761941958583,0.7234819692740941
1772660176810019840,0.9320337772369385,2.436734199523926,0.48339134454727173,2.5037155151367188,-0.2069016695022583,-0.3314799666404724,-0.9204959273338318,-0.1810988336801529,0.015653550624847412,0.1430301070213318,0.9176448730471761,0.19542185650593635,-0.039526377387438534,0.3437673678762715,0.33787180426091057,-0.2210973757692403,0.7547341805485425
1772660176820056576,0.942070722579956,2.401298761367798,0.44636303186416626,2.571920871734619,-0.2112903892993927,-0.3484073877334595,-0.9132188558578491,-0.1467418521642685,-0.021587729454040527,0.12250840663909912,0.9108425670295726,0.2052220039840536,-0.03570012983689996,0.35633602453219876,0.35587149691581527,-0.22736805855649714,0.7868826270854273
1772660176830094592,0.95210862159729,2.3967156410217285,0.41623082756996155,2.629258632659912,-0.21669697761535645,-0.36471042037010193,-0.9055543541908264,-0.11887431144714355,-0.03949490189552307,0.10719931125640869,0.9036501101656821,0.21491980439882705,-0.03212921115341526,0.3690442859262998,0.37332176790675836,-0.2348807207047185,0.8199984025104932
1772660176840131840,0.9621458053588867,2.4085376262664795,0.42136406898498535,2.654895544052124,-0.2228289395570755,-0.3806047737598419,-0.8974894285202026,-0.105341836810112,-0.03362554311752319,0.08653056621551514,0.8960833480564544,0.22457677870030335,-0.028645399033600458,0.3818106378895676,0.39045021807238733,-0.24335946101951128,0.8539364950354296
1772660176850168832,0.9721827507019043,2.4584529399871826,0.45031648874282837,2.642904758453369,-0.22927068173885345,-0.39638403058052063,-0.888996422290802,-0.09755732119083405,-0.03064844012260437,0.060962975025177,0.8881830862049982,0.23425586750809574,-0.025019319044877534,0.39449857960623025,0.4075748768574013,-0.2523984468144482,0.888405971748061
1772660176860206592,0.9822206497192383,2.5232157707214355,0.4932951033115387,2.6337430477142334,-0.23579004406929016,-0.4123575687408447,-0.8799797296524048,-0.08346959948539734,-0.05076193809509277,0.030538201332092285,0.8799399137287167,0.2440611041457273,-0.021078908129148893,0.4070572778138506,0.42504037865763544,-0.2617995879631005,0.9233599629797633
1772660176870243840,0.992257833480835,2.554685592651367,0.5333352088928223,2.616015672683716,-0.24236372113227844,-0.4283693730831146,-0.8704938292503357,-0.06032487750053406,-0.08493632078170776,0.015147149562835693,0.8713692329740005,0.2539085366994444,-0.016838524163921068,0.4194789733082408,0.44268740709912086,-0.27154385837134665,0.9587824351314577
1772660176880280832,1.0022947788238525,2.5892415046691895,0.5621575117111206,2.577040433883667,-0.2489696741104126,-0.44431111216545105,-0.860582172870636,-0.0329211950302124,-0.11219218373298645,-0.00018131732940673828,0.8625214907615053,0.26373635401976026,-0.012330223365615864,0.43168016700893813,0.4604051662100182,-0.28161507927983326,0.9944868212497232
1772660176890318592,1.0123326778411865,2.580120086669922,0.5845674872398376,2.5454349517822266,-0.25569695234298706,-0.4600306451320648,-0.8502886891365051,0.0026451945304870605,-0.1255253553390503,-0.009055733680725098,0.8534342012819057,0.2734907853851473,-0.00764415448277356,0.44361528330906796,0.4780297205082784,-0.29211519498131233,1.0303844863870275
1772660176900355584,1.022369623184204,2.5245611667633057,0.5968960523605347,2.5027687549591064,-0.2625248432159424,-0.47510483860969543,-0.8398548364639282,0.03951764106750488,-0.13640642166137695,-0.009250998497009277,0.8441900381945984,0.2829562202005886,-0.0028914931774852294,0.4552699243212026,0.49508315669368264,-0.3029610354276991,1.0662977344883384
1772660176910392832,1.0324068069458008,2.4744372367858887,0.593660831451416,2.444676637649536,-0.26952609419822693,-0.48940205574035645,-0.8293619751930237,0.07045993208885193,-0.15248942375183105,-0.005965173244476318,0.8348612707564552,0.292088521888965,0.0018167226181180136,0.4665700498351929,0.5114039394792511,-0.3142138426799733,1.102017624011889
1772660176920430592,1.0424447059631348,2.4038610458374023,0.6112428307533264,2.3759734630584717,-0.2765631377696991,-0.5029731392860413,-0.8188595175743103,0.09951543807983398,-0.17576831579208374,-0.007236063480377197,0.8255046891084581,0.30087842358407396,0.006513593793454515,0.47746384726926083,0.5270352432977132,-0.3257129738347713,1.137358602849494
1772660176930467584,1.0524816513061523,2.2806429862976074,0.6350744962692261,2.306828498840332,-0.2834584414958954,-0.5155322551727295,-0.8086271286010742,0.12971088290214539,-0.204026460647583,-0.0009584426879882812,0.816212403886946,0.309130571035458,0.011168647700813711,0.4879660022334196,0.5416286935665562,-0.3371583357021069,1.1720959821608454
1772660176940504832,1.062518835067749,2.1307528018951416,0.6489245295524597,2.236706495285034,-0.29016783833503723,-0.5268002152442932,-0.7989268898963928,0.15906432271003723,-0.2378634810447693,-0.00045055150985717773,0.8070734606135695,0.3166870113349496,0.01568065067505779,0.4980922787642675,0.554831619877036,-0.34838287564167275,1.20601823568758
1772660176950542592,1.072556734085083,1.9352697134017944,0.642859160900116,2.1651463508605957,-0.2967599332332611,-0.5365452170372009,-0.7899700999259949,0.19083338975906372,-0.2748256325721741,-0.008156120777130127,0.798190630390589,0.32344936408354724,0.01988588249688181,0.5078157622924934,0.5663378066454744,-0.3593488918324635,1.2388458680364116
1772660176960579584,1.0825936794281006,1.7080861330032349,0.6202494502067566,2.0908985137939453,-0.3033180832862854,-0.544513463973999,-0.7819867134094238,0.2230721116065979,-0.3030359745025635,-0.015803813934326172,0.7896558963899124,0.3293162106315437,0.023610975050275887,0.5171430602515653,0.5758089518004428,-0.37001584719333763,1.270347545272878
1772660176970616576,1.0926306247711182,1.4657363891601562,0.5824814438819885,2.0064828395843506,-0.30988526344299316,-0.550604522228241,-0.7751166224479675,0.24900275468826294,-0.32560086250305176,-0.02531367540359497,0.7815714645315525,0.3342568104039757,0.026722361745900636,0.5260268990670823,0.583088258036625,-0.380326898530041,1.3002023987017226
1772660176980654592,1.1026687622070312,1.2282702922821045,0.5577473044395447,1.9065018892288208,-0.3163188397884369,-0.5548979640007019,-0.7694352865219116,0.271137535572052,-0.3395264744758606,-0.03885328769683838,0.7740114200455274,0.3382718385376319,0.029232025935606136,0.5344380352015787,0.5882402871038026,-0.39004298821231,1.3281384065634176
1772660176990691584,1.1127057075500488,0.9942405819892883,0.5204073786735535,1.8040951490402222,-0.3225387632846832,-0.5574910640716553,-0.7649656534194946,0.2927536070346832,-0.3434946537017822,-0.04712235927581787,0.7670165131772811,0.34138975734982074,0.03114821067452012,0.5423729439408114,0.591360564589246,-0.39901974561800924,1.3540059097729038
1772660177000728576,1.1227426528930664,0.7825765609741211,0.47101110219955444,1.6893775463104248,-0.3285004496574402,-0.5585718154907227,-0.7616330981254578,0.3144929111003876,-0.33598995208740234,-0.052942097187042236,0.7606320394600101,0.34369804838790563,0.032482507053278396,0.5497775369870699,0.5926629491986782,-0.4072036641330547,1.377624854458515
1772660177010766848,1.1327807903289795,0.5947690010070801,0.4031340777873993,1.575419306755066,-0.3343278169631958,-0.5583814382553101,-0.7592332363128662,0.3385850191116333,-0.31513845920562744,-0.05694413185119629,0.7548362631155004,0.3453686463037852,0.03322473060078201,0.5566317290472583,0.5924334608626348,-0.4147994906863337,1.3990688774169964
1772660177020803584,1.142817735671997,0.43336737155914307,0.3283115029335022,1.46684992313385,-0.340066134929657,-0.5571177005767822,-0.7576113343238831,0.3544551730155945,-0.286784827709198,-0.05339336395263672,0.7496136523381618,0.34652422403135386,0.0333962028657614,0.5629254802607709,0.5909109356659699,-0.42191067996672854,1.4183926912114968
1772660177030840576,1.1528546810150146,0.3672788143157959,0.27030012011528015,1.3503507375717163,-0.34567907452583313,-0.5552634000778198,-0.7564314007759094,0.36028173565864563,-0.2576485872268677,-0.0612717866897583,0.7448714009351994,0.34739538800655756,0.03317724864126161,0.5686670591496638,0.5886796376989932,-0.4286488088121848,1.435877485456022
1772660177040878848,1.1628928184509277,0.33597707748413086,0.24495401978492737,1.224851131439209,-0.35090750455856323,-0.5534024834632874,-0.7553870677947998,0.36000174283981323,-0.23218101263046265,-0.0786583423614502,0.7405216749092481,0.34817396431219066,0.032883797561324736,0.5738651962093139,0.5864437380824388,-0.434879376919773,1.4517670074513744
1772660177050915840,1.1729297637939453,0.32500025629997253,0.23418046534061432,1.0891114473342896,-0.35550856590270996,-0.5517849922180176,-0.7544183135032654,0.35270097851753235,-0.21753257513046265,-0.08675295114517212,0.7365631006579818,0.34888650278658606,0.03269657032716595,0.5785187081521568,0.5845030534208686,-0.4403722401881642,1.466060519705063
1772660177060952576,1.182966709136963,0.3305380046367645,0.2091827094554901,0.9555262327194214,-0.3594904839992523,-0.5505901575088501,-0.7534036040306091,0.3499689996242523,-0.2151874303817749,-0.0919790267944336,0.7329751270892254,0.34961502671670763,0.03267288823046527,0.5826227324735582,0.5830710560405094,-0.44520535506028874,1.4788575589539696
1772660177070990848,1.193004846572876,0.3225221633911133,0.17132718861103058,0.8313252329826355,-0.3629952371120453,-0.5498075485229492,-0.7522938847541809,0.3521615266799927,-0.20766925811767578,-0.09066265821456909,0.7297479705086144,0.3504001021221802,0.03275410723841134,0.5861866614935225,0.5821338436831646,-0.44956435604600825,1.4902463839732005
1772660177081027840,1.2030417919158936,0.3123973608016968,0.13257527351379395,0.719813883304596,-0.3661431074142456,-0.5493689775466919,-0.7510878443717957,0.3542565107345581,-0.1836937665939331,-0.08809977769851685,0.7268770787307017,0.35124836898682044,0.03287352157356413,0.5892313716282946,0.5816088825959793,-0.4535845513163876,1.5002935010882434
1772660177091064576,1.2130787372589111,0.2837567925453186,0.10828737914562225,0.6219230890274048,-0.3689470887184143,-0.5491363406181335,-0.7498849034309387,0.3540545105934143,-0.15169984102249146,-0.086464524269104,0.7243391690718799,0.3520910084266424,0.033006952173783584,0.5918406579396729,0.581330457630081,-0.4572311326104906,1.5091189810253964
1772660177101102592,1.2231166362762451,0.2557789385318756,0.08623374253511429,0.527384877204895,-0.3713802993297577,-0.5490310192108154,-0.7487600445747375,0.3495602309703827,-0.12530064582824707,-0.08876436948776245,0.7221441167445022,0.35287611238776173,0.03314251380626407,0.5940436721720325,0.5812044520771024,-0.4604374729641083,1.5167127454251068
1772660177111139840,1.2331538200378418,0.23278607428073883,0.07905718684196472,0.43322867155075073,-0.3734033703804016,-0.5490700602531433,-0.7477245330810547,0.3467157483100891,-0.10696631669998169,-0.09370613098144531,0.720260912023185,0.3535920739181339,0.03332230988642723,0.5958913124381827,0.581251151676039,-0.4631565124261636,1.5231909991865278
1772660177121176832,1.2431907653808594,0.19264636933803558,0.07392421364784241,0.34648847579956055,-0.37498149275779724,-0.5492151975631714,-0.7468276023864746,0.34306013584136963,-0.09934431314468384,-0.08845371007919312,0.7186981139456535,0.3542043466574553,0.03354806508177417,0.5973999882742578,0.5814248562991498,-0.46532548812604047,1.528536676757511
1772660177131214592,1.2532286643981934,0.1318558156490326,0.060557276010513306,0.27158042788505554,-0.3761632442474365,-0.5492545366287231,-0.746204137802124,0.3449132740497589,-0.09051591157913208,-0.0781366229057312,0.7174728515068123,0.354626696370248,0.03373183679581778,0.5986105968935025,0.5814718903907409,-0.46692408208960445,1.5327205562372768
1772660177141251840,1.26326584815979,0.07611639052629471,0.03891243413090706,0.19520840048789978,-0.3770624101161957,-0.5491488575935364,-0.7458280324935913,0.3504205644130707,-0.07887238264083862,-0.07399618625640869,0.716574393344781,0.3548836803262198,0.03381632256907833,0.5995291696708532,0.5813454504299115,-0.46808739769332525,1.5357959601924476
1772660177151288832,1.2733027935028076,0.007332442328333855,0.0060993582010269165,0.13170799612998962,-0.3777814209461212,-0.5488602519035339,-0.7456766963005066,0.3531079590320587,-0.055952370166778564,-0.06546533107757568,0.7160091610151648,0.3549975959247222,0.033739705755921404,0.6001411120492618,0.5810001261082051,-0.46893673204266695,1.5377549845268088
1772660177161326848,1.2833409309387207,-0.04769032821059227,-0.013716691173613071,0.08190953731536865,-0.3784109950065613,-0.5482813119888306,-0.7457833290100098,0.3502585291862488,-0.025601744651794434,-0.062001705169677734,0.7157278559630753,0.354948904250831,0.03346068731910697,0.6005209222363034,0.580307737839456,-0.46955064517292994,1.5387784390310624
1772660177171363840,1.2933778762817383,-0.08197537064552307,-0.02423604391515255,0.04079871624708176,-0.37889280915260315,-0.5475451946258545,-0.7460794448852539,0.34280577301979065,-0.005646944046020508,-0.0743246078491211,0.715665537845025,0.3547759834712411,0.033079799567912536,0.6007184462762769,0.5794277503754298,-0.46990398896111235,1.5390708161824038
1772660177181400832,1.3034148216247559,-0.09689253568649292,-0.029488863423466682,-0.019628405570983887,-0.37916380167007446,-0.5468475818634033,-0.7464533448219299,0.3320598900318146,0.0007202625274658203,-0.08583730459213257,0.7157931518372224,0.35454810069218895,0.032695114515823784,0.6007219785746518,0.578594267179293,-0.4699903632811506,1.538711913604016
1772660177191438848,1.313452959060669,-0.15841014683246613,-0.043937843292951584,-0.07233688980340958,-0.3791652321815491,-0.5460615754127502,-0.7470277547836304,0.31817588210105896,0.004145681858062744,-0.09003889560699463,0.7161705629164283,0.35418223510413105,0.032265694495155615,0.6005110975701394,0.5776557994456228,-0.46968139494253436,1.537507101308159
1772660177201475840,1.3234899044036865,-0.20164203643798828,-0.06546763330698013,-0.12397158890962601,-0.37902018427848816,-0.5450551509857178,-0.7478359341621399,0.30751749873161316,0.012889623641967773,-0.09226721525192261,0.7168085287587949,0.35366304780460267,0.031693589932221725,0.600086243467164,0.5764548964672785,-0.46909082098718297,1.5354384217687822
1772660177211512832,1.333526849746704,-0.2227158546447754,-0.058439951390028,-0.17635662853717804,-0.37866586446762085,-0.5440319776535034,-0.7487598657608032,0.29706186056137085,0.024287104606628418,-0.10530507564544678,0.7176501377665625,0.35306251684907525,0.031095458294441096,0.5994649175832956,0.5752350173348085,-0.46821635081349716,1.5326763828917263
1772660177221550848,1.3435649871826172,-0.2543715238571167,-0.05278526246547699,-0.22006016969680786,-0.37800148129463196,-0.5429692268371582,-0.7498661875724792,0.28557902574539185,0.0317692756652832,-0.10172677040100098,0.7186779873447621,0.3523283233060581,0.03052306943704696,0.5986944013836618,0.573968889956573,-0.4669157689124616,1.5292727225191165
1772660177231587840,1.3536019325256348,-0.28109079599380493,-0.04850117117166519,-0.25830355286598206,-0.377066969871521,-0.5418627858161926,-0.7511360049247742,0.27785423398017883,0.03261590003967285,-0.0946892499923706,0.7198757332458018,0.35147399654634087,0.029966921009772843,0.5977851663567569,0.5726518736695358,-0.465242797349683,1.5252846704540182
1772660177241624832,1.3636388778686523,-0.300252765417099,-0.06271019577980042,-0.2930980324745178,-0.37597447633743286,-0.5406894683837891,-0.7525278329849243,0.273114949464798,0.03925520181655884,-0.08624780178070068,0.7212260365826821,0.3505323862303121,0.029379134258243907,0.5967386669932755,0.5712565321096629,-0.46333985423715124,1.520776779333994
1772660177251662848,1.3736770153045654,-0.2917890250682831,-0.06610533595085144,-0.3285246193408966,-0.3747608959674835,-0.5396150350570679,-0.7539030909538269,0.27068066596984863,0.05122697353363037,-0.08568120002746582,0.7226880680060067,0.34959752982998504,0.028809859695147617,0.5955447830276912,0.5699798093634999,-0.4613202882638625,1.5158746698454146
1772660177261699840,1.383713960647583,-0.260490745306015,-0.06103627011179924,-0.3572036623954773,-0.37337303161621094,-0.5388009548187256,-0.7551729083061218,0.26720237731933594,0.060071706771850586,-0.09620648622512817,0.7242025557720136,0.34872516122740915,0.028360477453759095,0.5942365671463208,0.5690131683401081,-0.45917412573438937,1.5107586709169962
1772660177271736832,1.3937509059906006,-0.20834317803382874,-0.06761175394058228,-0.3946067988872528,-0.37179774045944214,-0.5384162068367004,-0.7562237977981567,0.26144617795944214,0.05767279863357544,-0.11198604106903076,0.7257483070805535,0.3479927063426383,0.02809249436631285,0.5927910111800572,0.5685564862440461,-0.4569456604816669,1.5054821160987404
1772660177281774848,1.4037888050079346,-0.1428549736738205,-0.07064215838909149,-0.44199588894844055,-0.3700650632381439,-0.5386385917663574,-0.7569149732589722,0.2513669729232788,0.0497775673866272,-0.12218958139419556,0.7273062309517533,0.34749942430235853,0.02804740556444573,0.5911710025859795,0.5688204613535013,-0.4547381841371762,1.5000912778834565
1772660177291811840,1.4138259887695312,-0.0834876075387001,-0.07578285783529282,-0.4908555746078491,-0.3680797517299652,-0.539509654045105,-0.7572625875473022,0.2442546784877777,0.05009925365447998,-0.12167418003082275,0.7288998949584665,0.3472316787344286,0.028264415417178387,0.5893523583535515,0.569854644478953,-0.45243858307577317,1.494487741994165
1772660177301848832,1.4238629341125488,-0.05307963490486145,-0.07953178882598877,-0.533315122127533,-0.3658764064311981,-0.5408844351768494,-0.7573496699333191,0.244279146194458,0.05283212661743164,-0.11816912889480591,0.730543903952038,0.34713494101034076,0.02867947533060311,0.5873503031772739,0.5714882705481114,-0.4500372700332513,1.488627846773932
1772660177311886848,1.4339008331298828,-0.022115550935268402,-0.09655032306909561,-0.5828559398651123,-0.36346280574798584,-0.5426518321037292,-0.7572474479675293,0.2502121031284332,0.04494071006774902,-0.11520427465438843,0.732270314634236,0.34716179337818875,0.0292396219851732,0.5851528321251447,0.5735910205646381,-0.44750281792772156,1.4824033540780832
1772660177321924096,1.4439380168914795,-0.009120123460888863,-0.1315501183271408,-0.6260548233985901,-0.36101722717285156,-0.5447597503662109,-0.7569037675857544,0.25754740834236145,0.023824691772460938,-0.1078728437423706,0.7340773000243351,0.347357610840838,0.029846300704927657,0.5827369379364111,0.5761026055203745,-0.4450510538529917,1.4758271935685847
1772660177331961856,1.4539759159088135,-0.02131371758878231,-0.18478231132030487,-0.6645152568817139,-0.3586743175983429,-0.5469849705696106,-0.7564127445220947,0.2629101276397705,0.00484013557434082,-0.08925986289978027,0.7360092124550153,0.34766713062347987,0.030351260230869474,0.5800834801944573,0.5787583865202658,-0.44277747287785235,1.4687712324351314
1772660177341998848,1.464012861251831,-0.04097636416554451,-0.24242429435253143,-0.7101538777351379,-0.3564946949481964,-0.549187183380127,-0.7558472156524658,0.2658117115497589,-0.0007243156433105469,-0.07455134391784668,0.7380982495256875,0.34804566680477483,0.030669379248436844,0.5771781650966871,0.5813913124849674,-0.440710791137267,1.461136421357477
1772660177352035840,1.4740498065948486,-0.04520045220851898,-0.2945387661457062,-0.764073371887207,-0.35445818305015564,-0.5514854192733765,-0.7551313042640686,0.26943621039390564,0.0012840032577514648,-0.0713152289390564,0.7403456842672175,0.34854486747059377,0.030835577885103466,0.5739808570990814,0.584143900614635,-0.43886886028332556,1.4528936392687994
1772660177362073856,1.4840879440307617,-0.03820299357175827,-0.3501194715499878,-0.8183014392852783,-0.35250458121299744,-0.5539531111717224,-0.754239022731781,0.27247223258018494,0.005048632621765137,-0.065890371799469,0.742739511651627,0.34917863585420983,0.030899421529145377,0.5704888408609058,0.5871049612264384,-0.4372000984037797,1.444057939154323
1772660177372110848,1.4941248893737793,-0.019728291779756546,-0.41651713848114014,-0.8651630282402039,-0.35070130228996277,-0.556709885597229,-0.7530489563941956,0.27700135111808777,0.009499192237854004,-0.05397313833236694,0.7452517077907391,0.35003234670004674,0.03086889203398032,0.5666783350228737,0.5904198845409341,-0.43584007235896854,1.4347017503146604
1772660177382147840,1.5041618347167969,-0.0030395935755223036,-0.4861356317996979,-0.9158957004547119,-0.34911027550697327,-0.5597402453422546,-0.7515403628349304,0.2822309732437134,0.015306651592254639,-0.04451066255569458,0.7478648217038661,0.3511216988182906,0.030714403717739647,0.5625552443833122,0.59407228925169,-0.43486811974022294,1.4248766910259254
1772660177392185856,1.51419997215271,0.01326698623597622,-0.5506553649902344,-0.9625648260116577,-0.3476998507976532,-0.563053548336029,-0.7497169375419617,0.2870461642742157,0.021839559078216553,-0.034447431564331055,0.7505891669445227,0.35244145580184866,0.03043911963219437,0.5580989137184702,0.5980760883988319,-0.4342498293587426,1.4145244770407672
1772660177402222848,1.5242369174957275,0.033704087138175964,-0.6321547627449036,-1.0024231672286987,-0.34655892848968506,-0.566647469997406,-0.7475343346595764,0.29106271266937256,0.022549569606781006,-0.030129849910736084,0.7533884158587723,0.35402265791881,0.03001319235438088,0.5533291305790821,0.6024313547128822,-0.4341081560980687,1.403763122896718
1772660177412259840,1.5342738628387451,0.06084369495511055,-0.7123818397521973,-1.041411280632019,-0.34575778245925903,-0.5705491900444031,-0.744933009147644,0.28719455003738403,0.019020259380340576,-0.023316502571105957,0.7562370905051289,0.3559049183848512,0.02941405286059062,0.5482444460031296,0.6071744040533515,-0.4345554029213423,1.3926660846668284
1772660177422297856,1.5443120002746582,0.07809405028820038,-0.7862379550933838,-1.0696660280227661,-0.34527283906936646,-0.5747236013412476,-0.7419430613517761,0.28103333711624146,0.01905953884124756,-0.013992607593536377,0.7591219819758321,0.35806151609460635,0.028643110257167988,0.5428677153403743,0.6122663238627872,-0.4355560998020079,1.381267970802183
1772660177432334848,1.5543489456176758,0.08697102963924408,-0.8494240045547485,-1.0938255786895752,-0.3450767993927002,-0.5790899991989136,-0.7386316657066345,0.2719719409942627,0.022251009941101074,-0.004623889923095703,0.7620220467778819,0.3604398118021781,0.02770015931948647,0.5372506575440122,0.6176120735159875,-0.4370517617167865,1.36964243486555
1772660177442371840,1.5643858909606934,0.09816350042819977,-0.9096074104309082,-1.118423342704773,-0.34511280059814453,-0.5836026668548584,-0.7350544929504395,0.26021289825439453,0.022491276264190674,0.004265308380126953,0.764940912607243,0.36299530649733247,0.026592412180850518,0.5314063819855315,0.6231582340116241,-0.4389565228057149,1.3577662981144611
1772660177452409856,1.5744237899780273,0.10362932831048965,-0.9614068269729614,-1.1427687406539917,-0.3453373610973358,-0.5882435441017151,-0.7312397956848145,0.2516941726207733,0.016573011875152588,0.013390064239501953,0.7678812374757878,0.36570293885140426,0.02532731735687171,0.5253363690455309,0.6288851621225253,-0.44121268229570265,1.3456141390307217
1772660177462446848,1.584460973739624,0.11127979308366776,-1.0191103219985962,-1.1708009243011475,-0.34571096301078796,-0.5930389761924744,-0.7271785736083984,0.24611684679985046,0.011923253536224365,0.024877548217773438,0.7708424728436203,0.36856276002279764,0.023920918342276217,0.5190289354004393,0.6348279043431927,-0.44378616417260414,1.333162331891592
1772660177472483840,1.5944979190826416,0.09455389529466629,-1.071556568145752,-1.195410966873169,-0.34623706340789795,-0.5978882908821106,-0.7229450345039368,0.24792468547821045,0.018161118030548096,0.04667550325393677,0.7738368149765921,0.37152203382549165,0.022335343238210875,0.5124930067211165,0.640864049918811,-0.4466466091863337,1.3203705499506877
1772660177482521856,1.6045358180999756,0.08536652475595474,-1.1271164417266846,-1.2078391313552856,-0.34694528579711914,-0.6026961803436279,-0.7186002135276794,0.25441598892211914,0.028462111949920654,0.07007122039794922,0.7768616287915218,0.3745374508467571,0.020532362075453912,0.5057530387620073,0.6468755818963734,-0.44979893023862894,1.307256620485677
1772660177492558848,1.6145730018615723,0.10910860449075699,-1.1885411739349365,-1.2213698625564575,-0.34786146879196167,-0.6076086163520813,-0.7140057682991028,0.26441115140914917,0.033557772636413574,0.08091855049133301,0.7798656224476974,0.3776943004407045,0.018551125439067256,0.49881112003044653,0.6530461901050505,-0.45335285887912335,1.2939690000885282
1772660177502595840,1.6246099472045898,0.14918252825737,-1.2630553245544434,-1.2314139604568481,-0.34908583760261536,-0.6127971410751343,-0.7089561223983765,0.27379897236824036,0.03786122798919678,0.09340137243270874,0.7827824532833805,0.3811206021914228,0.01640165329464099,0.49166023305193474,0.6595953372111479,-0.4575444106489238,1.2807123150079278
1772660177512633856,1.6346478462219238,0.17915183305740356,-1.342677116394043,-1.2127388715744019,-0.35074949264526367,-0.6182611584663391,-0.7033690214157104,0.2826800048351288,0.05153447389602661,0.10798633098602295,0.7855643741459971,0.3848617279209916,0.014033739466640292,0.4843275710351756,0.666528455477209,-0.4625835627739367,1.2676708736149982
1772660177522670848,1.6446847915649414,0.21954426169395447,-1.4291456937789917,-1.1663719415664673,-0.35305362939834595,-0.6238800883293152,-0.697227954864502,0.28684574365615845,0.06633919477462769,0.11660051345825195,0.7881381496560839,0.3889176133518725,0.011362987801868946,0.4769195602621862,0.67369770788041,-0.46872868596675593,1.2551855008064352
1772660177532707840,1.654721975326538,0.20235346257686615,-1.5199871063232422,-1.0966283082962036,-0.3561849892139435,-0.6293903589248657,-0.6906518936157227,0.2756185829639435,0.06113779544830322,0.11695194244384766,0.7904850951112184,0.39319954280484715,0.008256729678380004,0.46953086428578567,0.680768412383051,-0.4761466679973232,1.2434348275564926
1772660177542745856,1.664759874343872,0.20341314375400543,-1.628947138786316,-1.0118924379348755,-0.3603476881980896,-0.634564220905304,-0.6837234497070312,0.2376670241355896,0.02277839183807373,0.11614227294921875,0.7926059643123574,0.3976398076872867,0.004565982894270547,0.46220944256743635,0.6874445783575172,-0.48504267631073933,1.2325143722306344
1772660177552782848,1.6747968196868896,0.14658895134925842,-1.704938530921936,-0.9168738722801208,-0.36557379364967346,-0.6393183469772339,-0.6764820218086243,0.18181216716766357,-0.026880383491516113,0.10130196809768677,0.7944799738447927,0.402192642670449,0.0002750907732602542,0.45501937553156324,0.6936114528227071,-0.4954462304407453,1.2225563450945431
1772660177562819840,1.6848340034484863,0.05169413611292839,-1.7632262706756592,-0.8352309465408325,-0.37163200974464417,-0.6432080268859863,-0.6694573760032654,0.11449089646339417,-0.07847166061401367,0.09413999319076538,0.7962557306884647,0.40650920320965905,-0.004645687236584822,0.44800179080254,0.698680624614715,-0.5067688517300364,1.2130896066968506
1772660177572857856,1.6948719024658203,0.03645579516887665,-1.8019180297851562,-0.788196325302124,-0.3782850205898285,-0.6465408205986023,-0.662484347820282,0.04941236972808838,-0.1247146725654602,0.08484762907028198,0.7979156259116976,0.410679389468428,-0.010013745174692213,0.4411041500092195,0.7030412688488012,-0.5188303338372791,1.204069952421874
1772660177582894848,1.704908847808838,0.027033265680074692,-1.793436884880066,-0.7540343403816223,-0.38517093658447266,-0.649704098701477,-0.655383825302124,-0.006155967712402344,-0.13841241598129272,0.09350943565368652,0.7994298242925421,0.41480830410180347,-0.015561402335587723,0.434285485039365,0.7071950954707316,-0.5313284132952935,1.1954786810502989
1772660177592931840,1.7149457931518555,0.07102371752262115,-1.7307746410369873,-0.7395824193954468,-0.3918377161026001,-0.6528875827789307,-0.6482291221618652,-0.04799690842628479,-0.10997551679611206,0.12398290634155273,0.8007884646102216,0.4188613715030634,-0.020989919181511517,0.4276125220198199,0.7113904496620407,-0.543702757094084,1.1873111263849325
1772660177602969856,1.7249839305877686,0.1591583639383316,-1.6155369281768799,-0.7315439581871033,-0.39783474802970886,-0.6565248370170593,-0.6408608555793762,-0.07212063670158386,-0.0697629451751709,0.14974147081375122,0.8019218733270933,0.4229623692712508,-0.0259310059763404,0.42113140274575567,0.7162023503195729,-0.5555602635564565,1.1797575282732806
1772660177613006848,1.7350208759307861,0.3350081741809845,-1.4886046648025513,-0.7369875907897949,-0.40289467573165894,-0.6610230803489685,-0.6330280303955078,-0.07938989996910095,-0.02809441089630127,0.1704120635986328,0.8027315382478721,0.4272934243848038,-0.03010505604229864,0.41489300972990445,0.7221813603049847,-0.5667951557266283,1.1731650583801672
1772660177623043840,1.7450578212738037,0.5467467904090881,-1.3816055059432983,-0.7280521392822266,-0.4070524275302887,-0.6667769551277161,-0.6242731809616089,-0.06433737277984619,0.012708902359008789,0.1843775510787964,0.803074162715004,0.4321438218136652,-0.0333937110501733,0.40891150781208385,0.7298756001727534,-0.577809495052442,1.1680715956651169
1772660177633081856,1.7550959587097168,0.7673200964927673,-1.2971302270889282,-0.6895070672035217,-0.41057953238487244,-0.6737697124481201,-0.6143767237663269,-0.029194027185440063,0.05893206596374512,0.18897700309753418,0.8028612852005693,0.43763362019965146,-0.03589489204247251,0.40323945263438904,0.7392984975835624,-0.5891230065482921,1.1649233642480465
1772660177643118848,1.7651329040527344,1.0498889684677124,-1.2550413608551025,-0.6300903558731079,-0.41387712955474854,-0.6820078492164612,-0.6029685139656067,0.006101250648498535,0.09495645761489868,0.1703208088874817,0.8019586638682574,0.4439484146870131,-0.037756503283786526,0.39792779146017726,0.7505045283192162,-0.6015395097375924,1.164363285432115
1772660177653155840,1.775169849395752,1.409619688987732,-1.2404130697250366,-0.5772200226783752,-0.4171645939350128,-0.6918877363204956,-0.5892921090126038,0.02913355827331543,0.1130608320236206,0.14512401819229126,0.8001550735631513,0.4514815026477298,-0.03896662459118947,0.3929351454839104,0.7641003369360487,-0.6160136366275526,1.1672286209799818
1772660177663193856,1.785207986831665,1.7233304977416992,-1.2303998470306396,-0.5011298060417175,-0.4205724895000458,-0.7033259868621826,-0.5731067061424255,0.029276162385940552,0.13057208061218262,0.14145082235336304,0.7973837502775755,0.46030253920140596,-0.03960093325160519,0.38824269200487727,0.7800655021802991,-0.6330826258293871,1.1739197587433392
1772660177673230848,1.7952449321746826,2.1217596530914307,-1.1842880249023438,-0.4082804024219513,-0.42416486144065857,-0.7160622477531433,-0.5543815493583679,0.008195042610168457,0.14150786399841309,0.1432793140411377,0.7935660738724734,0.47035764465160435,-0.03965986586980855,0.3839837725291601,0.7981446883538487,-0.653103830310946,1.185044379029918
1772660177683267840,1.8052818775177002,2.6266579627990723,-1.1017402410507202,-0.31581759452819824,-0.4277932643890381,-0.7305395007133484,-0.5322640538215637,-0.023866891860961914,0.1469671130180359,0.12445765733718872,0.7883628945040465,0.4820403974490071,-0.03879468362048958,0.3802842059052708,0.8191116866015441,-0.6770074177643772,1.202201043601375
1772660177693305856,1.8153200149536133,3.1079866886138916,-1.0016483068466187,-0.20271992683410645,-0.43133437633514404,-0.7466267347335815,-0.5064575672149658,-0.061188846826553345,0.15945327281951904,0.13414311408996582,0.7816246926153295,0.4953925825337761,-0.03684286436840141,0.3772157659288274,0.8429768156014068,-0.7054623730106111,1.2264258787257194
1772660177703342848,1.8253569602966309,3.446226119995117,-0.8636255264282227,-0.03186962753534317,-0.43504995107650757,-0.763344943523407,-0.4775313138961792,-0.08309277892112732,0.18630331754684448,0.1809767484664917,0.7734052623835773,0.5099790027218317,-0.03399644167415045,0.37498003604565583,0.868475351120141,-0.7388809595855576,1.2582634670493793
1772660177713379840,1.8353939056396484,3.744391441345215,-0.718490719795227,0.15911656618118286,-0.43921878933906555,-0.7796743512153625,-0.44631263613700867,-0.09206181764602661,0.217937171459198,0.22504490613937378,0.7638455538757657,0.5252757555196672,-0.030480488186032606,0.37375987800618793,0.894145568939381,-0.7773874776474041,1.2978878925305584
1772660177723417856,1.8454318046569824,3.934232234954834,-0.5730571150779724,0.35497555136680603,-0.4440357983112335,-0.7951298356056213,-0.4130386412143707,-0.09279900789260864,0.2400912642478943,0.24438321590423584,0.7529722763137567,0.5410946376117425,-0.026405823920060467,0.3735668931020678,0.9192216496672664,-0.8215486248878591,1.3457485523299737
1772660177733454848,1.855468988418579,4.0112624168396,-0.4703301787376404,0.5502926111221313,-0.44974687695503235,-0.8089364171028137,-0.37861549854278564,-0.08621808886528015,0.2506020665168762,0.27831947803497314,0.7410818569444826,0.5569582711963939,-0.022130117188503044,0.37430669456850235,0.9423407577771854,-0.8710579326512974,1.4009304255419999
1772660177743491840,1.8655059337615967,3.9128870964050293,-0.3953741788864136,0.753395140171051,-0.4566228985786438,-0.8203840851783752,-0.3441880941390991,-0.07229247689247131,0.23600304126739502,0.314540296792984,0.7285614506207025,0.5723451885579014,-0.018081450377861914,0.3758885396732585,0.9620823517623909,-0.9248875392463364,1.461702499322399
1772660177753529856,1.8755438327789307,3.756356954574585,-0.3322776257991791,0.9261907339096069,-0.46480047702789307,-0.8290920257568359,-0.31075260043144226,-0.06785345077514648,0.1800593137741089,0.33191654086112976,0.7157793485547019,0.5868651239675367,-0.014595190943191649,0.37820154321185495,0.9774817645874553,-0.9814757498642663,1.5258782047001969
1772660177763566848,1.8855810165405273,3.6546459197998047,-0.2725224196910858,1.0195655822753906,-0.47387242317199707,-0.8354141712188721,-0.27843883633613586,-0.08935999870300293,0.09025126695632935,0.3137476444244385,0.7028773045316208,0.6005392071240229,-0.011543191550557276,0.3810288494004845,0.9888859288201722,-1.0395578663314295,1.5920137123239702
1772660177773603840,1.895617961883545,3.5834107398986816,-0.2047102153301239,1.06047785282135,-0.4832327365875244,-0.8399686217308044,-0.24685798585414886,-0.12978911399841309,0.005373835563659668,0.28256356716156006,0.6898419832730722,0.6135937328307067,-0.008586974846404322,0.3841185221331742,0.9972253594962194,-1.0985088359699144,1.6595332919418802
1772660177783641856,1.905655860900879,3.4348742961883545,-0.10932350158691406,1.1159586906433105,-0.4927610158920288,-0.842825174331665,-0.21640820801258087,-0.16860076785087585,-0.02530848979949951,0.2803577482700348,0.6768089762740823,0.6259100531042063,-0.005700920039734854,0.38747112984982046,1.0025113177680878,-1.1569810366684103,1.7271299613802102
1772660177793678848,1.9156928062438965,3.2539665699005127,0.0184463057667017,1.2075659036636353,-0.5026843547821045,-0.843804657459259,-0.18788865208625793,-0.194596529006958,0.007256805896759033,0.28612470626831055,0.6639502635576736,0.6372178600324342,-0.0030121383422590784,0.391298285084952,1.0043338105180641,-1.2131038741553195,1.793105200704425
1772660177803715840,1.9257299900054932,3.1338212490081787,0.14031654596328735,1.3034274578094482,-0.513189971446991,-0.8429805040359497,-0.1613072007894516,-0.20432406663894653,0.07331186532974243,0.2754887342453003,0.6511947658187506,0.6475694044706166,-0.0005144202685729634,0.3957259007218126,1.0027998955645498,-1.2662518652411776,1.8570425328823221
1772660177813753856,1.9357678890228271,3.095289945602417,0.2574595510959625,1.3633450269699097,-0.5241807103157043,-0.8406662940979004,-0.1360691636800766,-0.20273274183273315,0.1433854103088379,0.2553318738937378,0.6383413242728607,0.65723779665859,0.00197434653325456,0.4006930981130151,0.9985124086688504,-1.3168175332516776,1.9194903090767133
1772660177823790848,1.9458048343658447,3.1035845279693604,0.3518470227718353,1.3955838680267334,-0.5354164242744446,-0.8371800780296326,-0.11161986738443375,-0.1945946216583252,0.20128530263900757,0.22963136434555054,0.6252530153112142,0.6664597032354722,0.004640172092455307,0.40604027855839614,0.9921067441452117,-1.3652670816427055,1.9809240173589773
1772660177833828096,1.9558420181274414,3.135457992553711,0.4242517352104187,1.408527135848999,-0.5467817783355713,-0.83267742395401,-0.08762351423501968,-0.18438881635665894,0.23615038394927979,0.20767968893051147,0.6118719932798657,0.6753752181159971,0.00752048767151637,0.41161186217092655,0.9839252248157052,-1.4118942145155378,2.0414497399449854
1772660177843865856,1.9658799171447754,3.2506139278411865,0.4879758358001709,1.3952690362930298,-0.5581406354904175,-0.8273035287857056,-0.06362394988536835,-0.1858169436454773,0.2395501732826233,0.18818145990371704,0.5980651925627792,0.6841584181859015,0.010737008278147704,0.41728893691490065,0.9742905189290969,-1.4572935743014637,2.1016622051123175
1772660177853902848,1.975916862487793,3.5155770778656006,0.5706868171691895,1.3313043117523193,-0.5691721439361572,-0.8213075995445251,-0.03869437053799629,-0.20634067058563232,0.21744096279144287,0.1492900848388672,0.5834915201088808,0.6931355426699174,0.014694707764813684,0.4229480049674801,0.9636993645507191,-1.5029171709490223,2.163430526202954
1772660177863939840,1.9859538078308105,3.828415632247925,0.6778082251548767,1.2498306035995483,-0.5796176791191101,-0.81479811668396,-0.012140457518398762,-0.2352626919746399,0.19162917137145996,0.11867731809616089,0.5678193084315074,0.7025218552560519,0.019819538070878287,0.42854575649450516,0.952380863154959,-1.5498537591037642,2.2284524121790965
1772660177873977856,1.9959919452667236,4.1169257164001465,0.7777409553527832,1.1983636617660522,-0.5895901322364807,-0.8075456619262695,0.015920860692858696,-0.2533969283103943,0.17586231231689453,0.12937331199645996,0.550989503706003,0.7122346257418837,0.026120259211511367,0.4341084323792698,0.9399788996283192,-1.5977930336554147,2.296557571991674
1772660177884014848,2.006028890609741,4.3407111167907715,0.8683723211288452,1.1700105667114258,-0.5993964076042175,-0.7991767525672913,0.04516874626278877,-0.2646934986114502,0.1582772135734558,0.16215240955352783,0.5330294929399279,0.7221292639621809,0.03337213189015348,0.43965332190301604,0.9259243505947947,-1.6460112207675435,2.3668208305908407
1772660177894051840,2.016065835952759,4.444031715393066,0.9592140316963196,1.1435298919677734,-0.60917729139328,-0.7895078659057617,0.07470149546861649,-0.2768242359161377,0.135470449924469,0.20931029319763184,0.5142335802166964,0.731876326872248,0.04132541872380175,0.44521123286241365,0.910006695364701,-1.6928140098280697,2.4372975450515146
1772660177904089856,2.026103973388672,4.467196464538574,1.0552810430526733,1.1040771007537842,-0.6189417243003845,-0.7785780429840088,0.10357210785150528,-0.2944951057434082,0.10647428035736084,0.24741052091121674,0.49498975667915013,0.7411553827355222,0.04974689358294404,0.4507760098246162,0.8923967500886809,-1.7365975546792345,2.5060550850805265
1772660177914126848,2.0361409187316895,4.386914253234863,1.1245993375778198,1.057314157485962,-0.6286013722419739,-0.7665959000587463,0.13111495971679688,-0.3002468943595886,0.07660871744155884,0.2600135803222656,0.47565527074804664,0.7497605790165883,0.05845132775028588,0.45628346835910366,0.8735229665444448,-1.7764300882478994,2.5717694888214377
1772660177924163840,2.046177864074707,4.215877532958984,1.1952815055847168,1.0180602073669434,-0.6381990909576416,-0.7537758350372314,0.1566011756658554,-0.2860867977142334,0.05579310655593872,0.2625730037689209,0.4566060761046356,0.7574887721081938,0.06716654205428092,0.4617470446108773,0.8537892648104208,-1.8114218625142087,2.6331255820168527
1772660177934201856,2.05621600151062,3.9930100440979004,1.219362735748291,0.9595764875411987,-0.6476696729660034,-0.7404499650001526,0.17960518598556519,-0.2540026903152466,0.03479194641113281,0.2489989995956421,0.4381732293925228,0.7642480254843201,0.07568055198720491,0.4671206359150429,0.8337395629860258,-1.8413087212314034,2.6893828016826964
1772660177944238848,2.0662529468536377,3.7153480052948,1.183597445487976,0.8603215217590332,-0.6566815376281738,-0.727121889591217,0.2001575082540512,-0.2265123724937439,0.004847168922424316,0.2359996885061264,0.42068340285390954,0.7700953723663924,0.08385624628559772,0.4721722902177077,0.8141201784943356,-1.8666523112255478,2.7403642110149162
1772660177954275840,2.0762898921966553,3.3599417209625244,1.1435445547103882,0.7399227023124695,-0.6649046540260315,-0.7143837809562683,0.21807661652565002,-0.20921021699905396,-0.037843942642211914,0.22337539494037628,0.4045306897110623,0.77501416072432,0.09160437077838758,0.4767772299314469,0.7957430897764853,-1.8877227881465939,2.7857924434324333
1772660177964313856,2.0863277912139893,2.97287654876709,1.1031337976455688,0.6461221575737,-0.6723594665527344,-0.7025738954544067,0.23307226598262787,-0.20811843872070312,-0.07843196392059326,0.21065330505371094,0.3899898430901495,0.778964039587631,0.09874795930093462,0.48101121615394987,0.7790080450878599,-1.9044821056073535,2.8253094834161483
1772660177974350848,2.096364974975586,2.5904011726379395,1.0991404056549072,0.565561830997467,-0.6792348623275757,-0.6917967796325684,0.24506567418575287,-0.21250402927398682,-0.10669559240341187,0.19727134704589844,0.3770760560812361,0.7819594056921685,0.10522511369910609,0.4850575257761836,0.7639744267360592,-1.9170569986024324,2.8591574553696764
1772660177984387840,2.1064019203186035,2.26045823097229,1.0935592651367188,0.5165018439292908,-0.6856973171234131,-0.682031512260437,0.25426793098449707,-0.21405243873596191,-0.11397373676300049,0.19676661491394043,0.36563865306918136,0.7840892919734906,0.11107634585148438,0.48905460160723163,0.7505368942980882,-1.9258943084615292,2.888041963610863
1772660177994425856,2.1164398193359375,1.9794814586639404,1.0822618007659912,0.4874321222305298,-0.691909670829773,-0.6730977892875671,0.26115158200263977,-0.2001953125,-0.10189610719680786,0.20566055178642273,0.3554380005978424,0.7855244163529684,0.1163064081910853,0.4930394977791749,0.7383895379009117,-1.9317008948184922,2.9127515796402688
1772660178004462848,2.126477003097534,1.6936726570129395,1.0259873867034912,0.4691290259361267,-0.6979111433029175,-0.6649084687232971,0.2661140263080597,-0.17292314767837524,-0.0864037275314331,0.2111351191997528,0.34637695031685944,0.7864173236792578,0.12085037366498827,0.4969566896059262,0.7273712712413006,-1.935079469312116,2.933663105840592
1772660178014499840,2.1365139484405518,1.403985857963562,0.9507200121879578,0.44921231269836426,-0.7036076784133911,-0.6575204730033875,0.2694494426250458,-0.1442468762397766,-0.08321738243103027,0.20235225558280945,0.33850398800514664,0.786889478727731,0.12461810820263544,0.5006898519103365,0.7175230920728728,-1.9365221488459625,2.95084051367888
1772660178024537856,2.1465518474578857,1.121863842010498,0.900931715965271,0.39810410141944885,-0.7089088559150696,-0.6510910987854004,0.2711614668369293,-0.12647926807403564,-0.08865499496459961,0.15596255660057068,0.3318716212971678,0.7869434571886887,0.12767430962221105,0.5042622771304479,0.7090210734172512,-1.936130794303319,2.964441119105831
1772660178034574848,2.1565887928009033,0.8958799839019775,0.8519774079322815,0.3250276446342468,-0.7136630415916443,-0.6457685828208923,0.2714186906814575,-0.129522442817688,-0.09727340936660767,0.09337320923805237,0.32642373730357166,0.7866054842650442,0.13023498231914743,0.5076792954561264,0.7020295070494537,-1.9342209013901315,2.9750816122618584
1772660178044611840,2.1666259765625,0.7652729153633118,0.8048602342605591,0.24247658252716064,-0.7177605032920837,-0.641472339630127,0.2708006799221039,-0.14333868026733398,-0.09238386154174805,0.03509220480918884,0.3218978986028792,0.7860212935609768,0.1325551326925645,0.5108633354023856,0.6964159459394144,-1.9315692792389516,2.983851415387324
1772660178054649856,2.176663875579834,0.7362669110298157,0.787058413028717,0.15505285561084747,-0.7211981415748596,-0.638026237487793,0.26980727910995483,-0.15941715240478516,-0.06409168243408203,-0.009644836187362671,0.3179261387876112,0.7852954539842523,0.13496178880965043,0.5138282120873657,0.6919322748705188,-1.928786283623731,2.992013589772527
1772660178064686848,2.1867008209228516,0.8280959129333496,0.7891125082969666,0.08559867739677429,-0.7240893244743347,-0.6350714564323425,0.26903393864631653,-0.16548293828964233,-0.02111750841140747,-0.04114386439323425,0.3140323574658329,0.7845661128866458,0.137742460719812,0.5165915663605816,0.6881010516935014,-1.9265371720393205,3.0009046747172357
1772660178074723840,2.1967380046844482,1.0083093643188477,0.8218957781791687,0.022454598918557167,-0.7266148924827576,-0.6321959495544434,0.2689962089061737,-0.15601444244384766,0.018548548221588135,-0.06861785054206848,0.3097110840481877,0.7839428434455131,0.14117976424076914,0.5192117960681771,0.6843841604173706,-1.9253562559722686,3.011832226906327
1772660178084761856,2.2067759037017822,1.222580075263977,0.8038818836212158,-0.031654443591833115,-0.7287602424621582,-0.6292427778244019,0.2701142132282257,-0.13362061977386475,0.04330533742904663,-0.06882026791572571,0.30476102627333945,0.7835309125298838,0.14538370116803762,0.5215970587241787,0.6805785608276931,-1.92574692611885,3.025404142675327
1772660178094798848,2.2168128490448,1.3637670278549194,0.7772307991981506,-0.06789580732584,-0.7305885553359985,-0.6260789036750793,0.27251648902893066,-0.09652924537658691,0.05570542812347412,-0.06009894609451294,0.29919334055785446,0.7833888289382724,0.1502004734528109,0.5236649326028107,0.6765143752179882,-1.9278207696862952,3.04136409284408
1772660178104835840,2.2268497943878174,1.433500051498413,0.7575165033340454,-0.11667133122682571,-0.7321429252624512,-0.6228780746459961,0.27566176652908325,-0.07416188716888428,0.04672151803970337,-0.0536007285118103,0.29332580721620893,0.7833807958970439,0.15538795207156023,0.5254797687556904,0.672416221006245,-1.9308933343657098,3.05864427652544
1772660178114873856,2.2368879318237305,1.4264277219772339,0.7338393330574036,-0.1800600290298462,-0.733305811882019,-0.6199597120285034,0.2791285514831543,-0.07144278287887573,0.017557919025421143,-0.05009409785270691,0.28747079915619383,0.783384061317666,0.16085302004054658,0.5270638832653123,0.6686913649044038,-1.9345060886666217,3.0765335523519455
1772660178124910848,2.246924877166748,1.3518866300582886,0.7080484628677368,-0.23038525879383087,-0.7340520024299622,-0.6175506114959717,0.2824861705303192,-0.07387018203735352,0.0055817365646362305,-0.04202300310134888,0.2819519032543667,0.7833019055188388,0.16637673038516873,0.528450444861207,0.6656247525506377,-1.9381582313660743,3.094089301087639
1772660178134947840,2.2569618225097656,1.2916334867477417,0.6881242394447327,-0.2590256631374359,-0.7345209717750549,-0.6156095266342163,0.2854888141155243,-0.08148854970932007,0.02637612819671631,-0.04726862907409668,0.27683543435992597,0.783085018073942,0.17182045430129084,0.5297336302440355,0.6631591702947184,-1.9415005037645257,3.1108816638644483
1772660178144985856,2.2669999599456787,1.2383908033370972,0.6795528531074524,-0.26260337233543396,-0.7348697185516357,-0.6138961315155029,0.2882673144340515,-0.08933371305465698,0.0668533444404602,-0.058881908655166626,0.27195630887574146,0.7827809092340134,0.17716575837037393,0.5309483216903451,0.6609868252608365,-1.9446211615747213,3.127118199291877
1772660178155023872,2.2770378589630127,1.1866953372955322,0.6737489104270935,-0.23713064193725586,-0.7353061437606812,-0.6122230887413025,0.2907027304172516,-0.08476227521896362,0.10872876644134521,-0.05040726065635681,0.26724978065694377,0.7823785231144172,0.18230526397284186,0.5321901020562567,0.6588691424735411,-1.9472870170343743,-3.1405706662172705
1772660178165060864,2.2870748043060303,1.1220837831497192,0.6539227366447449,-0.1958705484867096,-0.7359071969985962,-0.6104452610015869,0.29291200637817383,-0.07018417119979858,0.12010401487350464,-0.04242369532585144,0.26267031386570217,0.7819412178072186,0.1871468376167152,0.5334307985833007,0.6566226301365041,-1.949601941914576,-3.125882589010916
1772660178175098624,2.2971127033233643,1.022925853729248,0.6249067783355713,-0.1489054262638092,-0.7367379069328308,-0.6085480451583862,0.2947656214237213,-0.054903388023376465,0.11066895723342896,-0.027721494436264038,0.25831204677555836,0.7814716824895876,0.19153281365121252,0.5346888449610401,0.6542294978163523,-1.9513851381534568,-3.1124501568719336
1772660178185135616,2.307149648666382,0.8185972571372986,0.5524413585662842,-0.05220632255077362,-0.7378563284873962,-0.6066016554832458,0.29597771167755127,-0.032102227210998535,0.10051333904266357,-0.024218648672103882,0.25436209566790186,0.7809379445558056,0.1952556802238615,0.5360141697790797,0.6517789579622897,-1.9522780990509623,-3.1009758112753683
1772660178195172864,2.3171868324279785,0.5900740623474121,0.3418545722961426,0.2541605532169342,-0.7397145628929138,-0.6038724184036255,0.296918123960495,-0.015107154846191406,0.07851231098175049,-0.02920272946357727,0.2509705818978211,0.7807182480938873,0.19732734206998967,0.5371728385673054,0.6483504500463464,-1.9525051772648838,-3.0932915058660915
1772660178205210624,2.3272247314453125,0.5851666331291199,0.24075061082839966,0.7071916460990906,-0.7434160709381104,-0.5986694693565369,0.29820722341537476,-0.04636359214782715,0.018621861934661865,-0.05377662181854248,0.2471480357017952,0.7811045037423382,0.19743192142310514,0.5383440262885378,0.6418389922009335,-1.952277311461226,-3.088723101466459
1772660178215247616,2.33726167678833,0.7000026702880859,0.1570272147655487,1.1517411470413208,-0.7495869994163513,-0.5897363424301147,0.3005498945713043,-0.1150827407836914,-0.04168754816055298,-0.03898373246192932,0.2419459753503113,0.7822927581148589,0.1956859428084,0.5396175815938739,0.6307323008645003,-1.9521248347330713,-3.0857798447010243
1772660178225284608,2.3472986221313477,1.0078411102294922,0.15184684097766876,1.4447818994522095,-0.7577432990074158,-0.57724529504776,0.30432355403900146,-0.1803516149520874,-0.09560626745223999,-0.010988622903823853,0.23491358579121913,0.7841618210396314,0.19300780714283075,0.5409748405442187,0.6153511121878268,-1.952696972892473,-3.0821211965750237
1772660178235322624,2.3573367595672607,1.2926390171051025,0.023021750152111053,1.6386407613754272,-0.7668551802635193,-0.5619022250175476,0.3101595640182495,-0.16548728942871094,-0.17669939994812012,0.0265408456325531,0.22609301211810912,0.7867104758501793,0.1901746689691318,0.5420351951899027,0.5966835754111784,-1.9551385813711317,-3.0761157138828983
1772660178245359616,2.3673737049102783,1.6547660827636719,-0.14435513317584991,1.756446361541748,-0.7761969566345215,-0.5439514517784119,0.31880244612693787,-0.09453052282333374,-0.33504629135131836,0.09774717688560486,0.21569573437035575,0.7901508100117831,0.1872509363180629,0.5422859693631016,0.5751389956249671,-1.96051290121967,-3.067667403797886
1772660178255396608,2.377410650253296,2.011645555496216,0.1154966875910759,0.7837586998939514,-0.7833852171897888,-0.527260422706604,0.32909587025642395,-0.11785989999771118,-0.5947182774543762,0.11964988708496094,0.20468851094732388,0.7935077390460139,0.18679774379348293,0.5418069020903719,0.5553732029199218,-1.9685046770270256,-3.0536279185329196
1772660178265434624,2.387448787689209,1.9389885663986206,0.4679383635520935,-0.7169280052185059,-0.7844001054763794,-0.5206334590911865,0.3371308743953705,-0.09218674898147583,-0.8006556034088135,0.10117778182029724,0.19638505164663547,0.7946369057210999,0.1926593538590849,0.5411722989151473,0.5475926956552912,-1.9767209574559703,-3.0317038722228773
1772660178275471616,2.3974857330322266,1.312558889389038,0.22679445147514343,-0.9964573979377747,-0.7808587551116943,-0.5222319960594177,0.34283146262168884,0.44666075706481934,-0.6480103135108948,0.21350395679473877,0.1919678703927961,0.7943340427307318,0.2011197756763957,0.5401227899448555,0.5494660838364962,-1.9845021032917338,-3.0097148711717105
1772660178285508608,2.407522678375244,0.7868244647979736,-0.08143368363380432,-0.9677378535270691,-0.7759692668914795,-0.5262525677680969,0.34774962067604065,0.6191089749336243,-0.2822953462600708,0.26013001799583435,0.19043258628060786,0.7941543651291793,0.2078308225071693,0.5383870039106368,0.5541874820961987,-1.9921096434921755,-2.994000464442025
1772660178295546880,2.4175608158111572,0.6382317543029785,-0.15474291145801544,-0.9875497221946716,-0.770300030708313,-0.5314340591430664,0.35244250297546387,0.11665928363800049,0.0023660659790039062,0.16832470893859863,0.1904762637292436,0.7941397999718014,0.21345546730850565,0.5361879680257329,0.560292586413355,-1.9999022082729085,-2.9818241464256072
1772660178305583616,2.427597761154175,0.7158315181732178,-0.13118192553520203,-0.9553918242454529,-0.7645781636238098,-0.5365678668022156,0.3570929169654846,-0.19333809614181519,0.13727587461471558,0.10222721099853516,0.190582060190148,0.7940925428889052,0.21900567366625479,0.5339776229056932,0.5663646010845466,-2.0077346341780937,-2.969761562705383
1772660178315620608,2.4376347064971924,0.8018319606781006,-0.12381550669670105,-0.972375750541687,-0.7589608430862427,-0.5410847067832947,0.36222362518310547,-0.14660263061523438,0.13257640600204468,0.09634879231452942,0.19023662180282952,0.7941165650828161,0.22470134411707754,0.5316937957677806,0.5717264294575495,-2.016089118305043,-2.956726134260581
1772660178325658880,2.4476728439331055,0.6936429142951965,-0.20583394169807434,-0.8908705115318298,-0.7532097697257996,-0.5454379320144653,0.3676583766937256,0.014623284339904785,0.05027496814727783,0.14287018775939941,0.18991038920689965,0.794222654441773,0.2303032105345501,0.5292493760098931,0.5769115185268564,-2.0248966133543,-2.9436749133246667
1772660178335695616,2.457709789276123,0.5103753805160522,-0.20478931069374084,-0.8146456480026245,-0.7477896809577942,-0.5496158599853516,0.3724682927131653,0.13185352087020874,-0.0034083127975463867,0.17970138788223267,0.19001080342437038,0.7943351878642012,0.23508671358525926,0.5269360712671318,0.5819043658449562,-2.0329166305085438,-2.93272191428825
1772660178345732608,2.4677467346191406,0.45781415700912476,-0.211223766207695,-0.7303536534309387,-0.7426949739456177,-0.553643524646759,0.3766736686229706,0.10231411457061768,-0.0012270808219909668,0.11923694610595703,0.19042149752985926,0.7944206304284246,0.23923356078427313,0.5247883543874077,0.5867331562780198,-2.0401646091201804,-2.9234249270299633
1772660178355770624,2.4777846336364746,0.5590312480926514,-0.17828220129013062,-0.6054784655570984,-0.738219141960144,-0.5567139983177185,0.38092297315597534,0.018767178058624268,0.05511176586151123,0.02090209722518921,0.19041277709725876,0.7946010536540989,0.2430445413804466,0.5227634082305127,0.5904248191711108,-2.047163875045514,-2.914332419478576
1772660178365807872,2.4878218173980713,0.6933856010437012,-0.14235961437225342,-0.42554596066474915,-0.7346948385238647,-0.5581745505332947,0.38557106256484985,-0.057862043380737305,0.1372607946395874,-0.0435909628868103,0.18948721010641045,0.794965476530698,0.2466078350987005,0.5208734891385919,0.5921840946799619,-2.0540899701752915,-2.904737867420153
1772660178375844608,2.497858762741089,0.8016679883003235,-0.10906850546598434,-0.23302790522575378,-0.732382595539093,-0.5576451420783997,0.3907012343406677,-0.09078323841094971,0.22190600633621216,-0.08543401956558228,0.18751357406782684,0.7956068727636633,0.24972047462809766,0.519122306082936,0.5915461470370383,-2.060856946518493,-2.894937367891005
1772660178385882624,2.507896661758423,0.8217213153839111,-0.10271074622869492,-0.10502999275922775,-0.7310177087783813,-0.5556637644767761,0.3960442543029785,-0.09581035375595093,0.2754971385002136,-0.09277582168579102,0.18479834978459464,0.7964198195886423,0.25246306817982245,0.5175205197253385,0.5891611267194854,-2.0672998265493714,-2.8851745861962326
1772660178395919872,2.5179338455200195,0.6289745569229126,-0.12406996637582779,0.09751259535551071,-0.7302640676498413,-0.5534574389457703,0.40049922466278076,-0.05371743440628052,0.255132794380188,0.1336652934551239,0.18267304383355165,0.7973405773810219,0.2539637949789079,0.5161212151947564,0.5865097693269461,-2.072433861836398,-2.878719423395738
1772660178405956864,2.527970790863037,0.6683307886123657,0.09198269993066788,0.02108892984688282,-0.7305219173431396,-0.5503668785095215,0.4042696952819824,-0.050361812114715576,0.01629406213760376,0.11684843897819519,0.17989342396850835,0.7980518221191536,0.2554371377609137,0.5152703107704691,0.5828036115680709,-2.076244965626611,-2.8720692274786024
1772660178415994624,2.538008689880371,0.5733398199081421,0.16421136260032654,0.012871479615569115,-0.7310385704040527,-0.5477342009544373,0.4069022238254547,-0.15639716386795044,-0.1084699034690857,-0.0276908278465271,0.17721097374879918,0.7983385780633662,0.257112078456654,0.5149223560733976,0.579653689369381,-2.0786989900690083,-2.865555657632051
1772660178426031616,2.5480456352233887,0.5744897723197937,0.22070765495300293,0.23458363115787506,-0.7325652241706848,-0.5445784330368042,0.4083896577358246,-0.14663082361221313,0.13410186767578125,-0.09833115339279175,0.17439871774068655,0.7984351927944411,0.2582558303861537,0.5151602848729917,0.5758864059045371,-2.079363359299253,-2.8604357527932147
1772660178436068864,2.5580828189849854,0.7253343462944031,0.19190330803394318,0.24244621396064758,-0.7347236275672913,-0.5401545166969299,0.4103829562664032,-0.15397870540618896,0.2959986925125122,-0.20112398266792297,0.1709626513901163,0.798793584146337,0.25907584297529945,0.5153447729589352,0.5706206862025722,-2.080183337633992,-2.855262134057098
1772660178446106624,2.5681207180023193,0.9440451264381409,0.24561607837677002,0.21190056204795837,-0.7368555665016174,-0.5349354147911072,0.4133857488632202,-0.1697911024093628,0.22144365310668945,-0.19753497838974,0.16670302909950374,0.7992731731654357,0.2604904365295289,0.5152835753262508,0.5644312918543013,-2.0820556670563817,-2.8478747502593618
1772660178456143616,2.578157663345337,0.9841465950012207,0.3474262058734894,0.09525903314352036,-0.7389265298843384,-0.5297254323959351,0.4163876175880432,-0.12974107265472412,0.03863656520843506,-0.12296116352081299,0.16202643743123513,0.7995244066642548,0.2625919590380432,0.5153189775695918,0.5582768026196218,-2.083947708622079,-2.838807731396429
1772660178466180864,2.5881948471069336,0.6760929226875305,0.29961979389190674,0.04125545173883438,-0.7406498193740845,-0.5257856845855713,0.41831451654434204,-0.07221633195877075,-0.08958595991134644,0.04652923345565796,0.1580280937988794,0.7993788206787916,0.2648598797739301,0.5156256358298401,0.5536385442266031,-2.0849266348869904,-2.8303677691730718
1772660178476218624,2.5982327461242676,0.7314895987510681,0.21211349964141846,-0.10383130609989166,-0.7417154908180237,-0.5230312347412109,0.4198767840862274,-0.05021566152572632,-0.25486183166503906,0.3923943042755127,0.15496196917222937,0.7991852012071957,0.26691085910693507,0.5157988113953027,0.5504035619025966,-2.085907769192348,-2.8232550498283624
1772660178486255616,2.608269691467285,0.5303775072097778,0.24699905514717102,-0.2778363823890686,-0.7415018081665039,-0.5218667984008789,0.4216991364955902,-0.0942220687866211,-0.5218191146850586,0.5322345495223999,0.15257278695891338,0.7988256562584514,0.26967968695310124,0.515627755219237,0.5490379038188734,-2.0878902879268653,-2.815190043424401
1772660178496292608,2.6183066368103027,0.42021679878234863,0.10368011146783829,-0.2804839611053467,-0.7407816052436829,-0.5220884680747986,0.4226895868778229,-0.10859894752502441,-0.3059602975845337,0.4517154097557068,0.15125659021536594,0.7983024438393078,0.27213599584144876,0.5155353835476398,0.5492978279309184,-2.089317205862099,-2.8089096162950806
1772660178506330624,2.628344774246216,0.47690537571907043,-0.006593933328986168,-0.40481629967689514,-0.7392489910125732,-0.5226551294326782,0.42466747760772705,-0.20064657926559448,0.07603037357330322,0.20788559317588806,0.1502716845073492,0.7980650927425431,0.27463766153778263,0.514863710595025,0.5499623167241744,-2.092223166708195,-2.8024558289937636
1772660178516367616,2.6383817195892334,0.5114312767982483,-0.11625265330076218,-0.321363627910614,-0.7369564175605774,-0.5232667326927185,0.42788657546043396,-0.22797876596450806,0.20530414581298828,0.09132415056228638,0.14929619113105405,0.7981109532665369,0.2774205972402525,0.5135828046429994,0.550679909551274,-2.0968387640298114,-2.7950057464730866
1772660178526404608,2.648418664932251,0.3347364068031311,-0.16468143463134766,-0.30090203881263733,-0.7347466349601746,-0.5236292481422424,0.4312300682067871,-0.1681157350540161,0.07900351285934448,0.06536713242530823,0.14854225835393398,0.7983858322343197,0.2796338555569065,0.5121718844541949,0.5511053725616312,-2.101535117201653,-2.7888139190716146
1772660178536442880,2.658456802368164,0.06375723332166672,-0.13638921082019806,-0.2596559226512909,-0.7325575947761536,-0.5249341130256653,0.4333632290363312,-0.16929787397384644,-0.08152645826339722,0.05429244041442871,0.14872547038615466,0.7985079245656743,0.28118802711058233,0.511076480174627,0.5526376949880654,-2.1049984124938033,-2.7850980596463293
1772660178546479616,2.6684937477111816,-0.005977903492748737,-0.047983184456825256,-0.2619912326335907,-0.7308202385902405,-0.5267379283905029,0.43410724401474,-0.1462397575378418,-0.10360270738601685,0.06917339563369751,0.14944494993929403,0.7983909787843642,0.28217984615903147,0.5105023507688581,0.5547584005181537,-2.10679240261302,-2.783411205059949
1772660178556516608,2.678530693054199,0.15132133662700653,0.01920597068965435,-0.3379664421081543,-0.7291438579559326,-0.5286750793457031,0.43457067012786865,-0.1392490267753601,-0.0931205153465271,0.07708698511123657,0.15000820243427654,0.7980647757522643,0.2835100528548308,0.5101099176425336,0.5570389454385987,-2.1082704106691854,-2.7810153483866267
1772660178566554880,2.6885688304901123,0.3316493034362793,0.06974344700574875,-0.465085506439209,-0.727246880531311,-0.5306654572486877,0.4353228509426117,-0.1254447102546692,-0.09843909740447998,0.07982906699180603,0.15007529401408454,0.7975055805196581,0.2857381231778117,0.5097214115578392,0.5593854864504182,-2.11017856442222,-2.7763163018978694
1772660178576591616,2.69860577583313,0.5911290049552917,0.09590674191713333,-0.5349515676498413,-0.7249799370765686,-0.5322607159614563,0.4371526539325714,-0.10949265956878662,-0.027858853340148926,0.0926019549369812,0.1493817641259832,0.796920635610368,0.28895299096358085,0.5090272131128729,0.5612687112925396,-2.1134084134812574,-2.7686390617162773
1772660178586628608,2.7086427211761475,0.706183910369873,0.2377624213695526,-0.5604990124702454,-0.7226598262786865,-0.5333738327026367,0.4396308958530426,-0.11816054582595825,0.025530755519866943,0.04921501874923706,0.14792390248298265,0.7962249727481836,0.2929867522614784,0.5082353137939465,0.5625841289550081,-2.1173337229057556,-2.7584688674946896
1772660178596666880,2.7186808586120605,0.39335405826568604,0.33451226353645325,-0.5306624174118042,-0.721031665802002,-0.534813642501831,0.44055402278900146,-0.13239246606826782,-0.058554887771606445,-0.019441962242126465,0.14664447667293354,0.7951099358855177,0.29677802725218716,0.5081519656459781,0.5642871756423399,-2.1192685480111884,-2.749468796068971
1772660178606703872,2.728717803955078,0.1885548233985901,0.3383235037326813,-0.5751001834869385,-0.7194911241531372,-0.5376211404800415,0.43965473771095276,-0.12895864248275757,-0.25551551580429077,-0.060992538928985596,0.14647522005961747,0.7936395857012349,0.29993929240254424,0.5086430219671273,0.5676132685643369,-2.1193110391759196,-2.743230168881561
1772660178616740608,2.7387547492980957,0.29150545597076416,0.40581387281417847,-0.5527743101119995,-0.7179831266403198,-0.5407043099403381,0.438336580991745,-0.0687752366065979,-0.1479400396347046,-0.13165023922920227,0.1464710718873267,0.7920408198735742,0.3030505341425753,0.509291564099813,0.5712741241611994,-2.1189086439260207,-2.7373552940274855
1772660178626778624,2.7487926483154297,0.30775099992752075,0.4614425301551819,-0.4027448892593384,-0.7172977924346924,-0.542830228805542,0.43682822585105896,-0.024645447731018066,0.12347304821014404,-0.1817929446697235,0.1458001050807976,0.7903931767483982,0.30609268714953797,0.5102235763794142,0.5738034041237067,-2.117800971729838,-2.731181172052428
1772660178636815872,2.7588298320770264,0.294950008392334,0.47534382343292236,-0.36595210433006287,-0.7173053622245789,-0.5443223118782043,0.4349558651447296,-0.014857172966003418,0.01423192024230957,-0.16128939390182495,0.14488283301637844,0.7887765506905409,0.3087223409830857,0.511401164052683,0.575581026299818,-2.115889968266913,-2.725794174071054
1772660178646852608,2.768866777420044,0.5874085426330566,0.47942110896110535,-0.2982487082481384,-0.7175668478012085,-0.5448578000068665,0.43385258316993713,0.03322535753250122,-0.10328984260559082,-0.14167720079421997,0.14332069914968573,0.7873496175254984,0.31145925694737725,0.5123797379724203,0.5762195467400897,-2.114603207842324,-2.719414913355628
1772660178656890624,2.778904676437378,1.0771180391311646,0.5411888360977173,-0.25081250071525574,-0.7182518243789673,-0.5431644916534424,0.434841126203537,0.07697063684463501,0.10726660490036011,-0.1875113844871521,0.13992171541062692,0.7862324909877901,0.31505402569354785,0.5128366268928778,0.5742014559641369,-2.115188649328045,-2.709125670275978
1772660178666927616,2.7889416217803955,1.287719488143921,0.577516496181488,-0.21001872420310974,-0.719597339630127,-0.5395236015319824,0.4371427595615387,0.03450828790664673,0.1913791298866272,-0.2239622175693512,0.13482892093752755,0.785196479076574,0.31943367976806764,0.5130786876414404,0.5698712083029775,-2.116699476477369,-2.6954766317482526
1772660178676964864,2.798978805541992,1.387406587600708,0.5737244486808777,-0.23731133341789246,-0.7209485173225403,-0.5352519154548645,0.4401571750640869,0.030366361141204834,0.08133357763290405,-0.19058451056480408,0.12919198398534504,0.7842207972156523,0.3241548025606315,0.5130601745646075,0.5648059583006473,-2.1189189754433757,-2.68046692704001
1772660178687002624,2.809016704559326,1.4952107667922974,0.6069942712783813,-0.2094205766916275,-0.7223823070526123,-0.5304850935935974,0.4435645043849945,0.0836493968963623,0.1428813338279724,-0.1377631425857544,0.12314470413344178,0.7832479087407473,0.3290971956060843,0.5128870845362871,0.5591726814415444,-2.121468269420279,-2.6645653140202747
1772660178697039616,2.8190536499023438,1.4453868865966797,0.6189952492713928,-0.18878532946109772,-0.7240888476371765,-0.525313138961792,0.4469245672225952,0.07308787107467651,0.1697375774383545,-0.12766492366790771,0.11680780642671827,0.7822148980371225,0.33406906543324505,0.5127316218163201,0.5530831015338986,-2.123783901277998,-2.6484124356118413
1772660178707076864,2.8290908336639404,1.2688168287277222,0.5702980160713196,-0.2221347689628601,-0.7257325053215027,-0.5206040740013123,0.4497597813606262,0.044320762157440186,0.08089154958724976,-0.15160298347473145,0.1109201576891728,0.7811079876145043,0.33874798732207834,0.5126566724227152,0.5475583122835798,-2.125598575874141,-2.6333837462601286
1772660178717114624,2.8391287326812744,0.8145188093185425,0.5049037337303162,-0.29614120721817017,-0.7266736030578613,-0.5179350972175598,0.45131903886795044,0.05682796239852905,0.014944374561309814,-0.08957898616790771,0.1067108972674077,0.7798703249649119,0.3427270047549481,0.5127897301620021,0.5444352805272036,-2.12656844496582,-2.621480136618487
1772660178727151616,2.849165678024292,0.5481992363929749,0.580244243144989,-0.18659955263137817,-0.7278223633766174,-0.5167288780212402,0.450850248336792,0.12966257333755493,-0.17717981338500977,0.134782075881958,0.1038285431790592,0.7784170215844156,0.34567624169092454,0.5136093105027146,0.543025792912712,-2.1253953669772385,-2.6133597244798543
1772660178737188608,2.8592026233673096,0.7668644189834595,0.615270733833313,-0.15861399471759796,-0.7297055721282959,-0.5150110125541687,0.44977015256881714,0.08651715517044067,-0.12428641319274902,0.06228429079055786,0.10067591315835953,0.776899922193394,0.3482981274773106,0.5147613180737076,0.541020510581023,-2.1231672193653788,-2.60590067700992
1772660178747226624,2.8692407608032227,0.9123255014419556,0.5748779773712158,-0.16344550251960754,-0.7315914630889893,-0.5123810172080994,0.44971075654029846,-0.03812289237976074,0.08171701431274414,-0.14238345623016357,0.09675033972671773,0.7754820507180941,0.3514014414433834,0.5155424777940583,0.5379551627981761,-2.1219560778645388,-2.5965145588881
1772660178757263616,2.8792777061462402,0.983129620552063,0.47579389810562134,-0.1776549369096756,-0.7331213355064392,-0.5093966126441956,0.45060884952545166,-0.012133181095123291,0.015149176120758057,-0.12936556339263916,0.09259123875945982,0.7742413371161019,0.3547601714288038,0.5158705953407517,0.5344834627966557,-2.121914184038601,-2.5861027504179575
1772660178767300608,2.889314651489258,1.0011603832244873,0.43873706459999084,-0.12312696129083633,-0.7343948483467102,-0.506026029586792,0.4523291289806366,0.04485023021697998,-0.09214895963668823,-0.06448131799697876,0.08830852913301433,0.7732351577256028,0.35815074192859714,0.5157877034830696,0.5305711097513461,-2.12284018936056,-2.5752649594345858
1772660178777338624,2.899352788925171,1.0349394083023071,0.3145163059234619,-0.168086975812912,-0.7354089021682739,-0.5023979544639587,0.4547197222709656,-0.0171239972114563,-0.009656429290771484,-0.10655990242958069,0.08404058113661274,0.7724630742137885,0.3614701425130272,0.5153419268020545,0.526369887855124,-2.1245792922479847,-2.564377713909854
1772660178787375616,2.9093897342681885,1.1197336912155151,0.10076913982629776,-0.21570509672164917,-0.7352291345596313,-0.4988703727722168,0.45887523889541626,-0.024948418140411377,0.060653239488601685,-0.12042000889778137,0.0799867285809962,0.7720737978178033,0.3651570417142306,0.513969366371787,0.5222948947242175,-2.1287665237178373,-2.5523564215194248
1772660178797412608,2.919426679611206,0.9814324378967285,-0.017484398558735847,-0.15635882318019867,-0.7342840433120728,-0.4953779876232147,0.4641416668891907,0.09053105115890503,0.0016798675060272217,-0.07986441254615784,0.07638098438806179,0.772136653584375,0.3686133735772635,0.5119522067650126,0.5182698936337427,-2.134485687400888,-2.5408381636040227
1772660178807450880,2.929464817047119,0.4309147298336029,-0.6584601402282715,-0.44014260172843933,-0.7315177321434021,-0.49344733357429504,0.4705226719379425,0.0024527907371520996,-0.00025078654289245605,-0.2865016460418701,0.07460276686795962,0.7728777044990038,0.37137770106045886,0.5090904645991453,0.5160487795065349,-2.1423865030751164,-2.531825805622557
1772660178817487616,2.9395017623901367,0.3522530198097229,-0.6658349633216858,-0.4577202796936035,-0.7257168889045715,-0.4952496886253357,0.477559357881546,0.005135774612426758,-0.2184496819972992,0.09763604402542114,0.07571555043374345,0.7739007984034434,0.37397490745256734,0.5054577669516019,0.5181222243854451,-2.152811090863523,-2.5250927321589534
1772660178827524608,2.9495387077331543,0.21183599531650543,-0.7944965362548828,-0.4880552887916565,-0.7200791239738464,-0.4973357617855072,0.4838835299015045,0.19241493940353394,-0.6875549554824829,0.38232743740081787,0.07726380150826491,0.7749537182674872,0.3760166230755076,0.5020842082850265,0.5205250958028288,-2.1624729484050813,-2.520000886926536
1772660178837562880,2.9595768451690674,0.9565067887306213,-0.8120478391647339,-0.5696606040000916,-0.7133423686027527,-0.49843406677246094,0.49265256524086,-0.1322845220565796,-0.39277082681655884,0.3636707663536072,0.07790254708344019,0.776169745482859,0.37932415699454614,0.49759928807400844,0.5217915271219304,-2.1752030613642037,-2.5107853731549694
1772660178847599872,2.969613790512085,1.3650050163269043,-0.8054327964782715,-0.524418830871582,-0.7065675258636475,-0.49644532799720764,0.5042862892150879,-0.12148123979568481,0.027206987142562866,0.2720809578895569,0.0762299716820522,0.7775901983368766,0.38405290071054127,0.49198164698716257,0.5194990192937182,-2.1906663519079257,-2.4960406794415575
1772660178857636608,2.9796507358551025,1.7226544618606567,-0.6980952024459839,-0.6536831259727478,-0.6998407244682312,-0.4925631284713745,0.5173048973083496,-0.022281408309936523,0.09308809041976929,0.22793430089950562,0.0730819005672157,0.778925836062101,0.38977814449843456,0.48580504481149017,0.5150325064581716,-2.2073334883593194,-2.4777642654973855
1772660178867674624,2.9896886348724365,1.8132003545761108,-0.4846601188182831,-0.696928083896637,-0.6932680606842041,-0.48805058002471924,0.5302701592445374,-0.08758527040481567,0.05174073576927185,-0.0413936972618103,0.0689905882557461,0.7796534902906251,0.3965797696938414,0.4796929931284847,0.5098548688624073,-2.2237557852740335,-2.456601374084636
1772660178877711872,2.999725818634033,1.8304792642593384,-0.4885473847389221,-0.5104129314422607,-0.6873425245285034,-0.4825647473335266,0.5428549647331238,-0.1110582947731018,0.0474604070186615,-0.3510062098503113,0.06439938187657679,0.7802673880250126,0.40324963983346973,0.47373541295262145,0.503580615463561,-2.2392793962066855,-2.4355706343301615
1772660178887748608,3.009762763977051,1.8484512567520142,-0.43580880761146545,-0.4268213212490082,-0.6824349761009216,-0.47576412558555603,0.5549150109291077,-0.010603904724121094,0.1885022222995758,-0.6161639094352722,0.059395423885694056,0.7810442576553549,0.4091789032087025,0.46798993178249054,0.49583257161128996,-2.2534981147539943,-2.4161294366396255
1772660178897786624,3.0198006629943848,1.828043818473816,-0.4188140034675598,-0.11635015904903412,-0.6786501407623291,-0.46719786524772644,0.5667102336883545,-0.008331239223480225,0.4686168432235718,-0.8471361398696899,0.0535851090696312,0.7819548693033761,0.41461028141768747,0.46235660711997695,0.48611884310266024,-2.2665498302947955,-2.39746714746805
1772660178907823872,3.0298378467559814,1.38837730884552,0.048419781029224396,0.30071499943733215,-0.6783748865127563,-0.45737698674201965,0.5749902725219727,-0.07914769649505615,0.35631802678108215,-0.7059412002563477,0.047384497768170115,0.7828881307148695,0.4178292705377467,0.45854070344829306,0.47504332688425777,-2.273895153620008,-2.384485856694383
1772660178917860864,3.039874792098999,0.777779221534729,0.2218950390815735,0.30225974321365356,-0.6804707646369934,-0.449124276638031,0.579005241394043,-0.1634623408317566,0.215359628200531,-0.6517438888549805,0.04227146651559491,0.7835183496099061,0.4190484819021603,0.45684848470067446,0.4657849487034507,-2.275806436528807,-2.3777084799177146
1772660178927898624,3.049912691116333,0.5662728548049927,0.20647107064723969,0.4323034882545471,-0.6834126114845276,-0.4428345859050751,0.5803834199905396,0.013002395629882812,0.0569092333316803,-0.4665833115577698,0.038397936983655526,0.7839014733633463,0.41915412911437133,0.45643612958243324,0.4587576742076841,-2.2748507833711065,-2.3747858318066872
1772660178937935616,3.0599496364593506,0.556009829044342,0.16863606870174408,0.5807150602340698,-0.6868265867233276,-0.43601202964782715,0.5815173983573914,0.1979503631591797,-0.1781083643436432,-0.06242871284484863,0.03458677346586866,0.7846332261881985,0.41846073778994197,0.45611947140150505,0.4511625384665119,-2.273355606783486,-2.3736884310983584
1772660178947972864,3.0699868202209473,0.5165500640869141,0.022441046312451363,0.6503141522407532,-0.6901248097419739,-0.42866426706314087,0.5830734968185425,0.19061309099197388,-0.32093900442123413,0.297221302986145,0.030880184076449976,0.7857772640443764,0.4172419421968865,0.45553229841127807,0.44301378656107715,-2.272311146588932,-2.3736695171534556
1772660178958010624,3.0800247192382812,0.6076465249061584,-0.13650652766227722,0.64487624168396,-0.6926308274269104,-0.420822411775589,0.5858083367347717,0.23952102661132812,-0.3209073841571808,0.5271373391151428,0.027249000944155447,0.7873221479021114,0.4159663369555303,0.4542614189524051,0.4343517130357291,-2.2728311669432473,-2.373512856788597
1772660178968047616,3.090061664581299,0.6772927045822144,-0.2427738457918167,0.4727867543697357,-0.6938341856002808,-0.41297200322151184,0.5899559855461121,0.26490968465805054,-0.33936256170272827,0.5801336169242859,0.023790384822898875,0.7890726689935719,0.41514133808504733,0.45216807855262037,0.42571493219705314,-2.2754551571565216,-2.372145987558015
1772660178978084864,3.1000988483428955,0.793479323387146,-0.10779684782028198,0.12263539433479309,-0.69402676820755,-0.4066239595413208,0.5941247344017029,0.18712973594665527,-0.24959558248519897,0.48721998929977417,0.020613878174732144,0.7901536886602132,0.4155953819517925,0.45001425064597883,0.41875566869125397,-2.278794857620427,-2.3681883915613686
1772660178988122624,3.1101367473602295,0.7018340826034546,-0.15705548226833344,0.19144880771636963,-0.693743109703064,-0.4011234939098358,0.5981806516647339,0.1937280297279358,0.0789036750793457,0.35518836975097656,0.017564740447257296,0.7908105887173417,0.4167840420424558,0.4478850908306995,0.41274299437988216,-2.282359817630327,-2.3627593336945907
1772660178998159616,3.120173692703247,0.4448273181915283,-0.06444644927978516,0.28588318824768066,-0.6941552758216858,-0.39579570293426514,0.6012440323829651,0.11020141839981079,0.42208659648895264,0.1270580291748047,0.014831964535637883,0.7915916832576168,0.41713862051088774,0.44627127997085303,0.40693413647809085,-2.2845930786811985,-2.3595686703379615
1772660179008196608,3.1302106380462646,0.1860780417919159,0.06611981987953186,0.3272189199924469,-0.6954030990600586,-0.39175745844841003,0.6024455428123474,-0.09362882375717163,0.5198245048522949,-0.10694688558578491,0.012962872831320138,0.7923161131427136,0.41648282883448956,0.4456559104606209,0.4025409521591267,-2.28469225449345,-2.359522167288247
1772660179018234624,3.1402487754821777,-0.07597008347511292,0.11950607597827911,0.3500261902809143,-0.6972114443778992,-0.38904494047164917,0.6021130084991455,-0.09742045402526855,0.37262654304504395,-0.21716433763504028,0.011807200287969787,0.792844187008136,0.4152765266170329,0.445874462441239,0.39959462624171715,-2.283134076120574,-2.361446111222001
1772660179028271616,3.1502857208251953,-0.3063412308692932,0.1278228610754013,0.4065171778202057,-0.6994162797927856,-0.3875757157802582,0.6005008816719055,0.0008538365364074707,0.18915051221847534,-0.20604616403579712,0.011498373260945596,0.7933578215728102,0.4133204749831536,0.44678535722502016,0.39800030172233813,-2.280247237432909,-2.365798351808097
1772660179038308608,3.160322666168213,-0.3897538483142853,0.19895856082439423,0.35518795251846313,-0.7019363045692444,-0.3871272802352905,0.5978444814682007,0.019044458866119385,0.013698965311050415,-0.14697778224945068,0.011706337100024302,0.7936846674775918,0.4110801533850636,0.448264171498902,0.3975138976113308,-2.2762809011848772,-2.3713117414187765
1772660179048346880,3.170360803604126,-0.2915756106376648,0.2215040773153305,0.2918180227279663,-0.7044933438301086,-0.3869161605834961,0.5949665904045105,0.03940844535827637,-0.13827615976333618,-0.019054114818572998,0.011881085493394944,0.7938147644969271,0.40907386792365846,0.4498617751844611,0.3972849191416945,-2.2721068911340936,-2.376338162539098
1772660179058383616,3.1803977489471436,-0.16821302473545074,0.2576248049736023,0.24423879384994507,-0.706981897354126,-0.3863111436367035,0.5924018025398254,0.0584072470664978,-0.21628886461257935,0.14441454410552979,0.011702687191434061,0.7938563770369778,0.4074223108305247,0.4512892793917442,0.3966289011903649,-2.2682416405721564,-2.3802939541946513
1772660179068420608,3.190434694290161,-0.029309459030628204,0.25147131085395813,0.15310035645961761,-0.7092283368110657,-0.3855081796646118,0.5902364253997803,0.014144539833068848,-0.25830596685409546,0.24536550045013428,0.011145604976375503,0.7936856415950063,0.4064250412990105,0.45250160781265336,0.39575851259200356,-2.264879197145307,-2.382504933099307
1772660179078458880,3.200472831726074,-0.09027747064828873,0.2246394157409668,0.13313092291355133,-0.7111564874649048,-0.3848041892051697,0.588372528553009,-0.011560797691345215,-0.20722156763076782,0.33307528495788574,0.010579052118169108,0.7934634251701216,0.40571178688375253,0.4535436385200407,0.3949956587924014,-2.2619907146998544,-2.384032920945894
1772660179088495616,3.210509777069092,-0.11288610845804214,0.08918438851833344,0.10860373079776764,-0.7125312685966492,-0.38458114862442017,0.5868527889251709,-0.03917759656906128,-0.09559762477874756,0.31385815143585205,0.010420655405213093,0.7933507124823681,0.4049950968081234,0.4543841091139878,0.3947540230591813,-2.259772807301376,-2.3857704220178393
1772660179098532608,3.2205467224121094,-0.15701176226139069,0.09303079545497894,0.11776420474052429,-0.71360182762146,-0.38442379236221313,0.5856537222862244,-0.08687406778335571,-0.0365508496761322,0.1956723928451538,0.01043430548233754,0.7933724890316711,0.40421151472328765,0.45504297440480035,0.3945835805354627,-2.2580329750249306,-2.387698960476054
1772660179108570624,3.2305846214294434,-0.08954776078462601,0.10913147032260895,0.07905036211013794,-0.71450275182724,-0.38454967737197876,0.584471583366394,-0.14391082525253296,0.0031410157680511475,0.0698556900024414,0.010584668802370424,0.793354242328873,0.40351560202731784,0.45568855226822724,0.3947199242965657,-2.2564239212903714,-2.3895305289166586
1772660179118607872,3.24062180519104,-0.08776158839464188,0.09959601610898972,0.12663546204566956,-0.7155364751815796,-0.3843633830547333,0.5833287835121155,-0.1554962396621704,0.061594247817993164,-0.0716557502746582,0.010507371927480844,0.7933115117746781,0.4028910989535183,0.4563170489558012,0.394518144159926,-2.2547567701360114,-2.3910443140131026
1772660179128644608,3.2506587505340576,0.033213306218385696,0.14667990803718567,0.22399131953716278,-0.71685791015625,-0.38327160477638245,0.5824236869812012,-0.13824450969696045,0.11047500371932983,-0.19140207767486572,0.00995054018626576,0.793369941404781,0.4022138616571253,0.4568249799625771,0.3933357911149323,-2.2530932568768196,-2.392285420941299
1772660179138682624,3.2606966495513916,0.07793434709310532,0.26301610469818115,0.17560221254825592,-0.7188423275947571,-0.3815118074417114,0.5811318755149841,-0.16123878955841064,0.037990719079971313,-0.3322916626930237,0.008801909833067112,0.7932520310528294,0.40164307706478664,0.4575549377005848,0.3914312614168039,-2.2506549023629603,-2.3929647032142216
1772660179148719872,3.2707338333129883,0.13174670934677124,0.3169778883457184,0.26208701729774475,-0.7212108373641968,-0.3794139325618744,0.5795686841011047,-0.13236576318740845,-0.014262795448303223,-0.3169955611228943,0.007286638313467972,0.7929782941672752,0.40121038239796475,0.45843485984034776,0.38916279434874906,-2.247731626100401,-2.393141377037991
1772660179158756608,3.280770778656006,0.15165096521377563,0.2693620026111603,0.26233962178230286,-0.723984956741333,-0.37670180201530457,0.5778767466545105,-0.07505673170089722,-0.08101606369018555,-0.182079017162323,0.005519495725263719,0.7928119112118464,0.4004842611425389,0.45938128908262815,0.3862332188684351,-2.2444319388821623,-2.393772951622184
1772660179168794624,3.29080867767334,0.127975195646286,0.29998862743377686,0.31187495589256287,-0.726655125617981,-0.37381261587142944,0.5763995051383972,-0.05572396516799927,-0.17727378010749817,-0.04826229810714722,0.0036708313625421905,0.7926833564493496,0.3998160066992099,0.46020293977071614,0.3831162524337622,-2.2413912198703527,-2.394163041227738
1772660179178831616,3.3008456230163574,0.012378422543406487,0.2582692801952362,0.280412495136261,-0.7294939160346985,-0.3712383806705475,0.5744741559028625,0.0004442930221557617,-0.15811949968338013,0.18396395444869995,0.002096531414372461,0.792579177661131,0.3988173990651392,0.46125751122780984,0.38034235014516105,-2.237866736515978,-2.395519116326969
1772660179188868864,3.310882806777954,-0.0834738090634346,0.11210169643163681,0.2586166560649872,-0.7315474152565002,-0.36941757798194885,0.5730351209640503,-0.0031480789184570312,-0.15179216861724854,0.323891818523407,0.0011706959391429277,0.7926569413224285,0.39775939430465673,0.46204018179369477,0.378382173327035,-2.235282964945264,-2.3973578241045157
1772660179198906624,3.320920705795288,-0.3165280818939209,0.019248448312282562,0.18954971432685852,-0.7327771782875061,-0.36879298090934753,0.571864902973175,-0.031856000423431396,-0.24651768803596497,0.3831980228424072,0.0011801793191719703,0.7929069863977528,0.3965235820610746,0.462672893403834,0.37771012286044436,-2.2334759760015435,-2.4001901182512664
1772660179208943616,3.3309576511383057,-0.5003855228424072,-0.06678550690412521,0.13550858199596405,-0.7331299185752869,-0.3700777292251587,0.5705813765525818,-0.059518396854400635,-0.2782987356185913,0.39024925231933594,0.0024480586601329526,0.7931879607197859,0.3951500417504066,0.46336092053343964,0.37909267423703286,-2.23215323415196,-2.404251390053037
1772660179218980864,3.3409948348999023,-0.5566447973251343,-0.11783803254365921,0.09719154983758926,-0.7331143021583557,-0.3722829520702362,0.5691655278205872,-0.03638660907745361,-0.15557965636253357,0.28055083751678467,0.004435777006152739,0.7935680641528072,0.3934876036226747,0.46410962108905646,0.38146756713267127,-2.230959686800716,-2.4094706202904574
1772660179229018624,3.3510327339172363,-0.39879366755485535,-0.1515379399061203,0.05927107110619545,-0.7325930595397949,-0.37441399693489075,0.5684375762939453,-0.07488667964935303,-0.033865392208099365,0.06797593832015991,0.00638101618341531,0.7940059084859966,0.39213952496011334,0.4644786495837627,0.38376472881361534,-2.230684281419765,-2.4138596702771484
1772660179239055616,3.361069679260254,-0.38284939527511597,-0.15937016904354095,0.03656855225563049,-0.7318941950798035,-0.3762803375720978,0.5681053400039673,-0.10404318571090698,-0.022111356258392334,-0.07770323753356934,0.008103751421379266,0.7944294926185255,0.39106834095010257,0.4646305665810072,0.38577827600433473,-2.2308633802812694,-2.417424096404017
1772660179249092608,3.3711066246032715,-0.28931888937950134,-0.12783940136432648,-0.031057626008987427,-0.7310081124305725,-0.3782520890235901,0.567936897277832,-0.08677136898040771,-0.054822832345962524,-0.1835375428199768,0.009689244781060959,0.7946938101526955,0.39042311051283324,0.46469086925239117,0.3879073519136716,-2.231306601224384,-2.4199612031122535
1772660179259130624,3.3811447620391846,-0.16996830701828003,-0.13752225041389465,0.05283048003911972,-0.7303749322891235,-0.37955528497695923,0.5678818225860596,-0.03055018186569214,0.074288010597229,-0.24947679042816162,0.010850369688025331,0.7949676011970969,0.3898299987154902,0.4646947544418187,0.38931557558179297,-2.2316794567924583,-2.422055368960052
1772660179269167616,3.391181707382202,-0.013805067166686058,-0.1392168253660202,0.030053528025746346,-0.7297230958938599,-0.3796887695789337,0.568630576133728,-0.07194316387176514,0.12627080082893372,-0.2800410985946655,0.011326731620628153,0.7953666214134726,0.3894961155963583,0.46428056997908224,0.3894598452140398,-2.232750902626348,-2.422942466251188
1772660179279204608,3.4012186527252197,0.025635594502091408,-0.13275346159934998,0.05948159471154213,-0.7291150689125061,-0.3793199956417084,0.5696558952331543,-0.11512327194213867,-0.0315382182598114,-0.21815437078475952,0.011430903662882406,0.7957473614479357,0.3893765319696232,0.4637256474246385,0.3890612524496918,-2.234028911543941,-2.423053638071899
1772660179289242624,3.411256790161133,0.10765642672777176,-0.10135213285684586,-0.04517264664173126,-0.7284552454948425,-0.3790358304977417,0.5706881880760193,-0.09028565883636475,-0.09204882383346558,-0.09400361776351929,0.011344517168212883,0.7959229840627623,0.38968026418239166,0.46317087906409965,0.3887541527332598,-2.23534697767984,-2.4221397754459137
1772660179299279616,3.4212937355041504,0.17583121359348297,-0.1502176821231842,0.01260756142437458,-0.7277278900146484,-0.37832409143447876,0.5720868706703186,0.024526536464691162,-0.016298741102218628,0.05161625146865845,0.011040973704121798,0.7961774605592807,0.39005755041033136,0.4624227319623035,0.38798516439333963,-2.2370209862831403,-2.4208394621700653
1772660179309316608,3.431330680847168,0.2631126046180725,-0.17093467712402344,-0.10185243934392929,-0.7267249822616577,-0.3773786723613739,0.5739823579788208,0.07639551162719727,-0.04417583346366882,0.14722418785095215,0.010471073353106168,0.796375052340815,0.3908681995210216,0.4614098504307788,0.3869640375350181,-2.239299420684786,-2.418336880984442
