time,seconds_elapsed,rotationRateX,rotationRateY,rotationRateZ,gravityX,gravityY,gravityZ,accelerationX,accelerationY,accelerationZ,quaternionW,quaternionX,quaternionY,quaternionZ,pitch,roll,yaw
1773062729535049216,0.030140161514282227,0.17403675615787506,0.07102721929550171,-0.09882393479347229,0.11516665667295456,0.43274372816085815,-0.8941305875778198,-0.018959984183311462,0.0018113255500793457,-0.07637417316436768,0.4884276239565504,-0.16276747426539542,-0.16260830003841928,0.8417266093692483,-0.44753401803358467,0.12809766924321228,2.119212988463561
1773062729545087232,0.04017829895019531,0.14887042343616486,0.037247952073812485,-0.11439783126115799,0.11523601412773132,0.43137550354003906,-0.894782543182373,-0.00285504013299942,0.025381088256835938,0.004172801971435547,0.48904717605798503,-0.16252052795131733,-0.1618511557311478,0.8415605050121348,-0.44601686545745445,0.12808159598336732,2.117834633963186
1773062729555124224,0.05021524429321289,0.15867911279201508,0.026714883744716644,-0.10945021361112595,0.11496816575527191,0.43016666173934937,-0.8953987956047058,0.009162083268165588,0.019418299198150635,0.02671593427658081,0.4896770172830504,-0.1621686840653916,-0.1612511356414492,0.8413773577488016,-0.44467738692156045,0.12770013626110302,2.1163500341929895
1773062729565162240,0.060253143310546875,0.1527225822210312,0.028937026858329773,-0.09850994497537613,0.11480540037155151,0.4288620948791504,-0.8960452079772949,0.008363530039787292,-0.004560947418212891,0.030673503875732422,0.49028323597434037,-0.1618316169037372,-0.1605861732588306,0.8412163909319487,-0.443232782772755,0.12743029297421823,2.114949412020834
1773062729575199232,0.07029008865356445,0.14910228550434113,0.02566373534500599,-0.026683960109949112,0.11473801732063293,0.42755576968193054,-0.8966779112815857,0.011177495121955872,-0.010639876127243042,0.024973809719085693,0.49070698187263584,-0.16150199580363042,-0.1599316841348775,0.8411574142163412,-0.44178720163277857,0.12726740684720175,2.1140030425443435
1773062729585236224,0.08032727241516113,0.11297091841697693,0.025876788422465324,0.06261822581291199,0.11507214605808258,0.42635032534599304,-0.8972088694572449,0.027155034244060516,0.008570879697799683,0.02823615074157715,0.4907469800156614,-0.16131034994280893,-0.15929386233967577,0.8412916822987673,-0.4404541753387672,0.12755930704161084,2.1140471519075055
1773062729595274240,0.09036517143249512,0.08705329895019531,0.028159383684396744,0.020843077450990677,0.11552220582962036,0.42534318566322327,-0.8976289629936218,0.03953760117292404,0.005778610706329346,0.0268862247467041,0.49063591647812593,-0.16120034779979495,-0.15874495951102294,0.841481330112971,-0.43934106501474335,0.12799350413386482,2.1144631022649967
1773062729605311232,0.1004021167755127,-0.0281265489757061,0.016929898411035538,-0.032476868480443954,0.11571197956800461,0.42504894733428955,-0.8977439403533936,0.022013843059539795,-0.02659618854522705,0.034828901290893555,0.4907271544440599,-0.1612179069149862,-0.1585459666341105,0.8414623599349117,-0.4390159475590233,0.12818522974757365,2.114302847141703
1773062729615349248,0.11044025421142578,-0.08774354308843613,-0.015826450660824776,-0.05200156942009926,0.11550116539001465,0.4257161021232605,-0.8974548578262329,-0.014549016952514648,-0.038081854581832886,0.048623740673065186,0.4908647294905204,-0.1613423041542936,-0.15887486115419047,0.8412960896721369,-0.43975312535266264,0.1279949993555098,2.1138936125902497
1773062729625386240,0.12047719955444336,0.01929556019604206,0.0017980833072215319,0.004471561871469021,0.1153302937746048,0.42612525820732117,-0.8972826600074768,-0.0052533820271492004,-0.018013685941696167,0.0716143250465393,0.4909424620187031,-0.16139861695445612,-0.1590885085982895,0.8411995987507886,-0.44020535122416443,0.12783196406495195,2.113649769934944
1773062729635424256,0.13051509857177734,0.1166149228811264,-4.3226173147559166e-05,0.04035951942205429,0.11547765880823135,0.4254167675971985,-0.8975998759269714,0.01524437963962555,0.014768779277801514,0.053010642528533936,0.49089274793246823,-0.16125000863523553,-0.15874037902874152,0.8413229423902814,-0.4394223510764887,0.12794879027062028,2.113839277314451
1773062729645461248,0.14055228233337402,0.15329281985759735,0.0009071227395907044,0.02118862234055996,0.11563987284898758,0.4241492748260498,-0.8981785774230957,0.045813366770744324,0.03471300005912781,0.02478080987930298,0.4908590336088336,-0.1609491069883448,-0.1581331234318838,0.841514496840447,-0.43802226902554475,0.12804489702959226,2.114024482962941
1773062729655498240,0.1505892276763916,0.23844419419765472,0.015494853258132935,-0.05202194303274155,0.11566988378763199,0.42241546511650085,-0.8989914655685425,0.020163841545581818,0.059350281953811646,0.05252540111541748,0.49107837132507326,-0.16050102579159284,-0.15730124454301173,0.8416281488102527,-0.43610857445927353,0.127963221172445,2.1136064690101524
1773062729665536256,0.16062712669372559,0.3107334077358246,0.01371879130601883,-0.11353670060634613,0.11544874310493469,0.42001956701278687,-0.900141716003418,-0.028275273740291595,0.049874842166900635,0.07462596893310547,0.4916698032026212,-0.15981725197881463,-0.15616522586574635,0.8416243950804401,-0.4334668746035961,0.1275597882211271,2.112287575318133
1773062729675573248,0.17066431045532227,0.3578644394874573,0.024279290810227394,-0.12032749503850937,0.11514247953891754,0.41711872816085815,-0.9015287756919861,-0.04383815824985504,0.023127853870391846,0.059228360652923584,0.49246564532684634,-0.1589864230283108,-0.15478670715990284,0.8415710832501838,-0.43027278205796715,0.12703139966211033,2.110493215033352
1773062729685611264,0.18070220947265625,0.40243032574653625,0.01748277060687542,-0.14051225781440735,0.11479201912879944,0.4137970805168152,-0.9031028747558594,-0.029342815279960632,0.015402138233184814,0.060817718505859375,0.49331758326564296,-0.15802372210331045,-0.15322228538186888,0.8415398437866686,-0.426621048788629,0.12643048261158527,2.108579618378361
1773062729695648256,0.19073915481567383,0.42185381054878235,0.014073924161493778,-0.1901373416185379,0.11423977464437485,0.4102214574813843,-0.9048025012016296,-0.004880033433437347,0.003932595252990723,0.054994821548461914,0.4943586442827784,-0.15693056456613036,-0.1515636255660777,0.8414337629361263,-0.4226968880445965,0.12559477127625673,2.1061891011544396
1773062729705685248,0.2007761001586914,0.422254741191864,0.017577845603227615,-0.1564083993434906,0.11364462971687317,0.4065847098827362,-0.9065173864364624,-0.011929541826248169,-0.0006093680858612061,0.0428241491317749,0.4954586994502617,-0.15581012530907545,-0.14988164940740847,0.8412962914419826,-0.4187127214137732,0.12471335748601303,2.103653768691117
1773062729715723264,0.2108142375946045,0.3862093985080719,0.062165554612874985,-0.09855708479881287,0.11348433047533035,0.40298882126808167,-0.9081416726112366,-0.00432296097278595,0.003444284200668335,0.04248005151748657,0.4963461251666402,-0.1548581327240599,-0.14814894657868397,0.8412559088137017,-0.41478024759962,0.12431879818652194,2.101706336227748
1773062729725760256,0.22085118293762207,0.3178426921367645,0.07971538603305817,-0.04006514698266983,0.11387442797422409,0.3998883366584778,-0.9094624519348145,0.030809402465820312,-0.002320587635040283,0.03386735916137695,0.4969584806373838,-0.1542470411482404,-0.1465490508969051,0.8412868635696253,-0.41139501083885655,0.1245624490834499,2.1004900951294303
1773062729735798272,0.23088932037353516,0.3293076157569885,0.07049072533845901,-0.02604253776371479,0.11443717777729034,0.3970099985599518,-0.9106520414352417,0.04646674543619156,-0.00424879789352417,0.052619874477386475,0.4973834991840914,-0.15374458973456595,-0.14503987858122755,0.8413891508353938,-0.40825680703783634,0.1250097994260262,2.0997365077942787
1773062729745835264,0.24092626571655273,0.34865280985832214,0.050950583070516586,-0.018854932859539986,0.11492613703012466,0.393889456987381,-0.9119446873664856,0.04523010551929474,0.01594635844230652,0.0640748143196106,0.49779850994227115,-0.15313786178374175,-0.1434449723139764,0.8415277664450391,-0.4048593156424221,0.1253622751103315,2.099000986067729
1773062729755872256,0.2509632110595703,0.3319651186466217,0.033403411507606506,-0.002137338975444436,0.11529432237148285,0.3907810151576996,-0.9132345914840698,0.025544293224811554,0.032299429178237915,0.058147311210632324,0.4981385408495708,-0.1524681878561036,-0.14190190928301374,0.8417098109623358,-0.40147992844370456,0.12558390414935816,2.098416506727764
1773062729765910272,0.2610011100769043,0.2855612337589264,-0.0028709706384688616,0.0038949872832745314,0.11547806113958359,0.3879234492778778,-0.9144288897514343,0.020874470472335815,0.024826794862747192,0.09893816709518433,0.49838101219240194,-0.15177219676597606,-0.1405373613679061,0.8419209000705483,-0.39837753983765883,0.1256193899948789,2.098013757184255
1773062729775947264,0.271038293838501,0.16914676129817963,-0.04752126336097717,0.004409243818372488,0.11526677012443542,0.38579851388931274,-0.9153540730476379,0.023939162492752075,0.011662423610687256,0.12848883867263794,0.49852111567429497,-0.15109284945581256,-0.1396206083286612,0.8421126826833062,-0.3960731944821184,0.1252665256146928,2.0977452147351543
1773062729785985280,0.28107619285583496,0.006738533265888691,-0.09983067959547043,0.017029032111167908,0.1145867109298706,0.3850070834159851,-0.915772557258606,0.0202094167470932,0.002962857484817505,0.13815420866012573,0.49849640129516404,-0.1505583160246643,-0.13944857227614657,0.8422515068114098,-0.3952155130675798,0.12447879025906447,2.0977188787028873
1773062729796022272,0.29111313819885254,-0.06266211718320847,-0.10442463308572769,0.08096300810575485,0.11380621045827866,0.38529258966445923,-0.9157498478889465,0.006402537226676941,-0.01784569025039673,0.16130954027175903,0.49821116623903033,-0.15024350142442114,-0.1398283637244575,0.8424135139946601,-0.39552486742505893,0.12364258663866971,2.0982409786595975
1773062729806059264,0.3011503219604492,-0.014523522928357124,-0.1063586175441742,0.25138986110687256,0.11343342065811157,0.38548973202705383,-0.9157131314277649,0.0005192160606384277,-0.04024437069892883,0.1544368863105774,0.497427276218689,-0.15000275178632125,-0.14015209224478878,0.8428657669624463,-0.39573850559226514,0.1232465660934478,2.1000243623456485
1773062729816097280,0.3111882209777832,-0.01154797337949276,-0.08011475205421448,0.4564162492752075,0.11398454010486603,0.38515910506248474,-0.9157838225364685,0.0007462948560714722,-0.03678569197654724,0.1446351408958435,0.4958465661723381,-0.14989267623211203,-0.140143776261257,0.8438176036477931,-0.3953802262543641,0.12382980869535049,2.103889077424935
1773062729826134272,0.3212251663208008,-0.022998545318841934,-0.14745265245437622,0.7036043405532837,0.11523332446813583,0.3846578001976013,-0.9158382415771484,0.02099713683128357,-0.01888936758041382,0.18085289001464844,0.493332881623748,-0.14989350906487348,-0.14004577167331547,0.8453057597903548,-0.3948370575584712,0.12516504720387872,2.1100913794983542
1773062729836172288,0.33126330375671387,0.12706871330738068,-0.3276780843734741,1.111840009689331,0.11654773354530334,0.3833060562610626,-0.91623854637146,0.05778391659259796,0.018061131238937378,0.21431899070739746,0.48937583473067353,-0.14944935842443557,-0.1398055872661106,0.8477208913284624,-0.39337308490002076,0.12652290875283262,2.119738041203732
1773062729846209280,0.34130024909973145,1.0174466371536255,-0.7873074412345886,1.7705377340316772,0.11738329380750656,0.3774435818195343,-0.9185627698898315,0.08070630580186844,0.0637185275554657,0.21670424938201904,0.48337346291599603,-0.14721332074299973,-0.13801039075811966,0.8518400809018917,-0.3870341334084595,0.12710129350776259,2.1342551502977742
1773062729856246272,0.351337194442749,1.620975136756897,-0.694329559803009,2.127040386199951,0.11672492325305939,0.3616503179073334,-0.9249780178070068,0.022877737879753113,0.033262401819229126,0.15907835960388184,0.4750023067501839,-0.1412910485095332,-0.13246821066131081,0.8584065932241435,-0.37003741933269196,0.12552858654383342,2.1542878649767796
1773062729866284032,0.361375093460083,1.4545785188674927,-0.6102088093757629,1.5407063961029053,0.11771246790885925,0.34478816390037537,-0.9312705993652344,-0.27054449915885925,-0.02536064386367798,0.18331527709960938,0.46714188439219795,-0.13609229338320927,-0.12587133151962712,0.8645309901020963,-0.35201309138700776,0.12573307565304181,2.1731874186337805
1773062729876321280,0.3714122772216797,1.9707649946212769,-0.736101508140564,0.290471613407135,0.11428238451480865,0.3282194435596466,-0.9376627802848816,-0.6403748989105225,-0.020358145236968994,0.5187633037567139,0.4639114881793307,-0.12978244157863547,-0.11968756711753492,0.8681114911180086,-0.3344179666719134,0.12128186608308908,2.1805258908717198
1773062729886359296,0.38145017623901367,2.4265525341033936,-0.6392102837562561,0.16401635110378265,0.10813165456056595,0.30746084451675415,-0.9453969597816467,-1.0069506168365479,0.24902716279029846,0.34821373224258423,0.4641801781430393,-0.12172971838167364,-0.1117291810147271,0.8701925751782389,-0.3125234746570773,0.11388210152450574,2.1794999088239364
1773062729896396288,0.39148712158203125,3.167733907699585,-0.0762113630771637,0.5738643407821655,0.10559900850057602,0.28046944737434387,-0.95403653383255,-0.850533127784729,0.34378284215927124,0.3975943326950073,0.4640914272844484,-0.11377558622708217,-0.10018403374595958,0.8727184596001035,-0.28428316454408986,0.11023780973774462,2.179894744420156
1773062729906434304,0.40152525901794434,3.872500419616699,0.09900905191898346,1.0004812479019165,0.10823177546262741,0.24561990797519684,-0.9633051156997681,-0.565476655960083,0.18811117112636566,0.41844427585601807,0.46255343834219953,-0.1061695199759372,-0.08411582772279785,0.8761832265160039,-0.2481591387105818,0.11188539056786449,2.1840970302080693
1773062729916471296,0.4115622043609619,4.308412075042725,-0.12731888890266418,1.4057643413543701,0.11097878962755203,0.20431926846504211,-0.9725931286811829,-0.44777077436447144,0.06504413485527039,0.42748814821243286,0.45932020228654274,-0.09711450208511649,-0.06536223874728925,0.8805233842707825,-0.20576825148868635,0.11361468553651366,2.191709833216011
1773062729926508288,0.4215991497039795,4.496048927307129,-0.620811939239502,1.7136348485946655,0.11021924018859863,0.15933632850646973,-0.9810523390769958,-0.32452893257141113,-0.0005839020013809204,0.5703162550926208,0.4542656157004346,-0.0858048062724612,-0.04594971622981662,0.8855330943270087,-0.16001836305441378,0.1118788325888351,2.2026085242648623
1773062729936546304,0.4316372871398926,4.676182746887207,-0.9181485772132874,1.890687346458435,0.10490100085735321,0.11208538711071014,-0.9881460666656494,-0.2771269679069519,-0.038415953516960144,0.7166006565093994,0.447879166690599,-0.07225009009687687,-0.026587439833727737,0.8907734197598612,-0.11232141714786328,0.10576328156910013,2.215777042707522
1773062729946583296,0.44167423248291016,4.896246433258057,-1.1827608346939087,1.9922782182693481,0.09620595723390579,0.06252952665090561,-0.9933954477310181,-0.3241875171661377,-0.052657097578048706,0.7626672983169556,0.4406520480772724,-0.05705772055860507,-0.006834016356210833,0.8958367198468026,-0.06257034810354287,0.0965444984977859,2.2303411166470504
1773062729956621056,0.45171213150024414,5.123543739318848,-1.4432095289230347,2.0968902111053467,0.08376793563365936,0.01063518039882183,-0.9964285492897034,-0.39393335580825806,-0.02322368323802948,0.8022299408912659,0.43269137321395434,-0.04009112480522647,0.013357924032014346,0.9005511422630378,-0.010635380696606299,0.08387096614955518,2.2462286308578956
1773062729966658304,0.4617493152618408,5.330920219421387,-1.5803172588348389,2.2610788345336914,0.06823340803384781,-0.043303459882736206,-0.9967291355133057,-0.4443625807762146,0.045210812240839005,0.8837073445320129,0.4238579128936594,-0.02172793858629522,0.03410745058791038,0.9048254404056056,0.04331700573082355,0.06835068211127415,2.263944057253861
1773062729976695296,0.4717862606048584,5.608092784881592,-1.7320133447647095,2.5089776515960693,0.05003493279218674,-0.09930074959993362,-0.9937987327575684,-0.47474807500839233,0.12218893319368362,0.9286742210388184,0.41371764280235324,-0.00219897232284699,0.05564002179722967,0.908700719021484,0.09946467155529203,0.05030467432167156,2.2846080738665364
1773062729986733312,0.4818241596221924,5.962650299072266,-1.8977476358413696,2.7271125316619873,0.02857322059571743,-0.15785308182239532,-0.9870491027832031,-0.4818355441093445,0.19821259379386902,0.9299049973487854,0.4021115074941633,0.0188291325005681,0.07823619615028003,0.9120475769581485,0.15851610282318132,0.02894004174651367,2.308791424004004
1773062729996770048,0.49186110496520996,6.3058085441589355,-2.0779168605804443,2.83642315864563,0.00371944229118526,-0.2188323736190796,-0.9757553935050964,-0.4866296052932739,0.2581847906112671,0.9209915995597839,0.38929173091459357,0.041395887528731426,0.10202298138523962,0.9145106953205244,0.2206176748343625,0.00381184086353684,2.3362724239146586
1773062730006808320,0.501899242401123,6.442700386047363,-2.241971254348755,2.8271427154541016,-0.024454986676573753,-0.2805989980697632,-0.9595134854316711,-0.4989062249660492,0.2844442129135132,0.9314830899238586,0.37579426576705627,0.0652413541675653,0.12643898037970358,0.9157157762252655,0.2844181157227164,-0.02548134430934811,2.3663908390106263
1773062730016845312,0.5119361877441406,6.377413272857666,-2.2356154918670654,2.855665445327759,-0.05477197840809822,-0.3406998813152313,-0.9385753273963928,-0.5182108283042908,0.24582073092460632,1.006904125213623,0.3618357106112035,0.08946145743176122,0.15069501837348334,0.9156214301325347,0.347661210405787,-0.05829039796466773,2.3991420033456907
1773062730026882048,0.5219731330871582,6.120077610015869,-2.0733206272125244,3.0427024364471436,-0.0857296884059906,-0.39681291580200195,-0.9138872623443604,-0.5351199507713318,0.14080095291137695,1.0885393619537354,0.3469416215391389,0.11290274364086537,0.17409577377378005,0.9146448482008537,0.4080420921533058,-0.09353400333205152,2.435855807163746
1773062730036920320,0.5320112705230713,5.783962726593018,-1.9840714931488037,3.500347137451172,-0.11776906996965408,-0.44728344678878784,-0.8866047263145447,-0.5517560839653015,-0.002026855945587158,1.1057515144348145,0.33016075974730535,0.13529357168035225,0.19594202535334837,0.9133981922082999,0.4637256993864519,-0.13205846944112112,2.47911333931413
1773062730046957312,0.5420482158660889,5.429842472076416,-2.316723108291626,4.144754886627197,-0.15443409979343414,-0.4912274181842804,-0.8572314381599426,-0.5506592988967896,-0.13950982689857483,1.0256884098052979,0.3107433163826658,0.1580394492716652,0.21542475802106273,0.9121700573800051,0.5134983658463826,-0.17824258899156228,2.5318379535467157
1773062730056995072,0.5520861148834229,4.978237152099609,-2.4726428985595703,4.761175155639648,-0.19766920804977417,-0.527285635471344,-0.8263756632804871,-0.5123832821846008,-0.217160165309906,0.9531914591789246,0.28859879723424986,0.1819166949288166,0.23177249371116956,0.9109876633374508,0.5554028544983015,-0.2347885824340196,2.595216230571874
1773062730067032320,0.5621232986450195,4.732490062713623,-2.871938943862915,5.146523952484131,-0.24624726176261902,-0.555596113204956,-0.7941506505012512,-0.5126485824584961,-0.23342061042785645,0.8616555333137512,0.26435837722689487,0.20669296625359437,0.245362356904275,0.9094998733850022,0.5890797320566658,-0.30067523880694286,2.6676968510646244
1773062730077070336,0.5721611976623535,4.569685935974121,-3.27889347076416,5.1521687507629395,-0.2999141812324524,-0.5777233839035034,-0.7591357827186584,-0.5816318392753601,-0.23206055164337158,0.6460987329483032,0.23952933710350297,0.23325576235202483,0.25695105268774704,0.9067488945374117,0.6159367262984179,-0.376251892835719,2.74603200701777
1773062730087107072,0.5821981430053711,4.296873092651367,-3.128577709197998,4.824195861816406,-0.35328981280326843,-0.5943118333816528,-0.7224816679954529,-0.6790130138397217,-0.27678191661834717,0.5524682402610779,0.21559361803968558,0.25952299076567187,0.2672208482843747,0.9026407288718308,0.636409711768082,-0.45480480052620625,2.824837050256608
1773062730097144064,0.5922350883483887,4.059350967407227,-2.98368239402771,4.507648468017578,-0.40301334857940674,-0.6061431765556335,-0.6856899857521057,-0.8749102354049683,-0.44349366426467896,0.4861660599708557,0.19303546541829433,0.2839956682699594,0.2765889894564724,0.8975424227381309,0.6512023952417811,-0.531362436795996,2.9011308731896173
1773062730107182336,0.6022732257843018,3.9693949222564697,-2.6927683353424072,4.416072368621826,-0.44922181963920593,-0.6139257550239563,-0.6490724086761475,-1.0683257579803467,-0.7106897234916687,0.26722121238708496,0.17114247783808678,0.306638713719246,0.2853708033180345,0.8917659930069556,0.6610243695366206,-0.6054030081775499,2.9758583497177464
1773062730117219328,0.6123101711273193,4.207003116607666,-2.8681187629699707,4.5943217277526855,-0.4944242238998413,-0.6183294653892517,-0.6109119653701782,-1.1801363229751587,-0.9807763695716858,-0.07283437252044678,0.14864102629813247,0.32870371548657173,0.294105218108642,0.8850773491270254,0.666615319094733,-0.6803990215890677,3.0526997651111687
1773062730127257344,0.6223483085632324,4.882621765136719,-3.085545778274536,4.811326503753662,-0.5414049029350281,-0.620548665523529,-0.5672743320465088,-1.1507337093353271,-1.0776935815811157,-0.3435991406440735,0.12457059858252233,0.3520777560861007,0.3039803988926069,0.8764242486982472,0.669442180050716,-0.7620688528441458,3.1361041187193104
1773062730137294336,0.63238525390625,5.918478488922119,-3.162592887878418,4.758546829223633,-0.5884697437286377,-0.6225305795669556,-0.515906035900116,-0.9987037181854248,-0.9102605581283569,-0.5358975529670715,0.09858494590730246,0.3762776389087923,0.3169576011708911,0.8650052093794544,0.6719721262035138,-0.8510094809265067,-3.054624481525801
1773062730147331328,0.6424221992492676,7.187831401824951,-3.049492120742798,4.265538692474365,-0.6322417855262756,-0.6266068816184998,-0.45566901564598083,-0.9478363394737244,-0.6666060090065002,-0.675968587398529,0.0714034910509434,0.39997771842505786,0.33493778818940395,0.8501389147251852,0.6771917211193372,-0.9462995634344411,-2.9524483930461014
1773062730157369088,0.6524600982666016,8.375775337219238,-2.3746719360351562,3.440885543823242,-0.6683443784713745,-0.634446918964386,-0.3883203864097595,-1.083700180053711,-0.5901013612747192,-0.6589970588684082,0.043769879785673746,0.4205372586358226,0.35914930641460824,0.8320121626886005,0.6872927713246072,-1.0444508285086551,-2.840495453229889
1773062730167406336,0.6624972820281982,9.086071968078613,-1.4230948686599731,2.7381198406219482,-0.6948371529579163,-0.6445339322090149,-0.31902551651000977,-1.322771430015564,-0.7858859300613403,-0.47241732478141785,0.01583961025582778,0.4354592076379266,0.38841025221028924,0.8119494087365648,0.7004135825596391,-1.1403700287010343,-2.7204636226882686
1773062730177444096,0.6725351810455322,9.377519607543945,-0.49444669485092163,2.4888224601745605,-0.7144361734390259,-0.652711033821106,-0.25208982825279236,-1.4515031576156616,-1.1991108655929565,-0.17544615268707275,-0.01311567966000933,0.44457266180879706,0.41989312083853947,0.791121308980456,0.7111573779209059,-1.2315835158466977,-2.5945214162902515
1773062730187481088,0.6825721263885498,9.339539527893066,-0.0485544353723526,2.5103697776794434,-0.7313783168792725,-0.6553234457969666,-0.1887781322002411,-1.3262388706207275,-1.6320759057998657,0.06005501747131348,-0.0434541701914125,0.4496171955766356,0.45106020700456456,0.7697408190782216,0.7146107170603989,-1.3181967433245498,-2.4657607920853337
1773062730197519360,0.6926102638244629,9.090453147888184,-0.09167660027742386,2.4432532787323,-0.747802734375,-0.6514968276023865,-0.12783992290496826,-1.0221099853515625,-1.8498306274414062,0.13188350200653076,-0.07367770155708683,0.45294486560327235,0.4805423858355863,0.7473229677243008,0.7095558107572651,-1.4014790314188659,-2.339286952694757
1773062730207556352,0.7026472091674805,8.86679458618164,-0.2538234293460846,2.206693649291992,-0.7631223797798157,-0.6426267027854919,-0.06837508082389832,-0.6739045977592468,-1.8413820266723633,0.13446086645126343,-0.10238111754497242,0.45532680530297726,0.5084190805109801,0.7236750790996003,0.6979216695748328,-1.4814358429511996,-2.2181346570459457
1773062730217593088,0.712684154510498,8.645072937011719,-0.38379156589508057,1.9389839172363281,-0.7764908671379089,-0.6300534009933472,-0.009718715213239193,-0.3921796679496765,-1.7091341018676758,0.09861642122268677,-0.12892574801482753,0.45689469257559057,0.5351522047301317,0.6987398777836694,0.6816219651977791,-1.558280780069467,-2.1028984789579677
1773062730227631360,0.7227222919464111,8.14528751373291,-0.4350737929344177,1.826215147972107,-0.7881239652633667,-0.6137892007827759,0.046080272644758224,-0.19625097513198853,-1.5253251791000366,0.14659249782562256,-0.1536183840640408,0.4574506235843963,0.560159854876595,0.6733210746543997,0.6608513882197736,-1.6291981401047546,-1.9954206985295495
1773062730237668352,0.7327592372894287,7.354109764099121,-0.42118194699287415,1.6756919622421265,-0.7985865473747253,-0.5940554141998291,0.0967361181974411,-0.07265979051589966,-1.3294827938079834,0.3066452741622925,-0.17595489108092638,0.4577067679383665,0.5821276268700487,0.6485922457300692,0.6360909331803084,-1.6913431753591368,-1.9003584060488232
1773062730247706112,0.7427971363067627,7.323128700256348,0.32672223448753357,1.2091549634933472,-0.8070712089538574,-0.5736525654792786,0.139852374792099,0.018649637699127197,-1.1998764276504517,0.6379338502883911,-0.19711201558716754,0.45542200571262065,0.6020938309201638,0.625476338471586,0.6109582083754731,-1.74237630464607,-1.8140124389764611
1773062730257743360,0.7528343200683594,7.071679592132568,0.39559292793273926,1.0857363939285278,-0.8143025040626526,-0.5524884462356567,0.17795507609844208,0.012987196445465088,-1.2317980527877808,0.471718430519104,-0.21854476750093976,0.4501526287088378,0.6215626661583566,0.6027111086221496,0.5853467562883276,-1.7859505628806345,-1.7295825682117911
1773062730267780352,0.762871265411377,5.481494903564453,0.2726120054721832,1.1091761589050293,-0.8210562467575073,-0.5309280157089233,0.20971857011318207,0.15415573120117188,-1.242051601409912,0.18134889006614685,-0.23714313940127155,0.4455066792160205,0.6374818329697185,0.5821544017367443,0.5596952887654835,-1.8208746485767233,-1.6591320937891405
1773062730277818112,0.7729091644287109,3.7863616943359375,0.2187035083770752,0.7104941606521606,-0.82646244764328,-0.5129493474960327,0.23203982412815094,0.3716133236885071,-1.3381094932556152,0.2864232659339905,-0.25089959411257357,0.4421719291117748,0.6484627206256712,0.5665945406062971,0.5386170818578306,-1.8445121363462853,-1.6093544056852762
1773062730287855104,0.7829461097717285,1.9477380514144897,0.3970186412334442,0.24862244725227356,-0.8295767307281494,-0.5020753145217896,0.2443823367357254,0.4478324055671692,-1.6316373348236084,0.25712835788726807,-0.25960476120544235,0.43918523287805317,0.6552156142382144,0.5571482370244979,0.5259967806251441,-1.8572794935597539,-1.5784229867388844
1773062730297893376,0.7929842472076416,0.1411191076040268,0.4470314681529999,-0.011711935512721539,-0.8311720490455627,-0.4988175332546234,0.24562989175319672,0.5765944719314575,-1.6745375394821167,0.3383544683456421,-0.2635499681080822,0.43693877645926055,0.6571905759300405,0.5547309620019266,0.522233902194414,-1.8581401161814053,-1.56766247039131
1773062730307930112,0.8030211925506592,-1.2911781072616577,0.16375915706157684,0.14838731288909912,-0.8322091698646545,-0.4998415410518646,0.23997217416763306,0.700312077999115,-1.497854471206665,0.22482576966285706,-0.2634222319354231,0.43702367854920693,0.6549781624886445,0.5573354046917018,0.5234158031994325,-1.851536256271154,-1.574519732861523
1773062730317967104,0.8130581378936768,-1.6600533723831177,-0.10937438160181046,0.25064951181411743,-0.8333001732826233,-0.5017403364181519,0.23209404945373535,0.8189415335655212,-1.1294548511505127,0.052421361207962036,-0.26055486888519025,0.4398285532768218,0.6500752788478507,0.5621958839109698,0.5256095271131516,-1.8424357608514996,-1.592793860729175
1773062730328005376,0.8230962753295898,-0.8597013354301453,0.1876722127199173,0.09284976124763489,-0.8342292904853821,-0.503208339214325,0.22548361122608185,0.8513801693916321,-0.69707852602005,-0.02454066276550293,-0.2582817598297749,0.4420129439352819,0.646038980176424,0.5661702390765402,0.5273074098955751,-1.8347781808807555,-1.6076591631305703
1773062730338042368,0.8331332206726074,-0.41566020250320435,0.3160110116004944,0.0856565609574318,-0.8352227210998535,-0.5039512515068054,0.2200818955898285,0.7728753685951233,-0.3561561107635498,-0.5284467935562134,-0.25809957553999024,0.4421819982568327,0.6438291907938185,0.5686331256036219,0.5281673133452219,-1.8284407462789003,-1.6145009892750877
1773062730348080128,0.8431711196899414,-0.4331546723842621,0.21870948374271393,0.136757031083107,-0.8363678455352783,-0.5038154125213623,0.2160063236951828,0.7640412449836731,-0.032469987869262695,-0.7437011003494263,-0.2583323457771326,0.44240512692798006,0.6420910118733346,0.5703167612431961,0.5280100797591547,-1.8235405533878735,-1.619398997402955
1773062730358117376,0.8532083034515381,-0.9042084813117981,0.502844512462616,-0.020009413361549377,-0.8374411463737488,-0.5046904683113098,0.2097133845090866,0.7992485165596008,0.2513793706893921,-0.516811728477478,-0.2582280373867743,0.44240334506220264,0.6396373740523548,0.5731156285866298,0.5290233692567877,-1.816171781282381,-1.6268484583055336
1773062730368155136,0.8632462024688721,-1.34984290599823,0.38673844933509827,0.06036931648850441,-0.838263750076294,-0.5073146820068359,0.1998642235994339,0.7297585606575012,0.4351101517677307,-0.37767481803894043,-0.25707156917210666,0.4424578669217146,0.6357382704158949,0.5779118405940448,0.5320658273921948,-1.8048528989121815,-1.6398984422500602
1773062730378191360,0.8732821941375732,-0.8872343301773071,0.12233554571866989,0.3768268823623657,-0.8397976160049438,-0.5077836513519287,0.19208194315433502,0.6908720135688782,0.43664729595184326,-0.6873669624328613,-0.2557952773393117,0.44402029230502876,0.6315749762422203,0.581831350317612,0.5326101295988813,-1.7956525596873105,-1.6537291585199643
1773062730388228352,0.8833193778991699,-0.2737455666065216,0.35797297954559326,0.5222007036209106,-0.8426023721694946,-0.5049346685409546,0.18724872171878815,0.7030760645866394,0.39624637365341187,-0.7782368659973145,-0.25661581145249907,0.4455503601886702,0.6285771503069963,0.5835442744541821,0.5293062645852242,-1.7894695003719996,-1.6613765020327265
1773062730398266368,0.8933572769165039,0.6100351214408875,0.354556679725647,0.4068560302257538,-0.8456936478614807,-0.5006890296936035,0.18469589948654175,0.6614438891410828,0.5094018578529358,-0.519824743270874,-0.25947476951511944,0.4457714628238733,0.6274039791481076,0.5833736661924211,0.5243945747136438,-1.785815925105206,-1.6611127012445381
1773062730408303360,0.9033942222595215,1.8293956518173218,0.23326939344406128,0.30402952432632446,-0.8479488492012024,-0.49560546875,0.18803691864013672,0.6177242994308472,0.6119691133499146,-0.5415983200073242,-0.26419166409355566,0.44425393427181936,0.6298070344347259,0.579813980851543,0.5185318053137707,-1.789020023272986,-1.6481191068261494
1773062730418341376,0.9134323596954346,2.5676026344299316,-0.36634665727615356,0.664065420627594,-0.8500822186470032,-0.48729702830314636,0.19975480437278748,0.6199032664299011,0.6809309720993042,-0.7488881349563599,-0.27033687231987613,0.44287185863482315,0.6354068946725244,0.5718746690054911,0.508991721022933,-1.8015921094666507,-1.6239022635297344
1773062730428378368,0.9234693050384521,2.6563069820404053,-0.6694561839103699,1.2199656963348389,-0.8534440398216248,-0.47376853227615356,0.2172020822763443,0.6848344206809998,0.8187544941902161,-0.6364067792892456,-0.2770974521962882,0.44382099068396125,0.6415792780250339,0.5609064245980568,0.49356515767869724,-1.8200064075597966,-1.597127867705548
1773062730438416128,0.9335072040557861,2.3755271434783936,-0.452389121055603,1.7366341352462769,-0.8590916395187378,-0.4551774859428406,0.23404109477996826,0.6740177869796753,0.8720017671585083,-0.38821589946746826,-0.2850427957208147,0.4466997236802339,0.6461268503500601,0.5492996880370464,0.472571528259973,-1.8367703221520566,-1.5736507538977924
1773062730448453376,0.9435443878173828,1.9630322456359863,0.2736695408821106,1.8998286724090576,-0.8669857382774353,-0.4341307282447815,0.24467574059963226,0.5719570517539978,0.820345938205719,-0.12034714221954346,-0.294539580898151,0.4498044678607829,0.6480847275756381,0.5393593850485358,0.4490730982092162,-1.845857141065915,-1.5557712947239837
1773062730458490368,0.9535813331604004,1.9301872253417969,1.0545156002044678,2.1613075733184814,-0.8772304654121399,-0.4117487967014313,0.24683865904808044,0.3699064254760742,0.5954647064208984,-0.1253024786710739,-0.3064956309537842,0.4516583734597937,0.6476295588394192,0.5316399029857672,0.42437224933197465,-1.8450879931004318,-1.5414631019443767
1773062730468528384,0.9636192321777344,2.1696720123291016,1.5184404850006104,2.5559513568878174,-0.8899003267288208,-0.3857710659503937,0.24343043565750122,0.24671167135238647,0.3524915277957916,-0.4463723301887512,-0.3216582341518959,0.4526075969185844,0.6456481879110183,0.5242336266559134,0.39604342994391345,-1.83781209938839,-1.526720524563287
1773062730478565120,0.973656177520752,2.4600744247436523,1.5951118469238281,2.7235403060913086,-0.9036411046981812,-0.35621893405914307,0.23778343200683594,0.23513829708099365,0.25224554538726807,-0.6750240325927734,-0.33894452315289664,0.4533004374016164,0.6429700049245539,0.5159698977050388,0.3642182499007186,-1.8281025946053298,-1.510199101043251
1773062730488603392,0.983694314956665,3.0665061473846436,1.3325670957565308,2.542454719543457,-0.9161943197250366,-0.3255919814109802,0.23361963033676147,0.18136143684387207,0.24934375286102295,-0.6902083158493042,-0.3567543491883284,0.45320811425603075,0.6414142331954836,0.5058820665727654,0.33163776054181177,-1.8204651287915117,-1.48887434982079
1773062730498640384,0.9937312602996826,3.6838271617889404,0.6031924486160278,2.493886709213257,-0.9263499975204468,-0.2945669889450073,0.23474691808223724,0.0513957142829895,0.23002225160598755,-0.7631587982177734,-0.3739930718859902,0.4524632909046454,0.6423787274310139,0.4927025379941969,0.2990023690980744,-1.8189823876756328,-1.4606543853632254
1773062730508677120,1.0037682056427002,3.691772222518921,-0.7853406071662903,2.749115228652954,-0.9334374666213989,-0.2611210346221924,0.24598820507526398,0.0275995135307312,0.20597580075263977,-0.5097362995147705,-0.38860282273637625,0.4539353018160502,0.6457064694435514,0.4753879268476832,0.26418335244545604,-1.8284674520216184,-1.4295446600104718
1773062730518715392,1.0138063430786133,2.229050874710083,-1.2602384090423584,2.7075719833374023,-0.9373288154602051,-0.227308452129364,0.26409390568733215,0.14391756057739258,0.2525617480278015,0.30766820907592773,-0.3984649229688595,0.4594646936937175,0.6487982298929292,0.45736066460548497,0.2293128877649524,-1.8454285467730005,-1.4063437055332517
1773062730528752384,1.0238432884216309,-0.12305372208356857,-0.5121623277664185,2.16848087310791,-0.9400758147239685,-0.20135773718357086,0.27515968680381775,0.11304932832717896,0.2368801385164261,1.2881489992141724,-0.40337558052376093,0.46753085631183616,0.6472980348123399,0.44688749352347346,0.20274384620847977,-1.85554200198964,-1.4031826327176435
1773062730538790144,1.0338811874389648,-0.6412652134895325,1.205453634262085,1.5520648956298828,-0.9444099068641663,-0.18548278510570526,0.2714524567127228,-0.1624475121498108,-0.12817691266536713,1.884232997894287,-0.4070123760998684,0.47408561603244526,0.6410686883726153,0.4456622400232584,0.18656315432909606,-1.8506822090884179,-1.4141947186371597
1773062730548827392,1.0439183712005615,1.0363692045211792,2.1085803508758545,1.6816133260726929,-0.9520465135574341,-0.17035378515720367,0.25413990020751953,-0.5505474805831909,-0.84327232837677,1.2252607345581055,-0.4168301702378959,0.4744705661907475,0.6339934013964744,0.44629887113433603,0.17118869093536015,-1.8316544828027195,-1.4165497204243727
1773062730558865408,1.0539562702178955,1.2798460721969604,1.3317720890045166,2.540447235107422,-0.9595860838890076,-0.14688806235790253,0.24003879725933075,-0.6885768175125122,-1.327934980392456,-0.02733132243156433,-0.42994558777576647,0.47466406972352887,0.6282622232060335,0.4417323600655289,0.1474214716871292,-1.8159145306025133,-1.4092160499762214
1773062730568902144,1.063993215560913,0.31539350748062134,1.1284438371658325,2.8766186237335205,-0.9661875367164612,-0.1183742880821228,0.22906112670898438,-0.41010934114456177,-1.048388957977295,0.03966139256954193,-0.44185440448986535,0.4787754218247663,0.620729137078737,0.43615831167836566,0.11865249769705277,-1.8035759523630994,-1.407855663005651
1773062730578939392,1.0740303993225098,-0.18477320671081543,0.7685685753822327,2.582555055618286,-0.9711740016937256,-0.09139823168516159,0.22015345096588135,-0.4346334934234619,-0.5616474151611328,0.19566380977630615,-0.45078093674192327,0.48529328338446664,0.6120189165812712,0.43211094986175475,0.0915259610044095,-1.7937168083495953,-1.4139592698429584
1773062730588977408,1.0840682983398438,0.2074754536151886,0.9814451932907104,2.167644500732422,-0.9749811291694641,-0.06851491332054138,0.21146608889102936,-0.5939276814460754,-0.223568856716156,0.23720338940620422,-0.4584870903617559,0.4906211049278117,0.604172143165853,0.42901829274099634,0.06856863544157872,-1.7843806690495865,-1.4193957130722794
1773062730599014400,1.0941052436828613,0.9578876495361328,0.1357935667037964,2.110645294189453,-0.9774709939956665,-0.046476490795612335,0.20588892698287964,-0.7497628331184387,-0.0008104704320430756,0.1262338012456894,-0.46627709876883394,0.4944161622665837,0.5987462928975386,0.42384091983524563,0.0464932399269046,-1.7783959678368038,-1.4182176880774116
1773062730609052416,1.1041433811187744,1.1569334268569946,0.3564705550670624,1.8694593906402588,-0.9784184098243713,-0.024280469864606857,0.20520208775997162,-0.6908625960350037,0.23497381806373596,0.4163188934326172,-0.4736643896324419,0.49761534062248824,0.5958019939174662,0.4159819939963645,0.024282856094273816,-1.7775283362174727,-1.4113995103822055
1773062730619089408,1.114180326461792,1.1217302083969116,1.9654877185821533,0.9957947731018066,-0.9809537529945374,-0.007821294479072094,0.1940840631723404,-0.5500978231430054,0.48276636004447937,1.1157761812210083,-0.4827918559560382,0.49698343556857333,0.5916498060157931,0.41215293208051323,0.00782137389716608,-1.7661260339051432,-1.403740456548842
1773062730629126400,1.1242172718048096,2.2002739906311035,2.844682455062866,0.5431800484657288,-0.9854989051818848,0.002097600605338812,0.16966895759105682,-0.6640067100524902,0.534660816192627,1.2224971055984497,-0.4955836168333551,0.4899826824296952,0.5871553864311158,0.411779565098227,-0.002097602087280978,-1.7412904466453383,-1.3890885289368053
1773062730639164160,1.1342551708221436,3.6583566665649414,2.642765760421753,0.870641827583313,-0.9897913336753845,0.01338101550936699,0.14189550280570984,-0.70683354139328,0.5244760513305664,0.3984640836715698,-0.5122414555747657,0.47887875300134286,0.5844851503910796,0.40824140997500347,-0.013381414499725533,-1.7131851746519742,-1.361218696454424
1773062730649201408,1.1442923545837402,4.833460807800293,2.1355652809143066,1.2097066640853882,-0.9927001595497131,0.029532885178923607,0.11693619936704636,-0.4576934576034546,0.6979146003723145,-0.16486406326293945,-0.5316913164508016,0.46580520272209935,0.5843745482063547,0.3985425772433528,-0.029537180595151542,-1.6880520672637502,-1.3196783219296573
1773062730659239168,1.1543302536010742,5.263604640960693,1.4787917137145996,1.0380641222000122,-0.9941551089286804,0.0465056337416172,0.09743166714906693,-0.22749406099319458,0.9219239354133606,-0.30453920364379883,-0.5508102327075257,0.4519720555911208,0.5868876339709312,0.3845676805314372,-0.04652241384270224,-1.6684888414394743,-1.2703169378832733
1773062730669276160,1.1643671989440918,5.744820594787598,1.150884747505188,0.8199536204338074,-0.9948927760124207,0.060346078127622604,0.08091188967227936,-0.15690165758132935,0.9722619652748108,-0.20511841773986816,-0.5687557251435115,0.4366314156283495,0.591446491151066,0.36886444040198985,-0.060382763550172025,-1.6519449799186376,-1.2161946389727278
1773062730679314432,1.1744053363800049,6.284438133239746,0.8550090789794922,1.1228097677230835,-0.9949384927749634,0.07438377290964127,0.06755846738815308,-0.2110702395439148,0.8058805465698242,-0.3607102632522583,-0.5862185509429949,0.420327716657056,0.5975816634865669,0.35009778676870734,-0.07445253927636476,-1.6385944088942355,-1.1564105895774242
1773062730689351424,1.1844422817230225,6.725664138793945,0.8877019882202148,1.2639051675796509,-0.9944391250610352,0.0905439630150795,0.05378410965204239,-0.21787166595458984,0.643663227558136,-0.20844721794128418,-0.6042572546516983,0.4031736732414439,0.6036083529741251,0.32860485569412384,-0.09066813747525318,-1.6248285526699426,-1.0918632521427842
1773062730699388160,1.19447922706604,7.129903316497803,1.0664223432540894,0.8139727711677551,-0.9938386082649231,0.10456309467554092,0.03676200658082962,-0.3720977306365967,0.5668541789054871,0.18618416786193848,-0.6228056824852556,0.3834910423925154,0.6093567289294214,0.30615703920956394,-0.1047545795528775,-1.6077693839815197,-1.0224667897553723
1773062730709426432,1.2045173645019531,7.574828147888184,0.9113673567771912,-0.05156494304537773,-0.9936977028846741,0.11047135293483734,0.0189999807626009,-0.6075138449668884,0.47213971614837646,0.4337892532348633,-0.6401231601780876,0.3599148688176134,0.6164099917911525,0.284152053879001,-0.11069729634535577,-1.5899144813558652,-0.9483724584083231
1773062730719463424,1.2145543098449707,7.434551239013672,1.4031306505203247,-0.37541037797927856,-0.9940845966339111,0.10860811173915863,-0.0003907546342816204,-0.6283824443817139,0.24916473031044006,0.7410370707511902,-0.6563145924663888,0.3331191482598302,0.6235673626372915,0.26352710407557906,-0.10882277344145123,-1.5704032469454172,-0.8724217885634163
1773062730729501184,1.2245922088623047,6.371657848358154,1.337206482887268,0.0811982974410057,-0.9940832257270813,0.10626363754272461,-0.022505519911646843,-0.3614770174026489,0.035551540553569794,0.948042631149292,-0.6719288911515471,0.3075020204664824,0.6278453215320807,0.24446733381190663,-0.10646465025277925,-1.5481607214638298,-0.8019685242394857
1773062730739538432,1.2346293926239014,4.2453293800354,0.9013704657554626,0.3659821152687073,-0.9934548735618591,0.10720851272344589,-0.03941647708415985,-0.1329336166381836,-0.2601625919342041,0.906481921672821,-0.6837833759745117,0.28879007876704876,0.6299936922326166,0.22836038029260755,-0.10741495104802272,-1.5311409638617886,-0.7478848282800081
1773062730749576448,1.2446672916412354,3.464435577392578,0.524983823299408,1.6462606191635132,-0.9919284582138062,0.11565542221069336,-0.05198131874203682,-0.12187176942825317,-0.6250853538513184,0.9356483221054077,-0.6933016058599474,0.2769624458960171,0.6303182875396655,0.2128937090742967,-0.11591482309463116,-1.5184399170597918,-0.7058766369776559
1773062730759613184,1.254704236984253,2.563093662261963,0.429423987865448,1.935826063156128,-0.9893606305122375,0.13267114758491516,-0.05970052257180214,0.112956702709198,-0.48374536633491516,0.45020341873168945,-0.7005914851985675,0.2721393542238638,0.6293567440750043,0.1975397028475901,-0.1330634605251353,-1.5105268783021497,-0.6749501616655238
1773062730769650176,1.2647411823272705,2.095396041870117,0.8055477142333984,1.5033009052276611,-0.9864394068717957,0.1479731798171997,-0.07100152969360352,-0.0007889270782470703,-0.2605983018875122,0.373445987701416,-0.7079346675669064,0.2684631445638429,0.6264397630737185,0.18528162506263915,-0.1485185755600856,-1.49894265783101,-0.6502063010217968
1773062730779688448,1.2747793197631836,2.110827684402466,0.18637658655643463,1.5691640377044678,-0.9837967157363892,0.16145674884319305,-0.0779467448592186,-0.34976035356521606,-0.15411727130413055,-0.008707873523235321,-0.7132493219461673,0.2655628140065735,0.6249024088252134,0.1739217499709601,-0.16216659533862976,-1.491730958751365,-0.6282276515750619
1773062730789725184,1.2848162651062012,1.8192477226257324,0.70150226354599,1.2155702114105225,-0.981003999710083,0.1738913655281067,-0.08598297834396362,-0.253462553024292,0.05048911273479462,0.03344696760177612,-0.718565410116289,0.26254128601012344,0.6229611419568131,0.1632644436029763,-0.17477986972480475,-1.48337179946372,-0.6070280416798324
1773062730799763456,1.2948544025421143,1.2783714532852173,1.073264241218567,0.972070574760437,-0.9782746434211731,0.18295806646347046,-0.09749418497085571,-0.3337675929069519,0.10207609832286835,0.2477932572364807,-0.724236210489121,0.259481930284871,0.6196144254753048,0.155656768264462,-0.18399446274511808,-1.4714649952610157,-0.5900636295107441
1773062730809800448,1.3048913478851318,0.6308892965316772,1.4399486780166626,1.0525826215744019,-0.9750914573669434,0.19183246791362762,-0.11134257167577744,-0.2931886315345764,0.020966574549674988,0.3851920962333679,-0.7300478194131742,0.25821405107900675,0.6145357740241111,0.15067043053004553,-0.19302895484713778,-1.4571019593562846,-0.5794043348769553
1773062730819838208,1.3149292469024658,0.05598260089755058,1.6865307092666626,1.322676181793213,-0.9708209037780762,0.20298326015472412,-0.12768974900245667,-0.08681154251098633,-0.13729417324066162,0.26985591650009155,-0.7363113291986482,0.25932537726021365,0.6073758933865024,0.14727713291657382,-0.20440365548005182,-1.4400194017154058,-0.574253276865574
1773062730829875200,1.3249661922454834,-0.5576609969139099,1.656506896018982,1.4977480173110962,-0.9655539393424988,0.217158704996109,-0.14334553480148315,0.08936363458633423,-0.340541273355484,-0.01223309338092804,-0.7420589943975303,0.2633828870424096,0.5991299419492593,0.14498738867538016,-0.21890277113397272,-1.4234134386444552,-0.5749055665222212
1773062730839912448,1.33500337600708,-1.0790151357650757,1.4439605474472046,1.6719489097595215,-0.9596235156059265,0.23368172347545624,-0.15657472610473633,0.2745649218559265,-0.45128732919692993,-0.11242246627807617,-0.7467843802288154,0.2699724389322167,0.5906162219398033,0.14352862765299526,-0.23586253799530277,-1.4090588775999617,-0.5805155154208459
1773062730849950208,1.345041275024414,-1.8375780582427979,1.8400382995605469,2.0065739154815674,-0.9525148868560791,0.2534793019294739,-0.16871219873428345,0.37414562702178955,-0.4685061275959015,-0.08986325562000275,-0.7508883609774802,0.2796154629704165,0.580912296520871,0.14325803020725086,-0.2562753274628746,-1.3954915930505287,-0.5922596792243647
1773062730859987200,1.3550782203674316,-2.205883741378784,1.7080174684524536,2.4455552101135254,-0.9433969855308533,0.27873343229293823,-0.17975018918514252,0.3578560948371887,-0.3500377833843231,0.004182562232017517,-0.7545616784942489,0.2928032653545514,0.5695534658076687,0.14321991940594386,-0.2824750332038557,-1.382518014999496,-0.6093736677469087
1773062730870025472,1.3651163578033447,-1.6710622310638428,1.9134562015533447,2.1024587154388428,-0.933387815952301,0.30392223596572876,-0.19083666801452637,0.328956663608551,-0.10949471592903137,0.09304302930831909,-0.758306254004817,0.305455805859991,0.5579233102436538,0.1427937064075316,-0.3088069322059549,-1.3691199240833967,-0.6249795630358167
1773062730880062464,1.3751533031463623,-1.0185617208480835,1.7435779571533203,1.539624571800232,-0.9238227009773254,0.32384544610977173,-0.20414642989635468,0.20112067461013794,-0.06571251153945923,0.02082735300064087,-0.7627553765125433,0.31438554054294404,0.5468898607871288,0.1423989562724056,-0.3297911410835069,-1.353311372040085,-0.6348536042920039
1773062730890099200,1.3851902484893799,-0.5679892897605896,1.3015687465667725,1.0217820405960083,-0.9164741039276123,0.33713483810424805,-0.21544206142425537,0.2458503246307373,-0.18340253829956055,0.03808915615081787,-0.7665042069668987,0.31975686793057645,0.5385485260836674,0.1420996707784441,-0.3438718972197863,-1.3399113190073597,-0.6400208150004327
1773062730900137472,1.395228385925293,-0.4207768738269806,0.7926381230354309,0.8597934246063232,-0.9110239148139954,0.3466593325138092,-0.22329959273338318,0.41506755352020264,-0.4847361445426941,0.19804628193378448,-0.7691816030173473,0.32331625224600347,0.5327445980340315,0.14145472720662283,-0.3540072470620583,-1.3304268206416499,-0.6425740035327204
1773062730910174464,1.4052653312683105,-0.6422540545463562,0.745998740196228,0.8695594668388367,-0.9063382744789124,0.3556644022464752,-0.22815315425395966,0.6326871514320374,-0.8344241976737976,0.5437201857566833,-0.7708901660034304,0.3270986409552116,0.5281381481256503,0.1407300925810488,-0.36362484272309376,-1.3241894462960733,-0.6457943787168337
1773062730920212224,1.4153032302856445,-0.9438285231590271,1.0577805042266846,1.067650556564331,-0.9007933735847473,0.36614087224006653,-0.23347854614257812,0.7063353657722473,-1.1826233863830566,0.8673591613769531,-0.772647840894996,0.3319924136340039,0.5225339838673478,0.14055120736509674,-0.37485852142880577,-1.3171851416900855,-0.6513315044436109
1773062730930249216,1.425340175628662,-1.4933431148529053,1.3108009099960327,1.388672947883606,-0.8933924436569214,0.38005807995796204,-0.2395951896905899,0.7958582639694214,-1.3833692073822021,0.9919297695159912,-0.774551654044927,0.3390620742807911,0.5150139001180215,0.1409516219372714,-0.3898591001830092,-1.3087761732582732,-0.6606595401341073
1773062730940287232,1.4353783130645752,-2.065281867980957,1.2135108709335327,1.615679144859314,-0.8842890858650208,0.39796218276023865,-0.2442518174648285,0.9402888417243958,-1.3308387994766235,0.9602094888687134,-0.7758890264696534,0.34897523687574045,0.5060537293893411,0.14185246761007403,-0.4092944705593657,-1.301303088139168,-0.6750587092346079
1773062730950324224,1.4454152584075928,-2.188807725906372,0.8393851518630981,1.3029420375823975,-0.8756676316261292,0.41658851504325867,-0.24425461888313293,1.0295066833496094,-1.146233320236206,0.7291026711463928,-0.7756280270789052,0.36052226184899755,0.4978919435350522,0.14327790344384453,-0.42968946178199346,-1.2987751851187899,-0.6936997838971533
1773062730960361216,1.4554522037506104,-1.5351521968841553,0.6933643221855164,0.5532388091087341,-0.8698245882987976,0.42937353253364563,-0.2429889738559723,0.9620639681816101,-1.0551211833953857,0.4820484519004822,-0.7747526626286741,0.36964484156640076,0.49180097731067246,0.14578369663643928,-0.44379898537475987,-1.2983867663447002,-0.7111500920529099
1773062730970399488,1.4654903411865234,-1.1966073513031006,0.36645594239234924,0.041164327412843704,-0.8673779368400574,0.4349155128002167,-0.2418760061264038,0.7876660227775574,-1.160654067993164,0.05584084987640381,-0.7737999717976717,0.37499019220110014,0.48830764297947743,0.14890131666329845,-0.44994443305645665,-1.2988461397760411,-0.7242975637441003
1773062730980436224,1.475527286529541,-1.71084725856781,0.37437406182289124,-0.09763643145561218,-0.8667168021202087,0.4379599094390869,-0.2387317717075348,0.8102899789810181,-1.243807077407837,0.10926094651222229,-0.7719353397923628,0.3801387537202062,0.4859306970210125,0.15323703747574977,-0.45332811945868096,-1.3020175712896631,-0.7397578979703351
1773062730990474240,1.485565185546875,-2.325486898422241,0.25161775946617126,0.027314558625221252,-0.8661789298057556,0.4423134922981262,-0.23257839679718018,0.8511033654212952,-1.275641679763794,0.3793984651565552,-0.7687843114257585,0.38756840918770036,0.48321996280779705,0.158933349378501,-0.45817658114952287,-1.308473035923325,-0.7616412333260583
1773062731000511488,1.4956023693084717,-2.5380098819732666,0.05624508112668991,0.1815270334482193,-0.8653727173805237,0.44891035556793213,-0.22273223102092743,0.8178110718727112,-1.2577177286148071,0.4777218699455261,-0.7643173420745798,0.39730028907303844,0.4804022960357638,0.16487916130640767,-0.46554553604903853,-1.318881108691349,-0.7884315116291414
1773062731010549248,1.5056402683258057,-2.011666774749756,0.010389041155576706,0.3086017370223999,-0.8641250729560852,0.4561353027820587,-0.21267010271549225,0.7700088024139404,-1.0767712593078613,0.5230185985565186,-0.7599954523635973,0.4066728297116241,0.4777888224225494,0.16953485093808127,-0.4736475313937774,-1.3294818797309158,-0.8128533120296906
1773062731020586240,1.5156772136688232,-1.3512481451034546,-0.34180310368537903,0.23233363032341003,-0.8631153702735901,0.46212100982666016,-0.2036571353673935,0.6575489640235901,-0.7742700576782227,0.3216991424560547,-0.756434864845879,0.41386210661830586,0.47632928848026324,0.1721481981150357,-0.4803854077188533,-1.3390787282696408,-0.8304964451032604
1773062731030623488,1.52571439743042,-0.729800820350647,-0.3930799961090088,-0.2770320177078247,-0.8638783693313599,0.46421319246292114,-0.19550079107284546,0.40437501668930054,-0.5349376797676086,0.19293728470802307,-0.753361478703938,0.41810003813746605,0.47690875317419634,0.17377299223213727,-0.48274609519949496,-1.3482392256129363,-0.8418133250175132
1773062731040661248,1.535752296447754,-0.8547672629356384,-0.6690409779548645,-0.7195761799812317,-0.8673027753829956,0.4610627591609955,-0.18763487040996552,0.028252601623535156,-0.470324844121933,0.008481457829475403,-0.7501171749181528,0.4200818272955566,0.4792846998159074,0.1764696713687756,-0.47919248134641973,-1.357736874656251,-0.8513014925783794
1773062731050698240,1.5457892417907715,-1.5639474391937256,-0.6814472079277039,-0.8687524795532227,-0.8723037242889404,0.45615050196647644,-0.17610426247119904,-0.18848717212677002,-0.46728944778442383,0.08142347633838654,-0.7452098339118771,0.423178770189147,0.48256356864399724,0.18087094826623654,-0.4736646262156266,-1.371589780569351,-0.8662036589936976
1773062731060736512,1.5558273792266846,-2.433265209197998,-0.5951541662216187,-0.5465123653411865,-0.8768224120140076,0.4529505968093872,-0.16130098700523376,-0.16233152151107788,-0.3276302218437195,0.40753209590911865,-0.7386679441253835,0.4294025387959623,0.48472978437082975,0.18713640486576846,-0.47007214086969357,-1.3888695119055101,-0.8899369864336902
1773062731070773248,1.5658643245697021,-3.326754570007324,-0.7449978590011597,0.20161978900432587,-0.8785969614982605,0.4557483494281769,-0.14269208908081055,-0.06377065181732178,-0.04817086458206177,0.5989909172058105,-0.7306993050514518,0.44017414255727794,0.4846655373591212,0.193454563649637,-0.4732127846763831,-1.4097930463919117,-0.922259781945488
1773062731080811264,1.5759022235870361,-3.848378896713257,-0.4582504630088806,1.0189793109893799,-0.8768351674079895,0.4656541049480438,-0.11969271302223206,0.07513844966888428,0.3703596889972687,0.8001736402511597,-0.721440125548982,0.45541352920154227,0.48244394696377885,0.19842002218805216,-0.48437360272728597,-1.4351294672115953,-0.9615029230731935
1773062731090848256,1.5859391689300537,-4.952345848083496,-0.10786649584770203,2.1824827194213867,-0.8693763017654419,0.48442044854164124,-0.09757959842681885,0.0653907060623169,0.7686160206794739,0.8368831872940063,-0.7125576940710613,0.4749751847520923,0.4749829184778066,0.20261148239451898,-0.5057005880567788,-1.4590232089555228,-1.0081040474144043
1773062731100885504,1.5959763526916504,-6.314922332763672,-0.7398521900177002,2.7920279502868652,-0.8569101095199585,0.5112258195877075,-0.06598041951656342,-0.02172154188156128,1.2788742780685425,0.5718092918395996,-0.7003929448166428,0.5015014146534467,0.46422636690158703,0.2060097321266392,-0.5366104604713415,-1.493949884282107,-1.0707007998877345
1773062731110923264,1.6060142517089844,-7.388139724731445,-2.809532880783081,1.9012349843978882,-0.8448696136474609,0.5347457528114319,-0.015581151470541954,-0.2481786608695984,1.4559922218322754,0.7514973282814026,-0.6813180809737169,0.532442420796782,0.45685281282012263,0.20879763327030135,-0.5642068054700654,-1.5523563381052734,-1.1491701245367951
1773062731120960256,1.616051197052002,-8.769242286682129,-3.504671812057495,0.9059293866157532,-0.8368226885795593,0.5445359349250793,0.05664326995611191,-0.7697904706001282,1.4290969371795654,1.0746281147003174,-0.6527193997154918,0.5662711280845678,0.4556957809761803,0.2136253746512824,-0.575835728637699,-1.6383817285649709,-1.2463169619789556
1773062731130998272,1.626089334487915,-9.601983070373535,-2.8441154956817627,0.6984818577766418,-0.8296186327934265,0.5421119332313538,0.13359558582305908,-1.0723896026611328,1.5634636878967285,1.313456416130066,-0.61929706663242,0.6009085321551889,0.4535490403155636,0.22287537664783016,-0.5729483949210975,-1.7304581929819598,-1.3567782368905543
1773062731141035264,1.6361262798309326,-10.13435173034668,-1.5601017475128174,1.0331299304962158,-0.8215296864509583,0.5322946906089783,0.20433193445205688,-1.094623327255249,1.4965139627456665,0.9442275762557983,-0.5848987510209136,0.6350315863623096,0.4459830189139844,0.23606691155871004,-0.5613088774133649,-1.814571145583043,-1.4737642108798685
1773062731151073280,1.6461641788482666,-10.077421188354492,-1.9037151336669922,0.668732225894928,-0.8125813603401184,0.5156521201133728,0.2716886103153229,-1.0567729473114014,1.21101713180542,0.2802981436252594,-0.5490654031012991,0.6680784171975414,0.43533382488716205,0.250365734831866,-0.5417686170542468,-1.8934638595619173,-1.5918338071299445
1773062731161110528,1.6562013626098633,-9.229022026062012,-2.2654900550842285,-0.033770229667425156,-0.804567277431488,0.4882602095603943,0.3380435109138489,-0.9695568680763245,0.9282742142677307,-0.06167638301849365,-0.5115465037994584,0.6972767464073542,0.4275826143287692,0.26324590694276284,-0.5100950710425615,-1.9685566393865186,-1.6983179960643782
1773062731171147264,1.6662383079528809,-7.429816246032715,-2.0150957107543945,-0.07489969581365585,-0.7970338463783264,0.4567284882068634,0.39514046907424927,-0.8522122502326965,0.8795140981674194,-0.18447762727737427,-0.47701769601472194,0.7207876021219983,0.4219424843798892,0.2736491250206874,-0.4743142410417661,-2.0310491574273666,-1.784694262043071
1773062731181185280,1.6762762069702148,-5.01079797744751,-0.688260018825531,0.18070784211158752,-0.7908922433853149,0.4309808611869812,0.4344482123851776,-0.6461043357849121,1.2123297452926636,-0.4481200575828552,-0.45116366017094,0.7374355467049268,0.4164287668270245,0.28147355911437094,-0.4455794952084459,-2.073112716206249,-1.846998289077299
1773062731191222528,1.6863133907318115,-0.498234361410141,0.07811642438173294,0.5027965307235718,-0.7887831330299377,0.42124608159065247,0.44763025641441345,-0.6237382292747498,1.6274447441101074,-0.9757827520370483,-0.44082528146884,0.7447426321756092,0.4113071113009691,0.2861082234353924,-0.434818797246014,-2.086971892389171,-1.8765468691668077
1773062731201260288,1.6963512897491455,0.9152039885520935,-0.7361951470375061,-0.4667792022228241,-0.786676824092865,0.4239731729030609,0.4487609565258026,-0.52042156457901,1.8629683256149292,-2.2036895751953125,-0.44176396429545617,0.7445887242367785,0.41227189153548266,0.28366201217666354,-0.4378278269213241,-2.0892055694749825,-1.8732333984043803
1773062731211297280,1.706388235092163,0.9310935735702515,-0.5070521235466003,-1.5257452726364136,-0.7881642580032349,0.4198528826236725,0.4500226378440857,-0.3938729763031006,1.5571062564849854,-1.9653730392456055,-0.44239372681896927,0.7412240331271105,0.4190444561567113,0.28156061256292686,-0.4332832338286359,-2.0896009841165433,-1.8583261676892466
1773062731221334272,1.7164251804351807,0.6271576881408691,-0.5272034406661987,-1.7514503002166748,-0.7929966449737549,0.41007328033447266,0.45055150985717773,-0.29866307973861694,0.8604651093482971,-1.4306235313415527,-0.44189327626198494,0.7366223342215499,0.42739125433214764,0.2818771263369593,-0.4225344026920193,-2.0874773906850597,-1.8417762135101918
1773062731231372288,1.7264633178710938,0.6536772847175598,-0.7600595951080322,-1.6061956882476807,-0.7969531416893005,0.39937111735343933,0.4531763195991516,-0.09998911619186401,0.19720178842544556,-1.1895806789398193,-0.44037560083636607,0.7325095180476262,0.43591050012209714,0.28192428421747795,-0.4108307918050569,-2.087834806423364,-1.8267512462647828
1773062731241409280,1.7365002632141113,0.7880265712738037,-0.48142266273498535,-1.5387908220291138,-0.800028383731842,0.3902186453342438,0.45572391152381897,0.01449054479598999,-0.201925128698349,-0.9433031678199768,-0.4393792950309536,0.728374505900159,0.4442212693714443,0.28121875362828336,-0.4008690578364463,-2.088589071900125,-1.8112086018002975
1773062731251447552,1.7465384006500244,-0.35069727897644043,0.5593999624252319,-1.2767263650894165,-0.8056893944740295,0.3802083432674408,0.454210102558136,0.058313727378845215,-0.4330494701862335,-0.8300491571426392,-0.4386258335599625,0.7243939425601578,0.4498427108298299,0.2837296835260891,-0.3900215359193803,-2.084137377706639,-1.8003983237449206
1773062731261484288,1.756575345993042,-2.207019329071045,1.23814058303833,-0.7789559960365295,-0.8139137029647827,0.3657614588737488,0.4514012634754181,0.16604077816009521,-0.6595083475112915,-0.4856419563293457,-0.43442599750607097,0.7236435369073076,0.4494893339419756,0.29252938946609713,-0.3744508115743119,-2.0771687783724184,-1.8077388718732468
1773062731271522304,1.766613245010376,-2.422330617904663,0.8389940857887268,-0.6464224457740784,-0.821293294429779,0.3492406904697418,0.45111915469169617,0.3591349720954895,-0.9490483999252319,-0.10431736707687378,-0.4270733626676722,0.7257094029116753,0.4459881580224856,0.3033955300354844,-0.35676063925186385,-2.0730858044693017,-1.8269475095213954
1773062731281559296,1.7766501903533936,-1.932875156402588,0.3154885172843933,-0.8504163026809692,-0.8263328075408936,0.33324798941612244,0.45400428771972656,0.44065165519714355,-1.2291373014450073,-0.39200782775878906,-0.4192421878966752,0.727810732197833,0.4441775301796101,0.3118234326199789,-0.3397464046027282,-2.0731946080705352,-1.8434382358872579
1773062731291596288,1.7866873741149902,-1.8740280866622925,-0.05852557718753815,-0.9075804948806763,-0.8299446105957031,0.31725338101387024,0.4588490426540375,0.5065802335739136,-1.3055803775787354,-0.5561085343360901,-0.41136182112189396,0.7294306420969703,0.4442470720284536,0.31836614330899726,-0.32283184220204136,-2.0758380783893906,-1.856036986665224
1773062731301634304,1.7967252731323242,-2.3851194381713867,-0.21625661849975586,-0.7193685173988342,-0.8314427733421326,0.30049264430999756,0.4673406779766083,0.587424099445343,-1.141831636428833,-0.5025731921195984,-0.40167685452319535,0.7323637845999246,0.44419998410253553,0.32401455507740834,-0.30520912543562134,-2.082869725858575,-1.8716983327925392
1773062731311671296,1.8067622184753418,-2.1601016521453857,0.4185883700847626,-0.6883122324943542,-0.8340805768966675,0.283974826335907,0.4729355275630951,0.60088050365448,-0.9493343234062195,-0.50285804271698,-0.3924745575306319,0.7351123402793447,0.4428065240998425,0.3309018108149799,-0.28793706127459845,-2.0866083546493486,-1.8887708670708914
1773062731321709312,1.8168003559112549,-2.6024200916290283,0.5151101350784302,-0.9734190702438354,-0.8384919166564941,0.26619383692741394,0.4754704535007477,0.4483094811439514,-0.8765606880187988,-0.9881809949874878,-0.3835417508414062,0.7371200522624826,0.4408959727662974,0.3393530531189857,-0.26944223952893365,-2.086638717269166,-1.9059126735421563
1773062731331746304,1.8268373012542725,-3.078897714614868,1.1028661727905273,-1.8763099908828735,-0.8456138968467712,0.2406306266784668,0.4764806032180786,0.3931146264076233,-0.8639674186706543,-0.7805120348930359,-0.37212893982332734,0.7381788958133352,0.43969560159980053,0.35111203248224154,-0.24301551667709856,-2.083924619544628,-1.9246961059827583
1773062731341784320,1.8368752002716064,-2.9097771644592285,1.825545072555542,-2.5406877994537354,-0.8580105900764465,0.20682768523693085,0.47014909982681274,0.3275235891342163,-0.936869204044342,-0.547663688659668,-0.36020100810314226,0.735987516635888,0.4397691726553398,0.3676692596840241,-0.2083314108175564,-2.072066258409492,-1.940708906433835
1773062731351821312,1.8469123840332031,-2.3972246646881104,1.902862548828125,-2.1431236267089844,-0.8712636232376099,0.17367473244667053,0.4590611457824707,0.3120136260986328,-1.0057212114334106,-0.7439731955528259,-0.35003794371386543,0.731893825860363,0.44029762640240255,0.3846335539631634,-0.1745598952845226,-2.05572476089761,-1.9529178454829952
1773062731361858304,1.8569493293762207,-2.3040785789489746,1.95015549659729,-1.389025092124939,-0.8827926516532898,0.14771141111850739,0.4459359049797058,0.5354719758033752,-0.9105440378189087,-0.7696511149406433,-0.3423249666748345,0.7282767058187434,0.43884051078030734,0.3998071945782745,-0.1482538987571232,-2.038549302600582,-1.9656631237361253
1773062731371896320,1.8669872283935547,-2.4000611305236816,2.2394399642944336,-1.1844831705093384,-0.8937759399414062,0.12624402344226837,0.4303799867630005,0.696662962436676,-0.7338489890098572,-0.5226956605911255,-0.33581035264785797,0.7252437166707316,0.43498453095972334,0.4147787403727637,-0.12658178972624554,-2.019559093568129,-1.981477436223626
1773062731381934848,1.877025842666626,-2.2892866134643555,2.4021048545837402,-1.3039557933807373,-0.9050687551498413,0.10502399504184723,0.4120926260948181,0.6565337181091309,-0.592511773109436,-0.2687668204307556,-0.3296659252017414,0.7215352410764233,0.43061955815904907,0.430434662583403,-0.10521803165387172,-1.9980625435980746,-1.9977107639670384
1773062731391973120,1.887063980102539,-2.1269612312316895,2.4888827800750732,-1.3753924369812012,-0.9161925911903381,0.08384403586387634,0.39186903834342957,0.5741515755653381,-0.45434269309043884,-0.16590166091918945,-0.32398182640610346,0.7169114852028136,0.42658227655806724,0.44620765112505206,-0.0839425802613236,-1.9749640950143483,-2.0126683424303358
1773062731402009856,1.8971009254455566,-1.8239582777023315,2.714202880859375,-1.577275276184082,-0.9271726608276367,0.06263406574726105,0.3693614602088928,0.5394315719604492,-0.30650004744529724,-0.0791698694229126,-0.319014464299018,0.7110893043410177,0.4231225941270228,0.4621136835594171,-0.06267509082659226,-1.949900174931177,-2.025567277555816
1773062731412047872,1.9071388244628906,-1.308576226234436,2.7446188926696777,-1.8235893249511719,-0.9379697442054749,0.041052211076021194,0.34427860379219055,0.4444240927696228,-0.2259887456893921,-0.09285947680473328,-0.31528895973865634,0.703443490612434,0.4210778529065825,0.477968289155312,-0.04106375039628478,-1.9225759810959513,-2.034148759035002
1773062731422085120,1.9171760082244873,-0.9452264308929443,2.435772657394409,-1.8681848049163818,-0.9471707344055176,0.019696341827511787,0.3201247453689575,0.345180869102478,-0.19779692590236664,-0.17331990599632263,-0.3123365443694294,0.6949323498998414,0.4208698204885637,0.4923246762596147,-0.019697614978916166,-1.8967230230706038,-2.038364152128432
1773062731432122112,1.9272129535675049,-1.3084834814071655,1.8387690782546997,-1.400285243988037,-0.9540964365005493,0.0003827245382126421,0.2994993329048157,0.3522898554801941,-0.1720746010541916,-0.031081944704055786,-0.30901033033852165,0.6876358256604266,0.42060270318587306,0.5047404825728715,-0.00038272453422084966,-1.8749641967290087,-2.043406625295767
1773062731442159872,1.9372508525848389,-2.07494854927063,1.901623249053955,-0.7361641526222229,-0.9592007398605347,-0.014611050486564636,0.2823486328125,0.4089381694793701,-0.10294268280267715,0.3500213921070099,-0.30422686264703347,0.683503263898378,0.41713019715347177,0.5160153361971229,0.014611570592574548,-1.8570691724508577,-2.0566312561872326
1773062731452196864,1.9472877979278564,-2.4414985179901123,2.659621477127075,-0.4311208128929138,-0.9653207063674927,-0.026342211291193962,0.2597348690032959,0.3409919738769531,-0.05852717161178589,0.6380159854888916,-0.299623272665841,0.6798021068951527,0.40955650860871007,0.5294889308779291,0.026345259170209752,-1.8336373184535608,-2.0773277868428845
1773062731462234880,1.9573259353637695,-2.307523250579834,2.9604249000549316,-0.2385694533586502,-0.9722238779067993,-0.035518426448106766,0.23134228587150574,0.17899572849273682,-0.13669225573539734,0.5957756042480469,-0.2963648623994762,0.6750263075076487,0.40001328477776465,0.5445151458678815,0.03552589907782668,-1.8044036337835534,-2.0997530474012875
1773062731472271872,1.967362880706787,-1.9286630153656006,3.034545660018921,-0.10541632026433945,-0.9786620140075684,-0.041729509830474854,0.201194629073143,0.13817739486694336,-0.14981406927108765,0.5073624849319458,-0.29464716214844283,0.6695852082566978,0.3901960591493526,0.5590936443143535,0.041741631016567415,-1.7735527423009663,-2.120359881133329
1773062731482308864,1.9773998260498047,-1.4489527940750122,2.8603248596191406,-0.17173489928245544,-0.9841517210006714,-0.046153705567121506,0.1712171882390976,0.1314295530319214,-0.03526719659566879,0.4382646083831787,-0.294387237858024,0.6634007243549831,0.38145520375569425,0.5724749772649554,0.046170106080538335,-1.743046678825965,-2.1367578266651637
1773062731492346880,1.9874379634857178,-1.0420948266983032,2.5807549953460693,-0.32786232233047485,-0.988345742225647,-0.05057214945554733,0.14357948303222656,0.09849900007247925,0.15414881706237793,0.45528221130371094,-0.2947535652680899,0.6568267724011299,0.3746576199020112,0.5842350335957783,0.050593730024500495,-1.7150596492047792,-2.1486208061017145
1773062731502383872,1.9974749088287354,-0.8121733069419861,1.9429577589035034,-0.45541760325431824,-0.9911611080169678,-0.055757541209459305,0.12037777155637741,0.04983115196228027,0.3444385826587677,0.5067126750946045,-0.2948144545820933,0.6506898361854724,0.3698535142170895,0.5940501592813522,0.05578647104128442,-1.6916556669671765,-2.1572931120510885
1773062731512421888,2.0075128078460693,-0.469789981842041,1.3118435144424438,-0.48499560356140137,-0.9926781058311462,-0.06130273640155792,0.10407637804746628,-0.09322869777679443,0.444771409034729,0.5199623107910156,-0.294170257817128,0.6459832695813699,0.3670746564479253,0.6011867877174578,0.06134119849530811,-1.6752587155646497,-2.1633611150166927
1773062731522459136,2.017549991607666,0.26876798272132874,1.2356091737747192,-0.3005535900592804,-0.9936423897743225,-0.06546090543270111,0.09159478545188904,-0.3054298162460327,0.4116523265838623,0.4477270841598511,-0.29488405990895533,0.6416212911711812,0.36622330779702605,0.6060082431918055,0.0655077460144113,-1.6627173861259488,-2.164032087982107
1773062731532496896,2.027587890625,0.940102219581604,1.209092378616333,-0.2912681996822357,-0.994515597820282,-0.06764959543943405,0.07976498454809189,-0.5316838622093201,0.30419132113456726,0.2164386510848999,-0.2982671008639527,0.636473693724143,0.3671290384390373,0.609224378863078,0.06770129992151123,-1.650829868544034,-2.1576870887485504
1773062731542533888,2.0376248359680176,1.1012465953826904,1.208249568939209,-0.5492116212844849,-0.9951462745666504,-0.07102389633655548,0.06811398267745972,-0.7979292869567871,0.1602877974510193,0.05253720283508301,-0.3026805053910378,0.6302873134138913,0.36985793872914363,0.611823097841595,0.07108374257102452,-1.6391359441865483,-2.146654096954755
1773062731552571136,2.0476620197296143,1.0242688655853271,1.566979169845581,-0.7986928224563599,-0.9954664707183838,-0.07719834893941879,0.055557187646627426,-1.011460781097412,0.008823752403259277,-0.0002746693789958954,-0.30629426008442673,0.6233436039058009,0.373123767130012,0.6151464002611217,0.07727523325340972,-1.6265486940475198,-2.135923156215865
1773062731562608896,2.0576999187469482,1.3319902420043945,1.4351284503936768,-0.8251276016235352,-0.995507538318634,-0.0850105881690979,0.041689373552799225,-1.1378238201141357,-0.2478141188621521,-0.2773919105529785,-0.31018643764441545,0.6153245270295238,0.3771212186471833,0.6188212284476695,0.08511331236218467,-1.6126493794769665,-2.123544961263367
1773062731572645888,2.067736864089966,1.101380467414856,1.7296562194824219,-0.4815126061439514,-0.9954593777656555,-0.09128667414188385,0.02697223611176014,-1.2010281085968018,-0.5530614852905273,-0.3016456365585327,-0.3149635172640463,0.6071420007311225,0.38061096775481995,0.6223439070809412,0.0914139371384927,-1.5978849637590622,-2.1106527261797408
1773062731582684160,2.077775001525879,0.5000839829444885,1.8078123331069946,-0.08480332046747208,-0.9955385327339172,-0.09384384006261826,0.00982763059437275,-1.2514097690582275,-0.698804497718811,0.020598411560058594,-0.31997155280191003,0.5997320118685356,0.38109753232235394,0.6266613756567767,0.0939821321777966,-1.5806676788874785,-2.1025008775302596
1773062731592720896,2.0878119468688965,0.373861700296402,1.5724855661392212,0.054223138839006424,-0.9955608248710632,-0.09386993944644928,-0.006867482792586088,-1.2624499797821045,-0.6194174289703369,0.19084268808364868,-0.3243966372597471,0.5937017485432263,0.3795846313776482,0.6310313939668306,0.09400834296414944,-1.563898331616797,-2.0985435396573004
1773062731602758912,2.0978498458862305,0.8526841998100281,1.0752685070037842,-0.027724457904696465,-0.9954106211662292,-0.09367623925209045,-0.01955699548125267,-1.051159143447876,-0.26780447363853455,0.18050670623779297,-0.3287615162348805,0.5885769724397322,0.37920792417795546,0.6337936577985616,0.09381378796940304,-1.5511516909751013,-2.0925787874813357
1773062731612796160,2.107887029647827,1.272362470626831,0.7488017082214355,-0.387594997882843,-0.9950186014175415,-0.0958271324634552,-0.02748285047709942,-0.670737624168396,0.2860126793384552,0.17114436626434326,-0.33304326210102647,0.583569482036775,0.38171354999526846,0.6346839140756961,0.09597440224788713,-1.5431829075110264,-2.0817443175157084
1773062731622832896,2.1179239749908447,1.7195024490356445,0.48680126667022705,-0.7845290899276733,-0.9942270517349243,-0.10233686119318008,-0.03224494308233261,-0.3531087636947632,0.8665122985839844,0.23367619514465332,-0.3365880372000157,0.5779444734710102,0.38711460158692723,0.6346896420791986,0.10251633724781467,-1.5383755192344772,-2.0671264320691827
1773062731632870912,2.1279618740081787,2.5490050315856934,0.10020627826452255,-0.5917219519615173,-0.9933480024337769,-0.11034011840820312,-0.03293723613023758,-0.09339821338653564,1.2000617980957031,0.17476767301559448,-0.34098439546758863,0.5719416697883083,0.39549223427702873,0.6326122768176151,0.1105652495917535,-1.5376506669303327,-2.045892752127511
1773062731642907904,2.1379988193511963,3.0031208992004395,-0.1335393637418747,0.028306718915700912,-0.993032693862915,-0.114109568297863,-0.029415369033813477,0.15740036964416504,1.1835675239562988,-0.027881383895874023,-0.3480389586866472,0.5666043437666229,0.40527994399590805,0.6273568992344223,0.1143586653981368,-1.5411832334418802,-2.0175680410121934
1773062731652945920,2.1480369567871094,3.1978981494903564,-0.42965489625930786,0.49952271580696106,-0.9934254884719849,-0.1120922863483429,-0.023264970630407333,0.19326984882354736,0.9522411823272705,-0.11577314138412476,-0.35717773199911695,0.5625245754509194,0.41464878751977785,0.6197230152777403,0.11232836086672528,-1.5473816683898736,-1.9861615014855787
1773062731662982912,2.158073902130127,3.187385320663452,-0.7181620597839355,0.6320602297782898,-0.9941787719726562,-0.1068543866276741,-0.013819520361721516,-0.0134965181350708,0.6293458342552185,-0.10648077726364136,-0.36677808194633943,0.5597527014028888,0.42398956735728144,0.6102325022913501,0.10705877822348638,-1.5568967838825323,-1.953631863386215
1773062731673020928,2.168111801147461,3.135721445083618,-0.8490346074104309,0.5662319660186768,-0.9948734045028687,-0.10109338164329529,-0.002639864571392536,-0.2681880593299866,0.4045754671096802,-0.004455447196960449,-0.3757419953916423,0.5575813944509337,0.433339423897677,0.6001148808955502,0.10126637235923122,-1.568142865301835,-1.9217901815355236
1773062731683057920,2.1781489849090576,3.1636271476745605,-0.8388847708702087,0.4621140956878662,-0.9953530430793762,-0.09587552398443222,0.008947507478296757,-0.44005638360977173,0.3305557370185852,0.07042872905731201,-0.38421143374860367,0.5552276079819456,0.44294024079893335,0.5898370348701096,0.09602301996301874,-1.579785364830629,-1.890006294677431
1773062731693094912,2.188185930252075,3.102020025253296,-0.7565451264381409,0.4286991357803345,-0.9956448078155518,-0.09105654060840607,0.019999610260128975,-0.500769317150116,0.34174323081970215,0.14709937572479248,-0.3923945862726977,0.5524726404296341,0.4525193771707991,0.579678033677668,0.09118284040474224,-1.5908807190708423,-1.8584298923546159
1773062731703132928,2.198223829269409,2.9189305305480957,-0.44883525371551514,0.5123173594474792,-0.995911180973053,-0.08563785254955292,0.028761165216565132,-0.4830774664878845,0.3773401081562042,0.2341172695159912,-0.4006874738624359,0.5493014891509284,0.46113821862667204,0.5701482609304064,0.08574287736442596,-1.5996675492539034,-1.8281656373475232
1773062731713170176,2.208261013031006,2.918874740600586,-0.28376254439353943,0.5812454223632812,-0.9962555170059204,-0.07921583950519562,0.03463759273290634,-0.4859527349472046,0.4193952977657318,0.16470324993133545,-0.40942057403545307,0.5456646342403811,0.4685817995656689,0.5612984709590921,0.0792989230307743,-1.6055501074138747,-1.799097353943598
1773062731723207936,2.21829891204834,2.3751566410064697,-0.6143825650215149,0.5939124822616577,-0.9965296983718872,-0.07202272862195969,0.04172893986105919,-0.5033024549484253,0.4689038395881653,0.002246856689453125,-0.4172945480346598,0.5429544396838318,0.47546287534405457,0.5522687621621635,0.07208514495704103,-1.612646133367663,-1.772277064547168
1773062731733244928,2.2283358573913574,2.5116987228393555,0.34995073080062866,0.1345030516386032,-0.9967406988143921,-0.0672537311911583,0.0445500947535038,-0.41382741928100586,0.5740286111831665,0.3765314817428589,-0.42453106431740567,0.539123049382378,0.48127059405315775,0.5454340086458743,0.06730453711487686,-1.6154623691968624,-1.7484329981053237
1773062731743281920,2.238372802734375,2.9791078567504883,0.4371599555015564,0.19473125040531158,-0.9969847202301025,-0.06486678868532181,0.04259078949689865,-0.553003191947937,0.4154526889324188,0.07015645503997803,-0.43321772224691407,0.5324171558102587,0.48767547365046143,0.5394692891064298,0.06491236346664146,-1.61348997011797,-1.7206613918254294
1773062731753319936,2.248410940170288,2.779911518096924,0.7774825096130371,0.5585090517997742,-0.9974896311759949,-0.05988609045743942,0.03779173642396927,-0.4503558278083801,0.3380385637283325,-0.27689695358276367,-0.4435906667535587,0.5251709945819918,0.4930428933095561,0.5332274353077641,0.05992194494602958,-1.6086650615283467,-1.6915781655882665
1773062731763356928,2.2584478855133057,2.296259880065918,0.25867393612861633,0.6583195328712463,-0.9980422854423523,-0.05262487381696701,0.033800091594457626,-0.23346418142318726,0.3390323221683502,-0.2921314239501953,-0.453297277255626,0.5195734253862823,0.496934101669821,0.5268981449034906,0.05264919450436701,-1.6046497800359496,-1.6662295429191678
1773062731773394944,2.2684860229492188,2.263568162918091,-0.2347690463066101,0.38713011145591736,-0.9983012080192566,-0.04655006155371666,0.03504007309675217,-0.2014515995979309,0.09319618344306946,-0.17001938819885254,-0.4604241990807045,0.5158450332401278,0.5014219170445987,0.5200860939854076,0.046566888021331125,-1.6058816241737826,-1.6441126836467943
1773062731783431936,2.2785229682922363,2.906432628631592,-0.06065184995532036,0.450515478849411,-0.9984036087989807,-0.04181428253650665,0.03797518461942673,-0.2889500856399536,-0.23121125996112823,-0.13225924968719482,-0.4676024616314193,0.5112561043733048,0.5075478183202479,0.5122113516630042,0.04182647676997236,-1.6088139057361206,-1.6183423467103837
1773062731793469952,2.2885608673095703,3.0895726680755615,0.05659768357872963,0.9332266449928284,-0.9986677765846252,-0.03378474712371826,0.03900570422410965,-0.3108111023902893,-0.3417798578739166,-0.28758668899536133,-0.4771181173639828,0.5057866861673426,0.5135004183879115,0.5028474284897048,0.033791177185384894,-1.6098342208855292,-1.5881585250611903
1773062731803506944,2.298597812652588,2.375169277191162,0.21827606856822968,1.3472416400909424,-0.9990310072898865,-0.021107835695147514,0.038622964173555374,-0.2855760455131531,-0.17556272447109222,-0.12207329273223877,-0.4873952837137986,0.5016979684324403,0.5173109608078152,0.4930866754304384,0.021109404045929456,-1.609437507961721,-1.560464484332644
1773062731813543936,2.3086349964141846,1.0130130052566528,0.5903795957565308,1.332114338874817,-0.9993730783462524,-0.006701059639453888,0.03476729616522789,-0.3159041404724121,0.1580377221107483,0.2660750150680542,-0.4960777963743153,0.5000942595384382,0.517000367925884,0.48633657456108115,0.006701109617202984,-1.6055714103350582,-1.5440275958100755
1773062731823581952,2.3186728954315186,0.44169092178344727,0.4109874665737152,0.8210572004318237,-0.999563455581665,0.004514279309660196,0.02920030988752842,-0.35465407371520996,0.48642197251319885,0.49489331245422363,-0.5018174405084187,0.49995338602558415,0.5144383018610493,0.48330030652135186,-0.004514294478890602,-1.6000010823978499,-1.5378551856751779
1773062731833618944,2.328709840774536,0.6645306944847107,-0.1949814260005951,0.31215283274650574,-0.9995467662811279,0.010129974223673344,0.02835135906934738,-0.32226109504699707,0.5325793623924255,0.4016261100769043,-0.5047262012741291,0.4997675081786269,0.5142062983247166,0.480703502461571,-0.010130147919723224,-1.5991529384062717,-1.5324718217045847
1773062731843656960,2.338747978210449,0.20679430663585663,0.7177605628967285,0.32600870728492737,-0.9995614290237427,0.01310998760163784,0.02655322104692459,-0.17907315492630005,0.4107334017753601,0.37336432933807373,-0.5070371517296095,0.4988884434766504,0.5141856977559638,0.4792042694066078,-0.013110363126008483,-1.5973549522784067,-1.5278322411999425
1773062731853693952,2.348784923553467,0.16941994428634644,-0.18875494599342346,0.31514352560043335,-0.9996219277381897,0.016730476170778275,0.021815381944179535,-0.30167800188064575,0.32834702730178833,-0.09669029712677002,-0.5094820415381773,0.49829609442236816,0.5124536012341108,0.4790827361854855,-0.016731256658585072,-1.5926164963344744,-1.5264140756001618
1773062731863731968,2.358822822570801,0.9523602724075317,-1.1116656064987183,-0.3076574504375458,-0.9994338154792786,0.017211396247148514,0.028905371204018593,-0.7175917625427246,0.029556790366768837,-0.7323508262634277,-0.5089731660410791,0.49882281076433477,0.5153915879102409,0.47591332989490076,-0.01721224684702178,-1.5997100123942922,-1.5214043153396728
1773062731873768960,2.3688600063323975,0.9876357316970825,-2.6198627948760986,-0.806272029876709,-0.9987531900405884,0.011728090234100819,0.04852496460080147,-0.9724992513656616,-0.30732136964797974,-0.5177937746047974,-0.5051929213429344,0.49915393104274663,0.5245072314591178,0.4695931201309513,-0.011728359421741205,-1.6193436938819616,-1.5100995875975816
1773062731883805952,2.378896951675415,-0.08936154842376709,-0.4952091574668884,-0.7359307408332825,-0.9977719187736511,0.003712889039888978,0.06661520898342133,-0.7655947804450989,-0.29683423042297363,0.644245982170105,-0.4995526860336971,0.5001140579404045,0.5321593135928665,0.4659824043842386,-0.003712897538494859,-1.6374613594329224,-1.5052563143291673
1773062731893843968,2.388934850692749,-0.2681615352630615,2.0446038246154785,0.24133390188217163,-0.9984195828437805,0.0006462994497269392,0.05619782581925392,-0.5331509709358215,-0.003789637004956603,1.2681735754013062,-0.5009787253536981,0.49756585347853766,0.5296481229548363,0.4700229199925549,-0.0006462995157831443,-1.6270237782860706,-1.507741194006865
1773062731903880960,2.3989717960357666,-0.36479777097702026,0.5492814183235168,0.8342739343643188,-0.9990829229354858,0.006675985176116228,0.04229437932372093,-0.5357834100723267,0.01815003529191017,0.16566765308380127,-0.5054573061398999,0.49655846917860325,0.5240008359546465,0.4726158748860078,-0.006676034883610052,-1.613104266696708,-1.5106308541743199
1773062731913918976,2.4090099334716797,-0.650671660900116,-0.4799953103065491,0.4678521156311035,-0.999001145362854,0.013182228431105614,0.04269590228796005,-0.289969801902771,-0.14939741790294647,-0.10112178325653076,-0.50557939110984,0.4998052831832671,0.5210975244455616,0.47227270314339415,-0.013182610359773996,-1.613508926133656,-1.5164585254181362
1773062731923955968,2.4190468788146973,-1.1411436796188354,-1.5687493085861206,0.11754045635461807,-0.9984797239303589,0.015509814023971558,0.052893202751874924,-0.2121526002883911,0.021691087633371353,0.28109121322631836,-0.5015159065251228,0.504978059582307,0.5210026498500647,0.4712060913952387,-0.01551043606144287,-1.6237205973026436,-1.524850680552192
1773062731933993984,2.4290850162506104,-1.6200436353683472,-1.4913077354431152,-0.13428552448749542,-0.9974618554115295,0.014499534852802753,0.0697115883231163,-0.45117706060409546,0.6025506258010864,0.6071683168411255,-0.4934214095008599,0.5125162241094031,0.5217115255527541,0.4708286058934395,-0.014500042978498263,-1.6405718478981313,-1.5394928384220972
1773062731944030976,2.439121961593628,-0.6839710474014282,-0.34619930386543274,-0.536945104598999,-0.9968200325965881,0.010139754973351955,0.07903927564620972,-0.9206147789955139,1.0793683528900146,0.7408307790756226,-0.4870202289274193,0.5168223452141634,0.5219332347850777,0.47253756392919777,-0.01013992892453866,-1.6499221994677153,-1.551588331682334
1773062731954067968,2.4491589069366455,0.894965410232544,0.14889486134052277,-0.6960753202438354,-0.996881902217865,0.004020714201033115,0.07880520820617676,-1.3961234092712402,1.0092239379882812,0.33762240409851074,-0.48601701403619424,0.5147335960267481,0.5238815978405374,0.4736927757086414,-0.004020725115860133,-1.649683969351601,-1.5494655778469109
1773062731964105728,2.4591968059539795,0.8340024948120117,-0.2381439357995987,-1.2718095779418945,-0.9967590570449829,-0.004899319726973772,0.08029608428478241,-1.4949859380722046,0.6959698796272278,-0.05708742141723633,-0.48575930194690176,0.5102257234320416,0.528978027654031,0.47317003341392316,0.004899339141385666,-1.6511799124677355,-1.5392310459479064
1773062731974142976,2.469233989715576,0.4436214566230774,0.19216403365135193,-1.6325650215148926,-0.996586263179779,-0.01918516494333744,0.08029936999082565,-1.1890218257904053,0.3390856385231018,0.40123748779296875,-0.4839655672400415,0.5046167084790687,0.5343329118488178,0.4750029209833659,0.01918634180636765,-1.651197058085415,-1.5313104010477852
1773062731984180992,2.47927188873291,-0.6284159421920776,0.17096206545829773,-1.586431860923767,-0.9962994456291199,-0.035516150295734406,0.07826817780733109,-0.7934496402740479,-0.00017415732145309448,0.4160860776901245,-0.4804524997921283,0.499903682135668,0.537801448688136,0.47961575755236135,0.035523621878299855,-1.6491942028769209,-1.5306301249592522
1773062731994217984,2.4893088340759277,-1.4492690563201904,-0.09899631142616272,-1.325790286064148,-0.9956973195075989,-0.0510573647916317,0.07732948660850525,-0.47158777713775635,-0.326139897108078,0.27787983417510986,-0.4742614573220076,0.49846058186021347,0.5387038074549279,0.4862214098074036,0.05107957476850957,-1.6483043925661793,-1.5405006047003538
1773062732004254976,2.4993460178375244,-1.5695171356201172,-0.3885253071784973,-0.6863176822662354,-0.9949092268943787,-0.06263825297355652,0.07894251495599747,-0.3251437544822693,-0.5467519760131836,0.09071993082761765,-0.4672674465170646,0.49981003390618406,0.5382018077997879,0.4921278265200223,0.0626792884506295,-1.6499768821131626,-1.5547638923716165
1773062732014292992,2.5093839168548584,-2.4162895679473877,-0.493859201669693,0.12124358117580414,-0.9943624138832092,-0.06679143011569977,0.08235377818346024,-0.299399733543396,-0.45360955595970154,-0.12039399147033691,-0.46045416458727323,0.504812950053832,0.5351081887014688,0.4967947526389195,0.06684119054818469,-1.653428422421892,-1.5740859603425192
1773062732024329984,2.519420862197876,-2.641231060028076,0.08334926515817642,0.07998190075159073,-0.9942747354507446,-0.06730210036039352,0.08299338817596436,-0.4505035877227783,0.0009721666574478149,0.023528210818767548,-0.45348662035460446,0.5119326149887248,0.5286035298439729,0.5028449958463768,0.06735300882406434,-1.6540745533247583,-1.6007248303586208
1773062732034368000,2.529458999633789,-1.1848200559616089,0.3747234642505646,-0.6584336757659912,-0.9943161010742188,-0.07166028767824173,0.07874040305614471,-0.8503492474555969,0.380879670381546,-0.04231763631105423,-0.4484419291260377,0.5149573965458565,0.5236306713699656,0.5094404265973422,0.07172176233298402,-1.649821917915514,-1.6203653501155413
1773062732044404992,2.5394959449768066,0.3510533571243286,0.17575177550315857,-1.1861108541488647,-0.9937905669212341,-0.08145301789045334,0.07580117881298065,-1.112349510192871,0.42300575971603394,-0.48298192024230957,-0.4457660513229223,0.5125753820174269,0.5245636905686382,0.5132173972843702,0.08154335378882717,-1.646923720599924,-1.623245806360615
1773062732054443008,2.5495338439941406,0.7145898938179016,0.18326441943645477,-1.114657998085022,-0.9928858876228333,-0.09293089061975479,0.07444130629301071,-0.9785344004631042,0.3150378167629242,-0.6310819387435913,-0.44477974363474077,0.5075178984841777,0.5288158801982283,0.5147332682057596,0.09306517441024961,-1.645631000098615,-1.6160570834176669
1773062732064480000,2.5595710277557373,-0.5829653143882751,0.014404555782675743,-0.7337677478790283,-0.9920596480369568,-0.10184068977832794,0.07379814982414246,-0.6942958831787109,0.20460863411426544,-0.5756444931030273,-0.44303751447563533,0.5045597440304218,0.5313365581315511,0.5165449948154685,0.10201755681440099,-1.6450483834037526,-1.613831826032356
1773062732074516992,2.569607973098755,-1.999323844909668,-0.15543921291828156,-0.7216659188270569,-0.9912511706352234,-0.1099553108215332,0.07301382720470428,-0.4196680188179016,0.0870671272277832,-0.0748295783996582,-0.4375527768864184,0.5058335899300948,0.5297539928944507,0.5215752023695148,0.11017808550316192,-1.6443217973869648,-1.62698301469966
1773062732084555008,2.579645872116089,-2.1336023807525635,-0.03985828533768654,-0.532245397567749,-0.9904087781906128,-0.11803459376096725,0.07182066142559052,-0.31360727548599243,-0.16721318662166595,0.38196051120758057,-0.43006604432599116,0.5090613750565092,0.5260863508569418,0.5283302063606335,0.11831040916635821,-1.6431858000185042,-1.6479643874548693
1773062732094591744,2.5896828174591064,-1.975348711013794,0.1682051718235016,0.12052226811647415,-0.9901888370513916,-0.12173587083816528,0.06860434263944626,-0.1556699275970459,-0.3941485285758972,0.39939796924591064,-0.4244687025818763,0.5125952490415325,0.5211029485554431,0.5343446553537792,0.1220385732631532,-1.6399698853129827,-1.6682301239303121
1773062732104630016,2.5997209548950195,-2.18929386138916,0.19388070702552795,0.8049882054328918,-0.9908939599990845,-0.11832886934280396,0.06424395740032196,-0.0024988651275634766,-0.40574946999549866,0.3213456869125366,-0.420861943203346,0.5177686916750037,0.5138458515012381,0.5392153565867939,0.11860676184747877,-1.6355400484126548,-1.6895833094799562
1773062732114667008,2.609757900238037,-2.1808664798736572,0.20376010239124298,1.0371392965316772,-0.9921140074729919,-0.11019278317689896,0.059726402163505554,-0.04592609405517578,-0.19037482142448425,0.22443807125091553,-0.418188740705314,0.5243232136613831,0.5049241208866335,0.5433736358090598,0.11041701095380738,-1.6309249055111186,-1.7124691383151018
1773062732124704768,2.619795799255371,-1.6301848888397217,0.2931637465953827,0.7911324501037598,-0.9932445287704468,-0.10199835151433945,0.055332593619823456,-0.2907978296279907,0.09714604169130325,0.005153179168701172,-0.4161955233896388,0.5300999513800445,0.4966491100304268,0.5469140994543686,0.10217604065183453,-1.6264477361913496,-1.7325832856783059
1773062732134742016,2.6298329830169678,-0.7243039011955261,0.4284725785255432,0.35206854343414307,-0.9940145015716553,-0.09691178053617477,0.0504307821393013,-0.5893900394439697,0.31259477138519287,-0.1839909553527832,-0.41554233580901745,0.532961408099361,0.4910881073898779,0.5496445852200091,0.0970641236039519,-1.6214873184212693,-1.744802078167861
1773062732144779008,2.6398699283599854,0.005681879818439484,0.438348650932312,0.010223057121038437,-0.994388997554779,-0.095359206199646,0.04579511657357216,-0.779414713382721,0.388450026512146,-0.4300113916397095,-0.41618755959733045,0.5328856181943418,0.4888051516903577,0.5512625335147543,0.09550432015345668,-1.616817332635591,-1.748245452617933
1773062732154816768,2.6499078273773193,0.24394193291664124,0.5410832762718201,-0.1214260533452034,-0.9945297241210938,-0.09601873904466629,0.041120387613773346,-0.6809767484664917,0.3149976432323456,-0.46734416484832764,-0.4175909871911854,0.531038809743483,0.48842397258405185,0.5523201258108691,0.09616689624847818,-1.6121193550208568,-1.7466287001020924
1773062732164854016,2.659945011138916,0.19404228031635284,0.6233912110328674,0.06678779423236847,-0.9947091937065125,-0.09641747921705246,0.03545553982257843,-0.3610341548919678,0.13441187143325806,-0.286737322807312,-0.41948944386183484,0.5288198420472089,0.4879317005054919,0.5534444258971861,0.09656749337348834,-1.6064253689045627,-1.7443736171915796
1773062732174892032,2.66998291015625,0.0349397212266922,0.5890377163887024,0.4836723804473877,-0.9951665997505188,-0.09367682784795761,0.029460400342941284,-0.07001882791519165,-0.06576225161552429,-0.15381956100463867,-0.4220710745535505,0.5275131932526006,0.4862715609397955,0.5541892533475299,0.09381437758882333,-1.600391168886796,-1.7431952055306161
1773062732184928768,2.6800198554992676,-0.2761097848415375,0.4096837043762207,0.8351055383682251,-0.995913028717041,-0.08699604868888855,0.024266880005598068,0.08664184808731079,-0.20571330189704895,-0.13799059391021729,-0.42488440956688545,0.5279654299719012,0.48310034672064617,0.5543823448900635,0.08710615705394649,-1.5951579715166504,-1.7444983297316654
1773062732194967040,2.6900579929351807,-0.6340646743774414,0.12114817649126053,0.9699963331222534,-0.9967326521873474,-0.0779346227645874,0.02121717482805252,0.11237901449203491,-0.2546611726284027,-0.0655440092086792,-0.4268738438228389,0.5304038731902267,0.4788322445016609,0.5542292842307318,0.07801373372690078,-1.5920798380341603,-1.7492791739216988
1773062732205004032,2.7000949382781982,-0.8489453196525574,-0.032971348613500595,0.9018266201019287,-0.9974303245544434,-0.06867091357707977,0.020428096875548363,0.04093301296234131,-0.23757299780845642,-0.005047200247645378,-0.4274953876075991,0.5342392623271175,0.47413337637627034,0.5541062701201759,0.06872499909068074,-1.5912741889637747,-1.7572021266744025
1773062732215041024,2.710131883621216,-0.7823298573493958,0.0722096636891365,0.9019685387611389,-0.9980087876319885,-0.05989660695195198,0.019766177982091904,-0.0504530668258667,-0.19649681448936462,0.04816591739654541,-0.42781444250073164,0.538066001008582,0.46943377292104804,0.5541584897442221,0.05993248093287288,-1.5905993522606887,-1.7655866698511702
1773062732225079040,2.720170021057129,-0.7943340539932251,0.14437733590602875,0.9377531409263611,-0.9985425472259521,-0.050796642899513245,0.018242698162794113,-0.0923846960067749,-0.11784350872039795,-0.012535927817225456,-0.4284978869139154,0.5416242986876203,0.46450454002322694,0.5543179150041485,0.05081851178277354,-1.5890636188525333,-1.7736962167731911
1773062732235116032,2.7302069664001465,-0.8520928621292114,0.28416332602500916,0.883013904094696,-0.9990054965019226,-0.04171827435493469,0.015735944733023643,-0.10566979646682739,-0.013335440307855606,-0.022037863731384277,-0.42932971056046887,0.5449166178461269,0.459275355521635,0.5548044929041984,0.041730384476063184,-1.5865466346377453,-1.7820305251976372
1773062732245153792,2.7402448654174805,-0.9720269441604614,0.28299713134765625,0.7460227608680725,-0.9993559122085571,-0.03366291895508766,0.012425837107002735,-0.09183049201965332,0.049989841878414154,-0.025044800713658333,-0.4297829382321126,0.5479266075235728,0.45386049761032515,0.5559438835854178,0.03366928166516939,-1.583229531922832,-1.7912971278316432
1773062732255190784,2.750281810760498,-1.0318646430969238,0.21436746418476105,0.6300525069236755,-0.9995916485786438,-0.02690041996538639,0.009626422077417374,-0.03966909646987915,0.06658855080604553,-0.03623771667480469,-0.42947767366448847,0.5509597701232963,0.44861625312740827,0.5574366259606768,0.026903665672195837,-1.58042638347231,-1.8015048239969718
1773062732265229056,2.760319948196411,-0.9869291186332703,0.1753913015127182,0.5639302134513855,-0.9997508525848389,-0.021047120913863182,0.007451336365193129,0.044001221656799316,0.049535252153873444,-0.06548047065734863,-0.42875950327928497,0.5539270340740953,0.44372346022560644,0.5589630996592958,0.021048675696811348,-1.5782493822590271,-1.8117229910130088
1773062732275266048,2.7703568935394287,-0.8875787854194641,0.1691516637802124,0.5502041578292847,-0.9998637437820435,-0.015548286959528923,0.005537021905183792,0.12194937467575073,0.0127254081889987,-0.09383964538574219,-0.4280810780020384,0.5566875996997348,0.4391667418888805,0.5603374473484021,0.015548913173516163,-1.5763340463254147,-1.821192955167687
1773062732285302784,2.7803938388824463,-0.8695257902145386,0.22993963956832886,0.5777382850646973,-0.9999443292617798,-0.009949691593647003,0.0034894084092229605,0.17264342308044434,-0.0431966558098793,-0.11687743663787842,-0.4276651990131346,0.5592322621535379,0.43474588118613344,0.5615671893935901,0.009949855990561318,-1.574285915320709,-1.8298951564707293
1773062732295341056,2.7904319763183594,-1.0571850538253784,0.2823904752731323,0.6070318818092346,-0.9999917149543762,-0.004014675505459309,0.0008112047798931599,0.22598952054977417,-0.08021385222673416,-0.039980530738830566,-0.42721788952030404,0.5618338516299994,0.4298235981827493,0.5630980036760623,0.004014686214851785,-1.571607538133153,-1.839493295120413
1773062732305378048,2.800468921661377,-1.2319304943084717,0.33359748125076294,0.585635244846344,-0.9999954700469971,0.0020493660122156143,-0.0022420205641537905,0.27471470832824707,-0.06659406423568726,0.08601278066635132,-0.4263181418496345,0.564736661111724,0.4242068992059961,0.5651317822825542,-0.0020493674238781408,-1.568554299860659,-1.851054136090451
1773062732315415808,2.810506820678711,-1.302709937095642,0.39307305216789246,0.4840489625930786,-0.9999544024467468,0.0074965618550777435,-0.005911221727728844,0.3115847110748291,-0.029545508325099945,0.1277526617050171,-0.4249938790289889,0.5675514392260624,0.4182460435998533,0.567746211421797,-0.0074966322360213705,-1.5648849042554527,-1.8638833004065833
1773062732325453056,2.8205440044403076,-1.137602686882019,0.42643311619758606,0.4687986373901367,-0.9998757243156433,0.012317398563027382,-0.00983213260769844,0.35581761598587036,0.00480298325419426,0.16284728050231934,-0.4236992163892697,0.5699779792291233,0.4125639789225856,0.5704340076869928,-0.012317709952569054,-1.560963288605355,-1.8760787395218548
1773062732335490816,2.8305819034576416,-0.9499584436416626,0.38690105080604553,0.4236113131046295,-0.9997602701187134,0.016982518136501312,-0.013816218823194504,0.42989033460617065,0.02446034364402294,0.151877760887146,-0.42281388108769613,0.5719726685450872,0.4073563020695102,0.5728319983021835,-0.01698333507217561,-1.556977674580721,-1.886644998204859
1773062732345527808,2.840618848800659,-0.48883211612701416,0.36789965629577637,0.39671391248703003,-0.9996241331100464,0.021180929616093636,-0.017403502017259598,0.43500322103500366,-0.019868673756718636,0.04781430959701538,-0.4226831409297941,0.5732520061219554,0.4033365677158853,0.5744916585814157,-0.021182513536075247,-1.5533880403047695,-1.893770419699083
1773062732355564800,2.8506557941436768,-0.3047853112220764,0.3593681752681732,0.3495844602584839,-0.9994668364524841,0.025033380836248398,-0.020954953506588936,0.4084635376930237,-0.0688718631863594,-0.10973656177520752,-0.42341066226358,0.5737698374251193,0.4003881831820904,0.575500442430345,-0.02503599592135231,-1.5498332669576502,-1.8975031567581573
1773062732365603072,2.86069393157959,-0.20343419909477234,0.4385029673576355,0.236353799700737,-0.9992967844009399,0.028071047738194466,-0.024861959740519524,0.36994796991348267,-0.08152260631322861,-0.06342542171478271,-0.424325360562542,0.5737640801112226,0.3979494947518754,0.5765232250057505,-0.028074736030654725,-1.54592200204997,-1.9000066632753785
1773062732375639296,2.87073016166687,-0.10860919207334518,0.5823683738708496,0.08656816184520721,-0.9991106986999512,0.02973591722548008,-0.02989821694791317,0.3351243734359741,-0.07813683152198792,0.0068421922624111176,-0.4253624428597247,0.5729455691691377,0.39595992962855164,0.5779412294117192,-0.029740300750466204,-1.540880424542035,-1.9015002603081899
1773062732385677056,2.880768060684204,0.04212040454149246,0.7065971493721008,-0.051340971142053604,-0.9988910555839539,0.029912589117884636,-0.036361660808324814,0.3439074158668518,-0.055059097707271576,0.0039672814309597015,-0.4265770128118095,0.5711863575365538,0.3944176905066484,0.5798387878110419,-0.029917051781092,-1.5344103641319125,-1.9018917574417553
1773062732395714304,2.890805244445801,0.26480257511138916,0.8565845489501953,-0.13509471714496613,-0.9986045360565186,0.028865737840533257,-0.04422401264309883,0.39733195304870605,-0.019893554970622063,-0.008846044540405273,-0.42825903523996606,0.568397747327735,0.39346155462193033,0.5819846931569498,-0.02886974767563655,-1.526539432175609,-1.9004329740222967
1773062732405752064,2.9008431434631348,0.5289630889892578,0.9680386185646057,-0.16848649084568024,-0.9981975555419922,0.027128329500555992,-0.053532276302576065,0.4700450897216797,-0.02105534076690674,-0.008281052112579346,-0.43074114474025965,0.5645577561692703,0.3930755667723789,0.5841474487131126,-0.02713165796679579,-1.5172187125466152,-1.8965523817363654
1773062732415789056,2.9108800888061523,0.746575653553009,0.9635130763053894,-0.17374810576438904,-0.9976693391799927,0.02505013719201088,-0.06347020715475082,0.5433846712112427,-0.04857919365167618,0.023705780506134033,-0.4339823341239516,0.5599632313694992,0.39332693437235283,0.5859987244073163,-0.025052757318076747,-1.5072634707375763,-1.8902049591211683
1773062732425826304,2.920917272567749,0.9284072518348694,0.8583062291145325,-0.2336452603340149,-0.9970943927764893,0.0224545169621706,-0.07279153913259506,0.5969173908233643,-0.07743194699287415,0.03151649236679077,-0.4375279692124597,0.5550520596586719,0.39436206887185665,0.5873372737092164,-0.022456403544184142,-1.497921946440689,-1.8819665917311295
1773062732435864320,2.930955171585083,1.163342833518982,0.7205884456634521,-0.29403629899024963,-0.9965351819992065,0.0189861711114645,-0.08097785711288452,0.6085803508758545,-0.13420531153678894,0.015914373099803925,-0.4412231814461311,0.5498693552579583,0.39642750155652445,0.5880571353267913,-0.018987311610501104,-1.4897150722434525,-1.871705203218692
1773062732445901056,2.9409921169281006,1.3392281532287598,0.5266956686973572,-0.36443403363227844,-0.9960655570030212,0.014647993259131908,-0.08740005642175674,0.6042962074279785,-0.21679642796516418,0.029874391853809357,-0.44494212834239444,0.5445919049305381,0.3996493818692542,0.5879851073137422,-0.014648517014995475,-1.4832751962015784,-1.8594315954911025
1773062732455939328,2.9510302543640137,1.5541402101516724,0.5013779401779175,-0.42384079098701477,-0.995660126209259,0.00938321091234684,-0.09258999675512314,0.591729462146759,-0.2769308388233185,0.15710413455963135,-0.4487201601664804,0.5390694645878326,0.4038676934227588,0.5873203895713606,-0.009383348604443323,-1.478069430552667,-1.8453259263048363
1773062732465976320,2.9610671997070312,1.6015005111694336,0.5301815867424011,-0.39139682054519653,-0.9951896071434021,0.0037254258058965206,-0.09789764881134033,0.5715750455856323,-0.26701584458351135,0.20383942127227783,-0.45286210794806464,0.5330788961445068,0.4085071169850602,0.5863998686001478,-0.003725434394187157,-1.472740945901666,-1.829758621544911
1773062732476013056,2.971104145050049,1.3399913311004639,0.4617048501968384,-0.33578574657440186,-0.9946905374526978,-0.0013629388995468616,-0.1029026210308075,0.552612841129303,-0.19071470201015472,0.2001316398382187,-0.45678879278271123,0.5274772512683455,0.41269412069486555,0.5854872996111625,0.0013629393496260534,-1.4677111366848312,-1.8152800796631678
1773062732486051072,2.981142044067383,1.1198171377182007,0.5026274919509888,-0.3887706696987152,-0.9941840767860413,-0.006205983459949493,-0.10751524567604065,0.5249763131141663,-0.0862622931599617,0.24659913778305054,-0.4599206631031427,0.5225645388957488,0.41613540949360256,0.5850048216054183,0.006206023339901431,-1.463070777651461,-1.8035040550322272
1773062732496088320,2.9911792278289795,0.9880191087722778,0.7623357772827148,-0.4971437454223633,-0.9934436082839966,-0.01179593987762928,-0.1137135773897171,0.4737292528152466,-0.011565272696316242,0.2063649296760559,-0.46269831590282057,0.5173382246525228,0.4189324217569431,0.5854631503898188,0.011796213860014436,-1.4568282883578738,-1.7934588849682132
1773062732506126080,3.0012171268463135,0.7773750424385071,0.8345431089401245,-0.5877892374992371,-0.9923902153968811,-0.018290352076292038,-0.12176674604415894,0.4308362603187561,0.011790106073021889,0.06318825483322144,-0.4651211402565114,0.5116982873679068,0.42104808692229045,0.5869801450528485,0.0182913724494892,-1.448706123816248,-1.785233222204026
1773062732516163072,3.011254072189331,0.4735705554485321,0.7119502425193787,-0.6517552733421326,-0.9912852048873901,-0.025240520015358925,-0.12929242849349976,0.42767131328582764,-0.01653803512454033,-0.015696585178375244,-0.46653950831944035,0.5066419508645964,0.42269104178687106,0.5890561230940325,0.02524320020540472,-1.4410993836802692,-1.7797254624609045
1773062732526201344,3.021292209625244,0.25035718083381653,0.664033830165863,-0.7506642937660217,-0.9901772141456604,-0.0326371043920517,-0.13595589995384216,0.4535256028175354,-0.0641188845038414,0.02046215534210205,-0.4667985820427299,0.5023313325760173,0.42389300449571654,0.5916731429063632,0.03264290177540413,-1.4343449252894978,-1.7771955758739069
1773062732536238080,3.0313291549682617,0.35388249158859253,0.6589187979698181,-0.812627911567688,-0.9889611005783081,-0.040853049606084824,-0.14243248105049133,0.4604576826095581,-0.12430807948112488,0.046820878982543945,-0.46657931145070264,0.4980170084487793,0.42516211092970224,0.5945754607031767,0.04086442248084137,-1.4277575762862353,-1.7754739484356403
1773062732546275072,3.0413661003112793,0.5323611497879028,0.6035447716712952,-0.7447450160980225,-0.9876689314842224,-0.04933902248740196,-0.14857855439186096,0.48245054483413696,-0.18369320034980774,0.025318041443824768,-0.46671203240635806,0.4933585163537055,0.42697552675198186,0.5970503002145198,0.04935906106270828,-1.4214823923647022,-1.7721409404180186
1773062732556313344,3.0514042377471924,0.38412585854530334,0.4024369716644287,-0.5185851454734802,-0.9865558743476868,-0.056434426456689835,-0.15337058901786804,0.536833643913269,-0.20496387779712677,0.07660366594791412,-0.4671044280001962,0.4892939537252229,0.4288427807518961,0.5987476002708946,0.05646442580633188,-1.4165702418921722,-1.7682030732284033
1773062732566350336,3.06144118309021,-0.3369252681732178,0.158479705452919,-0.29532432556152344,-0.9858925342559814,-0.06042635813355446,-0.15609154105186462,0.600104570388794,-0.13995206356048584,0.244012713432312,-0.46661806636538194,0.48750194829808186,0.42929719700050817,0.6002610711588289,0.06046319116922107,-1.4137745835654412,-1.7683811454473448
1773062732576388096,3.071479082107544,-0.8539313673973083,0.01212382409721613,-0.2988458275794983,-0.9855949282646179,-0.06222395598888397,-0.1572607457637787,0.5987846255302429,-0.01698444038629532,0.4223669171333313,-0.4643659780520107,0.4881499106099697,0.42787765712969195,0.6024904181191811,0.06226417919761873,-1.4125708811456792,-1.7751796491103573
1773062732586425344,3.0815162658691406,-0.6562816500663757,-0.12315011769533157,-0.424947053194046,-0.9854452610015869,-0.06457933783531189,-0.15724816918373108,0.48831403255462646,0.03427541255950928,0.2957063913345337,-0.4611959256096005,0.48937395557214136,0.42648452091715233,0.6049151411151584,0.06462431186788896,-1.4125596993256775,-1.783659588488034
1773062732596463104,3.0915541648864746,-0.15251609683036804,-0.1352568417787552,-0.46764522790908813,-0.9853619933128357,-0.0685376226902008,-0.15609121322631836,0.3773907423019409,-0.024632558226585388,0.0004515647888183594,-0.4585035364893518,0.4897358392317483,0.4267472290840599,0.6064817919884988,0.06859139188171866,-1.413691728925715,-1.788338334566575
1773062732606500096,3.101591110229492,-0.07417309284210205,-0.047735512256622314,-0.42493557929992676,-0.9851757884025574,-0.07290462404489517,-0.1552853286266327,0.32659125328063965,-0.12651246786117554,-0.148196741938591,-0.4567497790163139,0.4892017395700759,0.4278305665505301,0.6074720175378139,0.072969359289106,-1.4144606096385064,-1.7898021972659974
1773062732616537088,3.1116280555725098,-0.3617757260799408,-0.021201241761446,-0.31514742970466614,-0.9849375486373901,-0.07630524784326553,-0.15516212582588196,0.30404478311538696,-0.20497523248195648,-0.05356279015541077,-0.45502792592816527,0.4889552692793655,0.4281841690125415,0.6087121930458769,0.07637948743934785,-1.4145454727021232,-1.7924637985333403
1773062732626575104,3.121666193008423,-0.5621317028999329,-0.10070245712995529,-0.2238052934408188,-0.9848185181617737,-0.07815299183130264,-0.1549980789422989,0.30879324674606323,-0.25673162937164307,0.12318356335163116,-0.4528984748041183,0.4896731533467178,0.4274589571450557,0.6102310296364497,0.07823276826424665,-1.4146894265724526,-1.7977513380557206
1773062732636612096,3.1317031383514404,-0.27704814076423645,-0.06951284408569336,-0.1826344132423401,-0.9848232269287109,-0.0794830471277237,-0.15428999066352844,0.3230801820755005,-0.2792052924633026,0.22867663204669952,-0.45095771827573067,0.4905656736763458,0.4268492967690409,0.6113771337834903,0.07956697406703199,-1.415391862350839,-1.8024628065286767
1773062732646650368,3.1417412757873535,-0.038816388696432114,-0.006965847685933113,-0.1268094927072525,-0.9847198724746704,-0.08084508031606674,-0.1542431265115738,0.3172699213027954,-0.24502162635326385,0.1507488489151001,-0.45011346929720186,0.49057197670265945,0.42686950131439705,0.6119799913058307,0.08093340494067533,-1.4154222671231431,-1.8040221895623356
1773062732656687360,3.151778221130371,-0.09227997064590454,-0.24542076885700226,-0.08786049485206604,-0.9848212599754333,-0.08177021890878677,-0.15310387313365936,0.27971261739730835,-0.16484232246875763,0.022763311862945557,-0.44938728793853167,0.4908591356005766,0.4272064742092222,0.6120482230229021,0.08186161496309281,-1.4165673160257704,-1.8047938101233278
1773062732666724096,3.1618151664733887,-0.09341926872730255,-0.3171692490577698,-0.1610923707485199,-0.9851716756820679,-0.08278708904981613,-0.1502768099308014,0.21969926357269287,-0.08907265216112137,0.037209153175354004,-0.4481351797672434,0.4917420844508035,0.42784497215860173,0.6118114969043446,0.08288195009099034,-1.419424476683736,-1.8060062654909765
1773062732676762112,3.1718530654907227,0.06728918850421906,-0.3253158628940582,-0.286236435174942,-0.985455334186554,-0.08498591184616089,-0.1471569538116455,0.12415778636932373,-0.036214642226696014,0.005387544631958008,-0.44671288949570165,0.4922754790309723,0.42905287911797974,0.6115767350134736,0.08508855181804185,-1.4225627822331501,-1.8065413878311989
1773062732686799360,3.1818902492523193,0.09722631424665451,-0.21583756804466248,-0.398726224899292,-0.985578715801239,-0.08853714168071747,-0.14420785009860992,0.018888652324676514,-0.014627546072006226,-0.07985222339630127,-0.4453056018037661,0.492178247359597,0.4308789264933819,0.6113975042805994,0.08865322047163776,-1.4255093449983502,-1.805965702558902
1773062732696837120,3.1919281482696533,-0.07247013598680496,-0.0018861335702240467,-0.5236220955848694,-0.9853075742721558,-0.09313545376062393,-0.1431606560945511,-0.02459549903869629,-0.013767659664154053,-0.0761997252702713,-0.4436660189292316,0.49148435424110665,0.4322763041105495,0.6121608551742406,0.09327062478289187,-1.4265106060247985,-1.8065860529655098
1773062732706874112,3.201965093612671,0.02099563367664814,-0.0007433712016791105,-0.5650337338447571,-0.9847393035888672,-0.09854075312614441,-0.14345133304595947,-0.014604568481445312,-0.05111745744943619,-0.027508139610290527,-0.4419233525946427,0.4902945403320111,0.43345772018853207,0.613538464468144,0.09870093136373619,-1.426139425026155,-1.8077875592885821
1773062732716912384,3.212003231048584,0.07358716428279877,-0.2667008936405182,-0.5348796844482422,-0.9843747615814209,-0.10403931885957718,-0.14206385612487793,0.0424039363861084,-0.09342466294765472,-0.07509921491146088,-0.4400874742336579,0.48938363129202467,0.4352835070355798,0.6142922018815237,0.10422792568770568,-1.427467063301703,-1.8079919385728616
1773062732726949120,3.2220401763916016,0.0917978584766388,-0.3724707067012787,-0.5942698121070862,-0.9842501282691956,-0.10967666655778885,-0.13864630460739136,0.09551721811294556,-0.08858079463243484,0.0008441805839538574,-0.43780903686097156,0.4890308915686721,0.43763642233185673,0.6145294623017539,0.10989774505030706,-1.4308522124712943,-1.808028358402394
1773062732736987136,3.2320780754089355,0.3900129497051239,-0.31629958748817444,-0.6980515718460083,-0.9840051531791687,-0.11634624004364014,-0.13489916920661926,0.04914480447769165,-0.05658165365457535,0.04909901320934296,-0.43555464380819703,0.48823830175834954,0.4406515376233231,0.6146071371366446,0.11661033850614932,-1.4345536815890398,-1.8068062792482273
1773062732747024384,3.2421152591705322,0.8661030530929565,-0.082818403840065,-0.7479272484779358,-0.9833868145942688,-0.12441237270832062,-0.13218098878860474,-0.03063589334487915,-0.01732649654150009,-0.06400124728679657,-0.4344259935880288,0.4858292271142003,0.4448364520890249,0.614299998391816,0.12473558209308304,-1.4371831252118368,-1.8013996128854657
1773062732757061120,3.25215220451355,0.9485698342323303,-0.0023673668038100004,-0.7900398969650269,-0.9824458956718445,-0.1331552267074585,-0.13065111637115479,-0.06915926933288574,0.04686678946018219,-0.2594856023788452,-0.4342753119921806,0.482185279542742,0.44963518691320525,0.6137837646193803,0.13355188371627713,-1.4385865190780565,-1.7930507839857368
1773062732767099136,3.262190103530884,0.9772800207138062,0.11737794429063797,-0.9844765067100525,-0.9811626076698303,-0.14309152960777283,-0.12978830933570862,-0.02291160821914673,0.10003121197223663,-0.1600828915834427,-0.43397095533317365,0.47795721643139916,0.454601742020433,0.6136477089750957,0.14358439442812665,-1.439279749985601,-1.7846187390590456
1773062732777136128,3.2722270488739014,1.0632244348526,0.21120430529117584,-1.1465299129486084,-0.9793146848678589,-0.15501536428928375,-0.13005104660987854,0.042653799057006836,0.04652532935142517,0.03314243257045746,-0.43350851054361544,0.47270285761863856,0.45992008431979897,0.6140814569576821,0.15564300881350118,-1.4387707932069225,-1.7757772703403851
1773062732787174144,3.2822651863098145,1.3127567768096924,0.026130853220820427,-1.0778088569641113,-0.9773198366165161,-0.16765323281288147,-0.12937720119953156,0.09806263446807861,-0.07627376914024353,0.08151036500930786,-0.4330878677049169,0.46713112133279105,0.4659398169373941,0.6141038562851074,0.16844872611237743,-1.4391819860750688,-1.7654304055082202
1773062732797211136,3.292302131652832,1.3244354724884033,-0.10178782790899277,-0.7876735925674438,-0.9757260680198669,-0.1786162406206131,-0.12670837342739105,0.12897008657455444,-0.1722901314496994,-0.010254502296447754,-0.4332721328866285,0.4620712464328005,0.4723727075230103,0.6128862034033814,0.17957989667711377,-1.4416584012318951,-1.752995161008813
1773062732807248128,3.3023390769958496,0.8389177322387695,-0.23559249937534332,-0.5995018482208252,-0.9747124314308167,-0.18662942945957184,-0.12290281802415848,0.13694387674331665,-0.16978536546230316,-0.02341371774673462,-0.4332811052810029,0.4586359398255479,0.47770458146371886,0.6113255233075914,0.18773017502425665,-1.445366910491997,-1.7427814061335913
1773062732817286144,3.3123772144317627,0.43576741218566895,-0.04520511254668236,-0.6967771053314209,-0.9736851453781128,-0.19357334077358246,-0.12027697265148163,0.09789168834686279,-0.12290918827056885,0.16616016626358032,-0.43240361891396145,0.4562228703162635,0.48137532960332036,0.6108727881537579,0.19480307579506836,-1.4478913614622928,-1.7373094087915402
1773062732827323136,3.3224141597747803,0.3918803930282593,-0.005367950536310673,-0.8572589159011841,-0.9721389412879944,-0.20169387757778168,-0.11943823844194412,0.004487574100494385,-0.11687912046909332,0.13277441263198853,-0.4308764408337366,0.45349802345376766,0.4843763253267036,0.6116082443063195,0.2030870351132289,-1.4485477000539932,-1.7343200020845615
1773062732837361152,3.3324520587921143,0.600512683391571,-0.06910232454538345,-0.9029602408409119,-0.9703445434570312,-0.21097460389137268,-0.11798789352178574,-0.04628753662109375,-0.14023692905902863,-0.10132670402526855,-0.4291393570334672,0.4504008559914863,0.48800114907117076,0.612236340902237,0.2125719029622068,-1.449796508340753,-1.7304402162264376
1773062732847398400,3.342489242553711,0.7236095666885376,-0.10656660795211792,-0.8037681579589844,-0.968579888343811,-0.2201491892337799,-0.1157032698392868,0.0071389079093933105,-0.143605038523674,-0.2182352989912033,-0.42781797110288766,0.4470796027673018,0.49220747193462944,0.6122281706508228,0.22196740302833973,-1.4519031111284844,-1.7245663322983005
1773062732857436160,3.352527141571045,0.5864540338516235,-0.11451094597578049,-0.7310194373130798,-0.9670012593269348,-0.22830232977867126,-0.11307791620492935,0.06682425737380981,-0.10191312432289124,-0.14861029386520386,-0.4266535991959639,0.444145418699747,0.4961813071138006,0.611968657655154,0.23033360829289995,-1.4543883193085407,-1.7187710686905295
1773062732867473152,3.3625640869140625,0.8604416251182556,0.11386284232139587,-0.759390115737915,-0.9652637243270874,-0.23636280000209808,-0.11134855449199677,0.07447093725204468,-0.04648935794830322,-0.008554987609386444,-0.4258725232617305,0.4408103532599989,0.5000119545872691,0.6118062084941092,0.238620872032233,-1.4559483770670376,-1.712513583319197
1773062732877510400,3.372601270675659,1.1565712690353394,0.04885281249880791,-0.7226857542991638,-0.9633462429046631,-0.24469971656799316,-0.10993574559688568,0.03860270977020264,-0.0009515136480331421,-0.12677383422851562,-0.42613851449958484,0.43639486479369377,0.5045707576151004,0.6110431680243693,0.24720997464645972,-1.457169264323729,-1.702809612549019
1773062732887548160,3.382639169692993,1.2502604722976685,-0.15244141221046448,-0.7708733081817627,-0.9615660905838013,-0.253165066242218,-0.10629278421401978,0.05517876148223877,0.06012612581253052,-0.22068780660629272,-0.42631756457390274,0.43214093917054297,0.5100076643204485,0.6094257538410347,0.25595050681584225,-1.4607019856227788,-1.6912947704054768
1773062732897585152,3.3926761150360107,1.2735971212387085,-0.1789582520723343,-0.8621509671211243,-0.9596160650253296,-0.2623939514160156,-0.10142265260219574,0.07448422908782959,0.07271194458007812,-0.08566534519195557,-0.42615369065350084,0.4277963573779441,0.5160222392218964,0.6075396662523584,0.2655022625374175,-1.465496389733535,-1.6790204791591525
1773062732907623168,3.402714252471924,1.1588478088378906,-0.30353477597236633,-0.9006237983703613,-0.9574726819992065,-0.2721496820449829,-0.09581459313631058,0.035964012145996094,0.033197104930877686,-0.024378880858421326,-0.4254059095313653,0.42362841946225366,0.5221414229603318,0.6057532662852307,0.275626329214834,-1.4710580565250477,-1.6673825428264415
