time,seconds_elapsed,rotationRateX,rotationRateY,rotationRateZ,gravityX,gravityY,gravityZ,accelerationX,accelerationY,accelerationZ,quaternionW,quaternionX,quaternionY,quaternionZ,pitch,roll,yaw
1773063778793277952,0.03938794136047363,-0.15955358743667603,-0.0393311083316803,0.00982704572379589,0.21552607417106628,0.4524500370025635,0.8653542995452881,0.0066419243812561035,0.004688143730163574,0.02095264196395874,0.2576143398601656,-0.915199825679311,0.3083608535867472,0.03094937392423384,-0.46951076764288363,2.8974978654779933,2.432965869207646
1773063778803314944,0.04942488670349121,-0.16543206572532654,-0.03928477317094803,0.030906764790415764,0.21592111885547638,0.4509466886520386,0.866040050983429,0.0036528557538986206,-0.014072299003601074,0.03235173225402832,0.2568936612913116,-0.915379597478692,0.3083832256093527,0.03139556691881517,-0.46782572318422977,2.8972540806130502,2.4332001156466156
1773063778813352960,0.0594630241394043,-0.12275678664445877,-0.022431755438447,0.04964636266231537,0.21642668545246124,0.44958844780921936,0.8666194081306458,-0.00490938127040863,-0.010745793581008911,0.017749249935150146,0.2562735572352252,-0.9154983811354588,0.3085002854698905,0.03184371939021676,-0.46630455676719773,2.8968618141774938,2.4331515236432937
1773063778823389952,0.06949996948242188,-0.09509577602148056,0.016165703535079956,0.07577037066221237,0.21671979129314423,0.44848963618278503,0.8671156167984009,0.003510311245918274,-0.0014681816101074219,-0.014546096324920654,0.2557571657730541,-0.9155423842914164,0.30877169510365315,0.03210044803420624,-0.4650747699621497,2.896678160839173,2.4327637976257392
1773063778833426944,0.07953691482543945,-0.07167540490627289,0.0033780033700168133,0.08922705799341202,0.21700423955917358,0.4475986063480377,0.8675045371055603,0.006262332201004028,0.0058467090129852295,-0.020855605602264404,0.25535352705164505,-0.9155151957155159,0.3091669484826513,0.032282640291790086,-0.46407812338408994,2.896475017438785,2.432051285511845
1773063778843465216,0.08957505226135254,-0.08715613931417465,-0.029490597546100616,0.06608805805444717,0.21746358275413513,0.4467240571975708,0.8678405284881592,0.009007349610328674,0.007530093193054199,-0.013867199420928955,0.2549886288813665,-0.915495663159174,0.3094963065055687,0.03256569410708523,-0.4631003482973776,2.896068077367402,2.4314223715928147
1773063778853501952,0.09961199760437012,-0.12701460719108582,-0.03202912211418152,0.04360511898994446,0.21800412237644196,0.44567984342575073,0.8682417869567871,0.004560574889183044,0.0008991360664367676,-0.005998134613037109,0.25454462423278373,-0.9155417353923517,0.30968407749725835,0.03295714774589593,-0.4619335588241936,2.895591306946111,2.4311229211683645
1773063778863539968,0.1096498966217041,-0.16686907410621643,-0.02608441561460495,0.025783507153391838,0.21838442981243134,0.44430580735206604,0.8688499331474304,-0.012085631489753723,0.0006556808948516846,0.0007787942886352539,0.2538949740976042,-0.9156722794984298,0.3097890237508153,0.03335073112171856,-0.46039922540537487,2.895344885080038,2.4311450572134965
1773063778873577216,0.11968708038330078,-0.17530223727226257,-0.03974323347210884,0.021089952439069748,0.21878348290920258,0.44276994466781616,0.8695338368415833,-0.0276213139295578,-0.0029962360858917236,0.00938791036605835,0.25316143197551755,-0.9158476546032646,0.30982253183012554,0.03380106555271273,-0.45868559062751485,2.8950991939736475,2.4313611381745397
1773063778883613952,0.12972402572631836,-0.1675143539905548,-0.0242252629250288,-0.0056279441341757774,0.21906951069831848,0.44122040271759033,0.8702486753463745,-0.029219716787338257,-0.009045809507369995,0.010564744472503662,0.2523980943783144,-0.9160535248710037,0.3097907222619322,0.03421652765909428,-0.4569581527083039,2.894984461927518,2.4317580812141517
1773063778893651968,0.13976192474365234,-0.1417275071144104,-0.028539050370454788,-0.004096093587577343,0.21929647028446198,0.4398827850818634,0.8708686232566833,-0.021206900477409363,-0.006899386644363403,0.0026512742042541504,0.25173340070462685,-0.9162537182364379,0.3096989385450313,0.03458285726511779,-0.4554681431992255,2.8949078938847363,2.432246992286479
1773063778903688960,0.14979887008666992,-0.12279695272445679,-0.0033772375900298357,0.006352818571031094,0.2194381058216095,0.4386928677558899,0.8714331388473511,-0.02249288558959961,-0.006457090377807617,-0.0051152706146240234,0.25113324355464145,-0.9164182300686629,0.3096679000077291,0.034865247538037554,-0.45414358571487606,2.8949084676542856,2.432589756563588
1773063778913726208,0.1598360538482666,-0.03442847728729248,0.0002246876247227192,0.0028046893421560526,0.21944072842597961,0.4379323720932007,0.8718148469924927,-0.016071587800979614,0.0017190873622894287,-0.007892727851867676,0.2507344765342341,-0.9165225840482306,0.30966722346561837,0.0349976264285776,-0.4532974964694938,2.895009319109211,2.432794112181148
1773063778923763968,0.16987395286560059,0.05903808772563934,0.004121425095945597,0.009200004860758781,0.21945887804031372,0.4380747675895691,0.8717386722564697,-0.006018936634063721,0.006184875965118408,-0.011844873428344727,0.2508144433897567,-0.9164849421144344,0.3097171005984198,0.0349682938767887,-0.45345587604689347,2.894969050608835,2.4326413976399643
1773063778933799936,0.17990994453430176,0.08095084130764008,0.016665445640683174,-0.006342469714581966,0.21936240792274475,0.4386846721172333,0.8714562058448792,0.009153231978416443,-0.0013067424297332764,-0.032726407051086426,0.2511182043668033,-0.9163967228448993,0.3097501408804321,0.03480730618330665,-0.4541344540243606,2.894996422563567,2.432436192872624
1773063778943837952,0.18994784355163574,0.08325155079364777,0.05250200629234314,-0.02433878183364868,0.2189769148826599,0.43946555256843567,0.8711596131324768,0.0105305016040802,0.0033749639987945557,-0.011250615119934082,0.2514569279355276,-0.9163221301631483,0.3097314301018074,0.034490426857379665,-0.4550036107840836,2.8953319918309934,2.432388873195726
1773063778953874944,0.19998502731323242,0.06929285824298859,0.0823347419500351,-0.02046281471848488,0.21829485893249512,0.4401596486568451,0.8709801435470581,-0.006502911448478699,-0.00029465556144714355,-0.00046640634536743164,0.25169622344729475,-0.9162762374332125,0.3097223336381378,0.03404157848209585,-0.4557764799533478,2.896019936859768,2.432437384804277
1773063778963911936,0.21002197265625,0.0411997027695179,0.09268378466367722,-0.004297961480915546,0.21742375195026398,0.44069480895996094,0.870927631855011,-0.014909103512763977,-0.008581161499023438,-0.0027941465377807617,0.2518203402161844,-0.9162382594081411,0.30979231408394964,0.03350642329346492,-0.45637253657174515,2.896947042031296,2.4324161592088354
1773063778973949952,0.22005987167358398,0.023603666573762894,0.043989479541778564,-0.01013134978711605,0.21678206324577332,0.4409812092781067,0.8709427118301392,-0.008438557386398315,-0.005525916814804077,-0.0005966424942016602,0.2518556398645702,-0.9162204843816529,0.30985704613264836,0.03312716449154657,-0.4566916438500829,2.8976447764585473,2.4324007670304946
1773063778983987200,0.23009705543518066,-0.021716145798563957,0.01729475148022175,-0.009602445177733898,0.21650280058383942,0.4410165548324585,0.8709940314292908,0.003467872738838196,-0.00827738642692566,0.005684256553649902,0.251822547429589,-0.9162395865929978,0.3098419698987846,0.03298941344547985,-0.45673102154034184,2.897960530759942,2.4325122149646385
1773063778994023936,0.24013400077819824,-0.0351555198431015,0.014712817035615444,0.004251318052411079,0.2163563370704651,0.44075313210487366,0.8711638450622559,-0.0009175240993499756,-0.019244402647018433,0.00877988338470459,0.25165721921233747,-0.9162873284152805,0.3098377666874037,0.032964834683701816,-0.4564375346316518,2.898164498039057,2.4326379713786874
1773063779004061952,0.2501718997955322,-0.07342594116926193,0.0002257530577480793,0.03121768683195114,0.21633242070674896,0.4402163326740265,0.8714413046836853,-0.007653221487998962,-0.01779201626777649,0.018008828163146973,0.25137438960243813,-0.9163305718097288,0.3099337612443185,0.03301952393103186,-0.45583960785253974,2.898264845481662,2.4325792737110556
1773063779014098944,0.2602088451385498,-0.08778228610754013,-0.04079265519976616,0.007577473297715187,0.21660347282886505,0.4394403398036957,0.8717656135559082,0.0010326653718948364,-0.014727175235748291,0.013320565223693848,0.25101847025595236,-0.9164016068445199,0.30998532160656656,0.03327110474362005,-0.4549755495321481,2.8980589709353937,2.4325882610455185
1773063779024136192,0.2702460289001465,-0.040514957159757614,-0.05247367545962334,0.003881671465933323,0.21703894436359406,0.43884024024009705,0.871959388256073,0.012468472123146057,-0.012433469295501709,0.008655786514282227,0.250781462865144,-0.9164706740109476,0.3099373991353089,0.033599460341771054,-0.45430760147452787,2.897640631643392,2.4327157665733634
1773063779034173952,0.28028392791748047,0.008882422000169754,-0.05720957741141319,0.005267314612865448,0.21753835678100586,0.4387012720108032,0.8719049096107483,0.010214298963546753,-0.017680823802947998,-4.8279762268066406e-05,0.25079819213272575,-0.9164716141731328,0.30989067698677436,0.03387901665911084,-0.4541529287429115,2.8970867026581604,2.4326980426941627
1773063779044210944,0.29032087326049805,0.012359578162431717,-0.05000825226306915,-0.027558941394090652,0.21797427535057068,0.43885597586631775,0.8717182874679565,0.010312467813491821,-0.009076923131942749,-0.017592310905456543,0.2509552220750553,-0.9164567585720933,0.30978402337278316,0.03409349906962632,-0.4543250985703584,2.8965657225431882,2.4327527040729993
1773063779054248192,0.3003580570220947,0.004939212929457426,-0.013017481192946434,-0.059757888317108154,0.21803876757621765,0.4390040934085846,0.8716276288032532,-0.0012571513652801514,-0.0019924044609069824,-0.012954473495483398,0.25103566869216604,-0.9165147302829958,0.3095392561311409,0.03416637669514068,-0.45448995900046957,2.896471611589295,2.4332270604393815
1773063779064285952,0.3103959560394287,0.012501746416091919,-0.014725233428180218,-0.05000819265842438,0.21788528561592102,0.4392105042934418,0.871562123298645,-0.017247438430786133,-0.01414632797241211,0.010273933410644531,0.25110546493996694,-0.9165920063166628,0.3092574310519776,0.034133414790647354,-0.45471968385026823,2.8966196490495957,2.433835215465656
1773063779074322944,0.3204329013824463,0.018358835950493813,-0.015361462719738483,-0.03992360085248947,0.21782779693603516,0.43946924805641174,0.8714457750320435,-0.01474858820438385,-0.03027433156967163,4.464387893676758e-05,0.25122305272370354,-0.9166309836589419,0.3090477725295444,0.03411839112805948,-0.45500771325708933,2.8966503273349447,2.4342414893954656
1773063779084360960,0.3304710388183594,-0.02440664730966091,-0.0037476832512766123,-0.07001972198486328,0.21767978370189667,0.4395647644996643,0.87143474817276,0.0009176284074783325,-0.023137152194976807,-0.011647701263427734,0.25123646765987906,-0.9167159779214377,0.3087866365662654,0.03410154199329788,-0.4551140608607863,2.896807218463193,2.4348323758138233
1773063779094397952,0.34050798416137695,-0.043867163360118866,0.016354655846953392,-0.053307048976421356,0.21731257438659668,0.4393850266933441,0.8716170191764832,0.0018646568059921265,-0.017387956380844116,-0.001087784767150879,0.2510641026983069,-0.9168650631800278,0.30849143570947046,0.034034632165744254,-0.45491395764409315,2.8972529846494246,2.4356397165625796
1773063779104434944,0.35054492950439453,-0.039486661553382874,0.007812965661287308,-0.009999389760196209,0.21706229448318481,0.43911483883857727,0.87181556224823,-0.006780907511711121,-0.028210848569869995,0.00910496711730957,0.25087100362123144,-0.916969789018108,0.3083410435709004,0.034000378245664695,-0.45461320526316246,2.8975767601154536,2.43611828955931
1773063779114472960,0.3605828285217285,-0.10539031028747559,9.139650501310825e-05,-0.0018197570461779833,0.21705201268196106,0.43854448199272156,0.8721052408218384,0.00032469630241394043,-0.027701526880264282,0.0010333061218261719,0.2505694124493505,-0.917050660975421,0.308335384170756,0.034094729199581,-0.4539784518397215,2.8976657229751637,2.436285444094376
1773063779124509952,0.3706200122833252,-0.21225644648075104,0.023576615378260612,-0.03059534728527069,0.21684086322784424,0.43711990118026733,0.8728722929954529,0.015153750777244568,-0.02058550715446472,0.004919946193695068,0.24977983031462483,-0.9172908935938271,0.3082427174544735,0.034261343049846196,-0.4523939472546913,2.898099525811402,2.436930731913355
1773063779134546944,0.3806569576263428,-0.220049649477005,-0.009342984296381474,-0.04068153724074364,0.21660959720611572,0.4352569878101349,0.8738604784011841,0.005207449197769165,-0.018356263637542725,0.031657278537750244,0.24875380278360126,-0.9176216085690498,0.3080597608071278,0.03451723962325971,-0.45032369787497367,2.898613434761022,2.4378926661906863
1773063779144584960,0.39069485664367676,-0.1559048444032669,-0.026893217116594315,-0.034162119030952454,0.21662285923957825,0.43365880846977234,0.8746511340141296,0.0008454173803329468,-0.014255732297897339,0.020276784896850586,0.24790978493643204,-0.9179148874140471,0.30782761561396454,0.034859385019181684,-0.4485493040552428,2.8988102861500655,2.4388133494813866
1773063779154621952,0.40073204040527344,-0.08102075010538101,-0.012956894002854824,-0.04386560991406441,0.21665196120738983,0.4327026903629303,0.8751170635223389,0.003761202096939087,-0.005822926759719849,-0.010996818542480469,0.2474052208197617,-0.9181206578501611,0.30759224345963015,0.035100021243981885,-0.44748850869501405,2.898903180424645,2.439566785556719
1773063779164659968,0.4107699394226074,-0.023008622229099274,0.010623399168252945,-0.034861598163843155,0.21646542847156525,0.4323449730873108,0.8753403425216675,0.0024982094764709473,0.0037359893321990967,-0.02182459831237793,0.24717688877855473,-0.9182442705688841,0.3074046901313088,0.03512070149221746,-0.4470917656257893,2.8991634918207883,2.44012618209171
1773063779174696960,0.420806884765625,0.026526175439357758,-0.0009387142490595579,-0.012595972046256065,0.2163013219833374,0.43237748742103577,0.8753646016120911,0.003623589873313904,-0.0021559596061706543,-0.01995706558227539,0.24716059915530317,-0.9182826227322975,0.30730983670502576,0.03506085588697074,-0.4471277947790874,2.899346639321478,2.4403746283345775
1773063779184733952,0.4308438301086426,0.06279376894235611,-0.025521954521536827,0.0016142560634762049,0.21638454496860504,0.4328194856643677,0.8751261830329895,0.01289406418800354,-0.012348145246505737,-0.01248544454574585,0.24740605104543975,-0.9182272824841726,0.307281210824366,0.03503385864689126,-0.44761804622599494,2.8991935514295153,2.4402965704612427
1773063779194771968,0.44088196754455566,0.06874380260705948,-0.034351665526628494,0.0058220503851771355,0.21667593717575073,0.4333852529525757,0.8747735619544983,0.012556836009025574,-0.02539578080177307,-0.013170778751373291,0.24775467690768058,-0.9181363398478922,0.3072660629163635,0.03508342242423516,-0.4482457477766043,2.89878575497795,2.440091851579541
1773063779204808960,0.45091891288757324,0.05966508761048317,-0.008675596676766872,0.026359282433986664,0.21692577004432678,0.4339273273944855,0.8744428157806396,0.006066158413887024,-0.027890950441360474,-0.007179081439971924,0.24808622931641852,-0.9180268289584075,0.3073241832095693,0.035097002903975674,-0.4488473147854725,2.898428327524288,2.4397462878646725
1773063779214845952,0.4609558582305908,0.03762263432145119,-0.011500145308673382,0.031114356592297554,0.21711456775665283,0.4342990219593048,0.8742115497589111,0.0015591681003570557,-0.023791760206222534,-0.002843022346496582,0.2483203931752957,-0.9179190807126522,0.30745785470215414,0.03508939467425462,-0.4492599442808277,2.8981630901956232,2.4392993169158603
1773063779224883968,0.4709939956665039,0.02467368170619011,-0.016457220539450645,0.03252197057008743,0.21737530827522278,0.4345121383666992,0.8740406632423401,0.0030378997325897217,-0.02353191375732422,0.0031870603561401367,0.24848475602222345,-0.9178257405098658,0.30759752626554904,0.03514213332173073,-0.4494965443763811,2.8978363955098607,2.438858195773666
1773063779234920960,0.4810309410095215,0.0019116428447887301,0.008705124258995056,0.02401397004723549,0.2175590544939041,0.4345580041408539,0.8739724159240723,0.0005348324775695801,-0.02728557586669922,0.008351922035217285,0.24854725694940533,-0.9177622191148683,0.30773158344187496,0.03518742175714664,-0.44954746100135023,2.897620121895144,2.4384972554895348
1773063779244957952,0.49106788635253906,0.024789484217762947,0.03859657794237137,0.017689362168312073,0.21744287014007568,0.4345740079879761,0.8739933967590332,-0.006886810064315796,-0.02397516369819641,0.012771308422088623,0.24853961544680583,-0.9177236435296787,0.30786363551055373,0.03509240238373125,-0.4495652390137419,2.8977509247269917,2.438241281085445
1773063779254995968,0.5011060237884521,0.08542699366807938,0.05352093279361725,0.017637431621551514,0.21712401509284973,0.4350264072418213,0.8738473653793335,-0.01660826802253723,-0.02540421485900879,0.017555832862854004,0.24872442580697787,-0.9176352621619761,0.3080084400931304,0.03482078850864765,-0.4500676116820946,2.8980554120550948,2.4379054153994373
1773063779265032960,0.5111429691314697,0.14804257452487946,0.06698467582464218,0.004049317445605993,0.21664679050445557,0.4360091984272003,0.873475968837738,-0.01858767867088318,-0.028721541166305542,0.006940960884094238,0.24915912349366356,-0.917480124733307,0.3081691298434193,0.034377036080690405,-0.4511593832277693,2.8984705328679463,2.4374447386428346
1773063779275070976,0.5211808681488037,0.2112090289592743,0.03750694543123245,-0.003965465817600489,0.21617543697357178,0.4375780522823334,0.8728076219558716,-0.017261892557144165,-0.022752732038497925,0.013056457042694092,0.24990011133597362,-0.9172650581071583,0.30826712687541064,0.033852514523868824,-0.45290338918626716,2.8988003870257844,2.436964012298157
1773063779285107968,0.5312180519104004,0.3069601058959961,-0.013428806327283382,-0.023378977552056313,0.2160230576992035,0.43983912467956543,0.8717084527015686,-0.01562938094139099,-0.023289471864700317,0.022120952606201172,0.2510592489683124,-0.9169672458236572,0.3082617232986933,0.033392221091349,-0.455419537040827,2.8986708324137735,2.4364250269479415
1773063779295144960,0.541254997253418,0.4319915175437927,-0.003862998215481639,-0.005108095705509186,0.21603502333164215,0.4430866539478302,0.8700593113899231,-0.014405384659767151,-0.0317707359790802,0.03329157829284668,0.25276601533413895,-0.9165404846066499,0.30819343916147607,0.032859084325161096,-0.4590388531040421,2.8982153978070295,2.4357044213084182
1773063779305182976,0.551292896270752,0.6067506670951843,-0.013710567727684975,0.05757499486207962,0.21620529890060425,0.44749781489372253,0.8677560091018677,-0.03161977231502533,-0.028567850589752197,0.0707966685295105,0.2551276392632158,-0.9158375136484584,0.3084147438468369,0.03212090041599077,-0.46396539244109736,2.8974099273797194,2.4339782971317176
1773063779315219968,0.5613298416137695,0.8609685301780701,-0.004205480683594942,0.06979277729988098,0.2165995091199875,0.4536970555782318,0.8644324541091919,-0.051728323101997375,-0.018531709909439087,0.08872294425964355,0.2584853320337522,-0.9147971650676054,0.30880797315691083,0.03112976470464773,-0.47090958922303167,2.896079040953149,2.431295205877507
1773063779325256960,0.5713670253753662,1.1770106554031372,-0.005152501165866852,0.07102236151695251,0.21694457530975342,0.4623526632785797,0.8597469329833984,-0.0635632574558258,-0.035564422607421875,0.09369832277297974,0.2631486472681378,-0.9133524102050493,0.30929088187475084,0.029652088809903762,-0.48064665770704545,2.894417202262948,2.4277038978166656
1773063779335294976,0.5814049243927002,1.4350751638412476,-0.0223996639251709,0.06148771196603775,0.21737034618854523,0.4734652638435364,0.8535693287849426,-0.05634438991546631,-0.04863014817237854,0.10141712427139282,0.26915439690027315,-0.9115017815689663,0.30975661181714575,0.027770456403503476,-0.4932207996768101,2.892232513127047,2.4233395787622927
1773063779345331968,0.5914418697357178,1.7233601808547974,-0.09937833249568939,0.09158835560083389,0.21817216277122498,0.48671188950538635,0.8458800315856934,-0.046403929591178894,-0.0693838894367218,0.12854641675949097,0.2764081295054875,-0.9092281287619498,0.3102325195389089,0.02566494380260354,-0.508321768030638,2.8891707874156207,2.41805717326057
1773063779355369216,0.6014790534973145,2.1084327697753906,-0.29780593514442444,0.15134409070014954,0.22044281661510468,0.5024855136871338,0.836010217666626,-0.03854282200336456,-0.09344321489334106,0.14584696292877197,0.285358693998729,-0.906335586218843,0.3107425082776846,0.023775224051120297,-0.5264712075475093,2.883776633897147,2.4111624802371123
1773063779365406976,0.6115169525146484,2.633878707885742,-0.4591347873210907,0.23346227407455444,0.22458215057849884,0.5218477845191956,0.8229448199272156,-0.056414976716041565,-0.10264289379119873,0.14867395162582397,0.29669693333532854,-0.9027997329084235,0.31052384636801683,0.022330090530063698,-0.5490156263341791,2.875179276483408,2.4035934870437137
1773063779375443968,0.621553897857666,3.0274295806884766,-0.5282467603683472,0.3828091621398926,0.2302166074514389,0.544396162033081,0.8066181540489197,-0.08718077838420868,-0.0993431806564331,0.13519996404647827,0.3102700930500239,-0.8979468612444077,0.3114490428914679,0.020574694778617557,-0.5756691022842536,2.863574649998502,2.3910726624979346
1773063779385481984,0.6315920352935791,3.3366198539733887,-0.671377420425415,0.5975820422172546,0.23783127963542938,0.5687036514282227,0.7874088883399963,-0.104927197098732,-0.10410398244857788,0.1688138246536255,0.32547001696242484,-0.892036678619932,0.3130095904063716,0.019102803432862216,-0.6049289845726498,2.8482626773020066,2.3745250571163115
1773063779395518976,0.6416289806365967,3.672311305999756,-0.5577331185340881,0.6539922952651978,0.24635553359985352,0.5945244431495667,0.7654081583023071,-0.11819696426391602,-0.12037283182144165,0.2276032567024231,0.3420432999208072,-0.8850964561060757,0.3151322615481696,0.01738667533969632,-0.6366740596028925,2.830201905024012,2.3541342088567716
1773063779405555968,0.6516659259796143,3.8565943241119385,-0.5117642879486084,0.6938055157661438,0.2545391321182251,0.6213470101356506,0.7410385012626648,-0.1776348054409027,-0.17061758041381836,0.23047345876693726,0.35952329344913597,-0.8773380959192683,0.3174856097305926,0.014961271695967013,-0.6704606473262789,2.8107293379011073,2.330967848932735
1773063779415593984,0.6617038249969482,3.9843058586120605,-0.3637732267379761,0.6103523969650269,0.26189422607421875,0.648334264755249,0.7148945331573486,-0.21424102783203125,-0.18339896202087402,0.26739001274108887,0.3773769872644567,-0.869005526111548,0.319807221156759,0.011805704045841992,-0.7053945539205561,2.790436145594871,2.305910523488706
1773063779425630976,0.6717410087585449,4.322691917419434,-0.08305009454488754,0.635115385055542,0.26768913865089417,0.6756989359855652,0.6868577599525452,-0.28085747361183167,-0.20446175336837769,0.23950326442718506,0.3956210333815546,-0.8600199949306272,0.32217152816896977,0.0074262675833059585,-0.7419124125926678,2.769970874762447,2.2787619962351977
1773063779435667968,0.6817779541015625,4.892563819885254,0.47001707553863525,0.7048638463020325,0.2709544897079468,0.7049835920333862,0.6554250717163086,-0.2957805097103119,-0.21131592988967896,0.21989542245864868,0.4150751319007368,-0.8495469633355304,0.3255495136764551,0.0004116793755687526,-0.7824000099739727,2.749585873959062,2.2462811824506934
1773063779445705984,0.6918158531188965,5.484907627105713,0.2943868041038513,0.6144744753837585,0.2729651927947998,0.7363978624343872,0.6190379858016968,-0.3238074779510498,-0.17456930875778198,0.19959598779678345,0.43635689929093135,-0.8373289982751418,0.32924024443579425,-0.008579253942375058,-0.8277305008798894,2.726289617540623,2.20776863899188
1773063779455742976,0.7018530368804932,5.481088161468506,0.20569077134132385,0.7017542719841003,0.2764156460762024,0.7676502466201782,0.5781933665275574,-0.3202846646308899,-0.09308969974517822,0.24744439125061035,0.45891469023354853,-0.8238210663293066,0.3322883472262812,-0.017338935001769598,-0.8751665210030006,2.695644236837569,2.1634445509959837
1773063779465779968,0.7118899822235107,5.304996967315674,-0.02355014905333519,0.6776350736618042,0.2812038064002991,0.795861005783081,0.5362181663513184,-0.22631797194480896,-0.04494541883468628,0.45691537857055664,0.4808911319480426,-0.8099453366183268,0.3348098437337704,-0.025193282043544724,-0.9204282294848667,2.6586000306081052,2.1146393568311352
1773063779475817984,0.7219278812408447,4.796204090118408,-0.3873978853225708,0.48492181301116943,0.2871483862400055,0.8204242587089539,0.49441906809806824,-0.2369316816329956,-0.13335132598876953,0.6008415818214417,0.5018025700415129,-0.7964695552231729,0.3359252709358664,-0.031380958417442276,-0.9621526435974452,2.615425915363833,2.0639985895241617
1773063779485854976,0.7319648265838623,4.270732879638672,-0.5092554688453674,0.3023419976234436,0.2924756109714508,0.8409522771835327,0.45525529980659485,-0.2668866217136383,-0.2948402166366577,0.62972092628479,0.5206320443350996,-0.7842610298232146,0.33550302900792145,-0.03625810705375621,-0.9990406450810454,2.570548206108449,2.015458998576983
1773063779495892992,0.7420029640197754,3.373429536819458,-0.4245288670063019,0.2616182565689087,0.29700303077697754,0.8570895195007324,0.42093560099601746,-0.27380967140197754,-0.4183382987976074,0.6598291397094727,0.5365859589353391,-0.773650392723578,0.33456370115797923,-0.04009649602607222,-1.0295932970476767,2.527132661129264,1.9701001984884028
1773063779505929984,0.752039909362793,2.2318341732025146,-0.2750978171825409,0.3007587492465973,0.30075690150260925,0.8676916360855103,0.39579838514328003,-0.24968573451042175,-0.48364323377609253,0.7979118824005127,0.5479725760948162,-0.7656659954679469,0.33414783890816496,-0.0427410915919642,-1.0505396685374946,2.4918020808812935,1.933002483099156
1773063779515966976,0.7620768547058105,1.4513988494873047,-0.47763869166374207,0.3748191297054291,0.3050796091556549,0.8737179040908813,0.37887126207351685,-0.2226974368095398,-0.5027768015861511,0.8589370250701904,0.5555836385884269,-0.7601583437070941,0.3340582637696541,-0.04348765121402953,-1.0627938177489287,2.463669046659253,1.90479433383226
1773063779526004992,0.7721149921417236,1.068608283996582,-0.7374444007873535,0.39883819222450256,0.310799241065979,0.877131462097168,0.36612027883529663,-0.1847616732120514,-0.46009355783462524,0.7261648178100586,0.5613956580594758,-0.7561761839628669,0.33355316756778386,-0.042127329121630815,-1.0698562158409848,2.437737965306626,1.8822174121022364
1773063779536041984,0.7821519374847412,1.0380206108093262,-0.936900794506073,0.45528894662857056,0.3175205588340759,0.8795301914215088,0.35441145300865173,-0.16387981176376343,-0.3472578525543213,0.5191541910171509,0.5667754966096736,-0.752732613150084,0.3325647984896843,-0.03949515800204963,-1.0748739970584833,2.4110421409551046,1.8613755348696392
1773063779546078976,0.7921888828277588,1.3902089595794678,-1.0795234441757202,0.6437246203422546,0.3258350193500519,0.8819403052330017,0.3406065106391907,-0.14083746075630188,-0.17916631698608398,0.3188631236553192,0.5730740151568686,-0.7487888955157275,0.33108675515856767,-0.0358174536072391,-1.0799628293666887,2.378355582082293,1.8368550868484204
1773063779556116992,0.8022270202636719,2.0036041736602783,-1.0145766735076904,0.8723031878471375,0.3361004889011383,0.8849791884422302,0.32225465774536133,-0.1164044737815857,0.003997743129730225,0.15424677729606628,0.581237340654913,-0.7430025215661352,0.3302644119087028,-0.03218261673076863,-1.0864492643367838,2.335166648463174,1.8008485493905708
1773063779566153984,0.8122639656066895,2.894619941711426,-0.9081626534461975,1.0012249946594238,0.3474772870540619,0.889342725276947,0.2972022294998169,-0.1282847821712494,0.12332212924957275,0.030724406242370605,0.5920481695698918,-0.7345474464779089,0.3302138248151716,-0.02962892121297273,-1.0959056217501904,2.2783674573521684,1.748609228249306
1773063779576192000,0.8223018646240234,3.569586992263794,-0.8967446088790894,1.0365475416183472,0.35915932059288025,0.8949008584022522,0.2648718059062958,-0.18151646852493286,0.1304897665977478,-0.015772104263305664,0.6056058923881003,-0.7233612022725934,0.3304307491157871,-0.02838298744376628,-1.1082089454963826,2.206234575034224,1.6788212563577636
1773063779586228992,0.8323390483856201,3.765324115753174,-0.8862867951393127,1.0605874061584473,0.37079206109046936,0.9002090096473694,0.22833532094955444,-0.23427170515060425,0.057936131954193115,0.08649931848049164,0.6205292388313218,-0.7105134912617573,0.3306633321907239,-0.027853421294614378,-1.1202492361180052,2.122755601801548,1.5965432514564117
1773063779596265984,0.8423759937286377,3.595259189605713,-0.8830518126487732,1.1012142896652222,0.3824273645877838,0.903914749622345,0.1915404200553894,-0.2613793611526489,-0.046782612800598145,0.2436554729938507,0.635205720929147,-0.6973053571623978,0.330961403503549,-0.027269110980485047,-1.128835546215235,2.0351272175629216,1.5098690418964924
1773063779606304000,0.8524138927459717,3.249228000640869,-0.8974990844726562,1.1509010791778564,0.39418330788612366,0.905521035194397,0.15700802206993103,-0.27479851245880127,-0.16307389736175537,0.34541815519332886,0.6487044172696681,-0.6846396733225514,0.33131937797304184,-0.02605265779763432,-1.1326061622754462,1.9498468552467771,1.4261031694830846
1773063779616340992,0.8624508380889893,2.823288679122925,-0.957750678062439,1.219689965248108,0.4062367081642151,0.9050824642181396,0.12568828463554382,-0.28619584441185,-0.2504041790962219,0.3745405673980713,0.6607483751074846,-0.6729342088557899,0.33166804675600375,-0.023822197659895548,-1.1315736762650845,1.870851474989984,1.3498685308270448
1773063779626377984,0.8724880218505859,2.4254581928253174,-1.022817850112915,1.318747878074646,0.41882869601249695,0.9027720093727112,0.09790550172328949,-0.2828117907047272,-0.26565641164779663,0.3579355478286743,0.6712899318811449,-0.662310963096993,0.33210982702764097,-0.020424901778652808,-1.1261712341785508,1.8004330907673327,1.2835602592014255
1773063779636416000,0.8825259208679199,2.1972570419311523,-1.0520650148391724,1.4191898107528687,0.4320829510688782,0.8989018201828003,0.07266370207071304,-0.2730710804462433,-0.2128971815109253,0.29739248752593994,0.6807429976321945,-0.6523970125147106,0.3327311046729225,-0.01603762636415874,-1.117256656822612,1.7374080512951056,1.2256486122557682
1773063779646452992,0.8925628662109375,2.2246274948120117,-1.070617914199829,1.522076964378357,0.44593048095703125,0.8937620520591736,0.04832792654633522,-0.26786038279533386,-0.1357358694076538,0.20676851272583008,0.6897205785153798,-0.6425819303805521,0.3335452383887771,-0.01103014817681436,-1.105663663148385,1.6787504656554206,1.1725788930861933
1773063779656489984,0.9026000499725342,2.4659535884857178,-1.131747841835022,1.6379806995391846,0.4604402184486389,0.8874073028564453,0.02243012934923172,-0.2689882516860962,-0.08563429117202759,0.1059725284576416,0.6991078074853623,-0.6319123067354478,0.33451741481226843,-0.005766021446916113,-1.0916901638787206,1.6194723742536532,1.118882478953904
1773063779666528000,0.9126379489898682,2.6676080226898193,-1.1658179759979248,1.7693132162094116,0.475652813911438,0.879613995552063,-0.005803628358989954,-0.2721005976200104,-0.05644810199737549,0.03888469934463501,0.7091556660522015,-0.6200441746300713,0.3356239075139642,-0.00029544126719186484,-1.0750501211755275,1.5585955361622423,1.0635158794756627
1773063779676564992,0.9226748943328857,2.7234296798706055,-1.1823352575302124,1.9194101095199585,0.4915924370288849,0.8701138496398926,-0.0351959727704525,-0.2849426865577698,-0.028973102569580078,0.03730165958404541,0.7194214154398115,-0.6073321150841864,0.33697138826692125,0.005551799415968863,-1.0554333061511034,1.499322449779217,1.0097464941488872
1773063779686603008,0.9327130317687988,2.764716625213623,-1.1927340030670166,2.0575668811798096,0.5082332491874695,0.8587673902511597,-0.06494288146495819,-0.3104488253593445,-0.008822321891784668,0.053834497928619385,0.7296099847863939,-0.5940169092366545,0.33863324074694445,0.011862338684150023,-1.0328590415825514,1.4437034273504112,0.9596320336878981
1773063779696640000,0.9427499771118164,2.871015787124634,-1.1743392944335938,2.185574769973755,0.5254276394844055,0.8455023169517517,-0.09514039009809494,-0.3518437147140503,-0.010297238826751709,0.013353288173675537,0.7397489587019737,-0.5799918517689411,0.3406453511318518,0.018486094429203664,-1.0075052150413308,1.3916649368586578,0.9128137423948237
1773063779706676992,0.952786922454834,3.0999767780303955,-1.13773775100708,2.2764666080474854,0.5429404377937317,0.8302099108695984,-0.12636154890060425,-0.39410626888275146,-0.015436351299285889,-0.06400710344314575,0.7500329003388257,-0.5649413302284716,0.3430167908165404,0.02512889028332936,-0.9794841254879723,1.3421313793309289,0.8677435712275464
1773063779716715008,0.9628250598907471,3.4237842559814453,-1.0727697610855103,2.3107376098632812,0.5602809190750122,0.8128339648246765,-0.159331277012825,-0.43454843759536743,0.002092301845550537,-0.13733012974262238,0.760711599100604,-0.5485092469031382,0.34564716969554465,0.0313625367801137,-0.9490009157698551,1.2937330046413709,0.8225395388456086
1773063779726752000,0.9728620052337646,3.8112869262695312,-1.0248544216156006,2.320890426635742,0.5770780444145203,0.7931995391845703,-0.19446247816085815,-0.46489542722702026,0.044340312480926514,-0.19286665320396423,0.771928442432704,-0.5304126017796377,0.3484698467970036,0.03684912925528538,-0.9160452316455513,1.2457693753997647,0.7760461600961753
1773063779736788992,0.9828989505767822,4.221277713775635,-0.9252549409866333,2.3561782836914062,0.5933019518852234,0.7709088921546936,-0.23171572387218475,-0.48104310035705566,0.09028184413909912,-0.22114984691143036,0.7836695995080889,-0.5104604714325253,0.35152844036418285,0.041470061148851864,-0.8802668803817388,1.1984605460115643,0.7281493006750133
1773063779746827008,0.9929368495941162,4.619800567626953,-0.7233994603157043,2.4217658042907715,0.6093573570251465,0.745361328125,-0.27040696144104004,-0.49332964420318604,0.12976062297821045,-0.20299693942070007,0.7957139420279502,-0.48853264420661224,0.3551512070736378,0.04519641260349941,-0.8410767087725065,1.1531457174011666,0.679500856516642
1773063779756864000,1.002974033355713,4.956325054168701,-0.45349711179733276,2.4919488430023193,0.6256604790687561,0.7161588072776794,-0.3092980682849884,-0.5110670328140259,0.1350831389427185,-0.1320471465587616,0.8076869248059672,-0.46465914683509246,0.3597816655314821,0.04786154401821576,-0.7982830488353712,1.1116753397953325,0.6308512050289568
1773063779766900992,1.0130109786987305,5.128480434417725,-0.2357681393623352,2.5127851963043213,0.6421428322792053,0.6835886240005493,-0.3469284176826477,-0.5308452248573303,0.10320031642913818,-0.044169604778289795,0.819143192754731,-0.43941659494218416,0.3653065210328757,0.04968646454809272,-0.7526682308164759,1.0754565687779067,0.5840335688841802
1773063779776939008,1.0230488777160645,5.311870098114014,-0.026053255423903465,2.461243152618408,0.6583142876625061,0.648220956325531,-0.3826640844345093,-0.5405012369155884,0.056551992893218994,-0.008754372596740723,0.82992052645793,-0.41319187962354065,0.37140333185294283,0.05063484775844204,-0.7052457056055207,1.0442562589939777,0.539200107140302
1773063779786976000,1.0330860614776611,5.552663326263428,0.13962878286838531,2.3911142349243164,0.6738938689231873,0.610257089138031,-0.41647741198539734,-0.5245408415794373,0.0017424821853637695,-0.07615262269973755,0.8400544854959432,-0.3859299242048906,0.3779145228059886,0.050470699745720306,-0.6563850970762605,1.017234759466371,0.49524617283443734
1773063779797014016,1.0431239604949951,5.870370864868164,0.23168228566646576,2.3568174839019775,0.6887295842170715,0.5692009925842285,-0.4490678310394287,-0.47467929124832153,-0.035601139068603516,-0.1695387363433838,0.8497690015240795,-0.3572069437562069,0.3845377505851821,0.04926143971218642,-0.6055337545192443,0.9929999604325803,0.45109817501986255
1773063779807051008,1.0531609058380127,6.189578056335449,0.36484819650650024,2.335089683532715,0.7029814720153809,0.524710476398468,-0.4800998568534851,-0.41167598962783813,-0.05335128307342529,-0.1965968906879425,0.858973161523462,-0.32686777657789395,0.39128956265146503,0.04706338217909854,-0.552374971582293,0.9716064894762886,0.40657474287207884
1773063779817088000,1.0631978511810303,6.456417083740234,0.6137208342552185,2.3266489505767822,0.7170817255973816,0.47671636939048767,-0.5084636211395264,-0.3792826533317566,-0.07493722438812256,-0.15677380561828613,0.8673568508681795,-0.2949594788166787,0.3984558870528892,0.043861673686147136,-0.49691550721519673,0.9540067068242912,0.36179339768106406
1773063779827126016,1.0732359886169434,6.690298080444336,0.9039188623428345,2.3149545192718506,0.7315449714660645,0.42547404766082764,-0.5327418446540833,-0.37723588943481445,-0.10957130789756775,-0.10411423444747925,0.8745270695313773,-0.2616917352669547,0.40638222218138614,0.039665831890560305,-0.4394856336285569,0.9413662919108261,0.31697242803676534
1773063779837163008,1.083272933959961,6.813109874725342,1.260309100151062,2.288466453552246,0.7466692328453064,0.37154239416122437,-0.5517619252204895,-0.38242673873901367,-0.17311713099479675,-0.06780588626861572,0.8801626140217497,-0.22737094815598896,0.415236666957973,0.03456393882859494,-0.3806697794434023,0.9343955554032535,0.2722711652013619
1773063779847200000,1.0933098793029785,6.823997974395752,1.5578373670578003,2.1410019397735596,0.762211263179779,0.3164062201976776,-0.5647310018539429,-0.38098567724227905,-0.2622832953929901,-0.0003019571304321289,0.8840547937076124,-0.192651842162024,0.42487616825185,0.028506377589732138,-0.32193865486882356,0.9331373230759915,0.22766623652574614
1773063779857238016,1.1033480167388916,6.092554092407227,2.107982873916626,2.0795865058898926,0.7786864042282104,0.2632739245891571,-0.569503664970398,-0.36584460735321045,-0.3692004084587097,0.16921985149383545,0.8855827947484467,-0.15958937135653062,0.43563677818960134,0.02224937177752267,-0.2664142768255058,0.9393289445245295,0.18605067408431042
1773063779867275008,1.1133849620819092,5.632380962371826,2.5922257900238037,2.1732518672943115,0.797331690788269,0.21332797408103943,-0.5645825862884521,-0.28410232067108154,-0.526682436466217,0.48122382164001465,0.8843098273731024,-0.12921519224752548,0.44834378338101527,0.016956355619589077,-0.2149800887518825,0.9546614481824351,0.14985180136714263
1773063779877313024,1.1234228610992432,5.21159553527832,2.1605265140533447,2.465886116027832,0.815328061580658,0.1640370935201645,-0.5552764534950256,-0.12434905767440796,-0.7154287099838257,0.3542724847793579,0.8817360016959648,-0.10002714224800446,0.46082137028490994,0.013408633917893688,-0.164781804283371,0.9729042756514646,0.11769721615251239
1773063779887350016,1.1334600448608398,4.659063339233398,1.8580929040908813,2.611751079559326,0.8297895789146423,0.1156284362077713,-0.5459663271903992,0.07082986831665039,-0.8453953266143799,0.27085041999816895,0.8791084483000278,-0.07235607731987453,0.4709367566688384,0.012304453427036476,-0.1158876590447314,0.9888473475217219,0.09051400446353741
1773063779897387008,1.1434969902038574,3.85050892829895,1.885311484336853,2.498567581176758,0.8423609733581543,0.07086547464132309,-0.5342340469360352,0.1325078010559082,-0.9052008390426636,0.30823612213134766,0.8757583155993733,-0.04748952086580969,0.4802371596020705,0.012819924506028743,-0.07092492519512161,1.0056012631910456,0.06829140504543015
1773063779907425024,1.1535348892211914,2.875187635421753,1.5509848594665527,2.263073444366455,0.8528379797935486,0.03281664848327637,-0.5211434960365295,0.11897903680801392,-0.8620097637176514,0.3029886484146118,0.8719818866153064,-0.02711678462891013,0.48856209895650987,0.014812899129658396,-0.03282254093325711,1.0222770111968376,0.05238177773807085
1773063779917461760,1.163571834564209,2.3192853927612305,1.3102749586105347,1.944665789604187,0.8604574799537659,0.0014546742895618081,-0.5095202326774597,0.13621610403060913,-0.7597096562385559,0.317854642868042,0.8685918215335652,-0.010848854731286972,0.49509814441792915,0.017563970790386487,-0.0014546748043754206,1.036168576168739,0.04126609304411397
1773063779927499008,1.1736090183258057,2.2857580184936523,1.371882677078247,1.5582869052886963,0.8670119643211365,-0.025237172842025757,-0.49764788150787354,0.14272314310073853,-0.6930092573165894,0.27584612369537354,0.8651274709498686,0.0033154567777189314,0.5011637165886311,0.01945530590614264,0.025239852061375388,1.0497286544827409,0.03035379322914143
1773063779937537792,1.183647632598877,2.481719970703125,1.38689124584198,1.280556559562683,0.8733094930648804,-0.04926386848092079,-0.48466870188713074,0.1243864893913269,-0.6950903534889221,0.12363046407699585,0.8613652800957571,0.017050359741902252,0.5073213358438549,0.019603644216161713,0.049283818176888955,1.0641382622438837,0.016492546449494147
1773063779947574528,1.1936845779418945,2.50451397895813,1.3539267778396606,1.1463383436203003,0.8791695833206177,-0.07194480299949646,-0.4710463881492615,0.17687588930130005,-0.6893161535263062,0.03397366404533386,0.8574260707878197,0.030855184889450212,0.5133466283226072,0.01853788629765593,0.07200701278938944,1.0789317497359197,0.00011121195251289541
1773063779957611776,1.2037217617034912,2.207287311553955,1.2145353555679321,1.1051535606384277,0.8842740058898926,-0.09293325245380402,-0.4576275646686554,0.2635074257850647,-0.6505359411239624,0.14285403490066528,0.8535275701797252,0.04383128944473813,0.5189075359057506,0.01745091843990163,0.09306754777881533,1.0932328497539023,-0.015767981783838175
1773063779967649792,1.2137596607208252,1.6702938079833984,1.074813723564148,1.0343948602676392,0.8882978558540344,-0.11132797598838806,-0.44557052850723267,0.3124772906303406,-0.6504517793655396,0.26261764764785767,0.8499932821656374,0.05487509407141103,0.5236444064804869,0.017226433253628475,0.11155923054551398,1.1058692519931947,-0.028365474779621192
1773063779977686528,1.2237966060638428,1.0075531005859375,1.0745240449905396,0.8986703753471375,0.8918886184692383,-0.12593378126621246,-0.4343680143356323,0.3363218307495117,-0.6905792355537415,0.3083151578903198,0.8466735521389746,0.06307314847437918,0.5280509218075493,0.01811287984730095,0.12626904800754404,1.1175861668852527,-0.03623663491759941
1773063779987724800,1.2338347434997559,0.3612460196018219,0.9638885855674744,0.7620448470115662,0.8952464461326599,-0.13625040650367737,-0.4242282211780548,0.3734303116798401,-0.694682240486145,0.3127170205116272,0.8436277710007686,0.06803648146799811,0.532218868312856,0.020156630807814494,0.13667553270188534,1.1282723926194491,-0.03878251096305274
1773063779997761792,1.2438716888427734,-0.08247549831867218,0.7002103328704834,0.7633812427520752,0.8977186679840088,-0.14355483651161194,-0.4165251851081848,0.4554917812347412,-0.618057131767273,0.2607939839363098,0.84126103319146,0.07049517079240132,0.5355070870999545,0.023291159241881416,0.14405253432324863,1.1363761051075207,-0.036701734736115536
1773063780007798784,1.253908634185791,-0.377015084028244,0.44232553243637085,0.8374136686325073,0.8988966345787048,-0.14978861808776855,-0.4117623567581177,0.5297074913978577,-0.48779988288879395,0.14459621906280518,0.839717208121077,0.07158532391271448,0.5375819612486241,0.027498837096159766,0.15035447148818373,1.1412472946941814,-0.031139757192062568
1773063780017836800,1.263946771621704,-0.5433209538459778,0.32961228489875793,0.874122679233551,0.8990949988365173,-0.15560336410999298,-0.40916457772254944,0.5142502784729004,-0.3744259476661682,0.03811660408973694,0.8387629952594522,0.07185658848749306,0.5387525726461978,0.032540047580850794,0.15623822729379264,1.1437218223730368,-0.023122747563852873
1773063780027873792,1.2739837169647217,-0.6187270283699036,0.7362748980522156,0.7618265151977539,0.8997899889945984,-0.16074980795383453,-0.40563198924064636,0.41792845726013184,-0.30127108097076416,-0.027534455060958862,0.8374904145523935,0.0716061312963739,0.5404225864085671,0.03775832926357693,0.16145029067585076,1.1472711852954867,-0.014337606433126785
1773063780037910784,1.2840206623077393,-0.8579915165901184,0.9767154455184937,0.6177942156791687,0.9024869799613953,-0.16377025842666626,-0.39836734533309937,0.38582783937454224,-0.11249011754989624,-0.0016112923622131348,0.8350683645819145,0.07008142472124719,0.5439714370453096,0.04294774968324399,0.1645113110895133,1.1551082528461656,-0.00457779529929519
1773063780047948800,1.2940587997436523,-0.4725501239299774,0.21502633392810822,0.7941295504570007,0.903712809085846,-0.1673000156879425,-0.394098699092865,0.5287364721298218,0.2287319153547287,0.021295994520187378,0.833509560890699,0.06886245827256936,0.5460847986768828,0.048074016508473205,0.16809044553603814,1.1595712850146147,0.005001330606150134
1773063780057985792,1.30409574508667,0.5323127508163452,0.049437910318374634,0.7451633810997009,0.902658998966217,-0.1745002567768097,-0.3933909237384796,0.650380551815033,0.3878791928291321,-0.1314961016178131,0.8331002568416843,0.07105099401137849,0.5461284540422421,0.05137532423090046,0.17539821384065912,1.1598023447015158,0.008120329635965718
1773063780068022784,1.3141326904296875,1.3772547245025635,0.2865327298641205,0.6017324328422546,0.9021644592285156,-0.18441057205200195,-0.3899900019168854,0.5455437898635864,0.30254411697387695,-0.296777606010437,0.832071931902786,0.07697075983643788,0.5468825352640544,0.05149200767635573,0.1854721202128165,1.162773465231485,0.0015283936567406485
1773063780078060544,1.3241705894470215,1.586256504058838,0.2378498911857605,0.6500672101974487,0.9020734429359436,-0.1958409994840622,-0.38459041714668274,0.4305833578109741,0.2259160876274109,-0.25553104281425476,0.8305378504595021,0.08488511112419302,0.5481781699581885,0.05002060851368625,0.19711499069232508,1.1677908237085783,-0.010173487352949345
1773063780088097792,1.3342077732086182,1.5403759479522705,0.22248119115829468,0.6617000102996826,0.9015471935272217,-0.20793771743774414,-0.37943974137306213,0.38067930936813354,0.11150217056274414,-0.12655696272850037,0.8290723522899078,0.09323300505828179,0.5491700454387173,0.04856774997104634,0.20946612156281155,1.1724237633975307,-0.022359750154191546
1773063780098135808,1.3442456722259521,1.3171241283416748,0.4162815511226654,0.3838902711868286,0.9015739560127258,-0.2182329297065735,-0.37354880571365356,0.3206854462623596,-0.08897225558757782,-0.12294170260429382,0.8273855476989458,0.10061758826817327,0.5505467313824083,0.0469840665576425,0.22000338377349854,1.1779981932187744,-0.03386404432128398
1773063780108172544,1.3542826175689697,0.9689948558807373,0.519878625869751,0.07758957892656326,0.9028868079185486,-0.22451384365558624,-0.36659106612205505,0.24852615594863892,-0.31140533089637756,-0.14901864528656006,0.8253924053033137,0.10588535751070535,0.5527139866872456,0.044977971319295616,0.22644411883027232,1.185110172503174,-0.043935079691170595
1773063780118209792,1.3643198013305664,0.5425457954406738,0.43618056178092957,-0.07638534158468246,0.904651403427124,-0.22725516557693481,-0.3605010509490967,0.24873000383377075,-0.4721771776676178,-0.10284733772277832,0.8236467761104129,0.10892941395296617,0.5548728255021598,0.04308775315418703,0.22925817204967283,1.1915861202031708,-0.051269077891607465
1773063780128247808,1.3743577003479004,-0.12374915927648544,0.4751735031604767,-0.2394765168428421,0.9065950512886047,-0.2266804277896881,-0.355951726436615,0.29286789894104004,-0.512256920337677,-0.05576092004776001,0.8223172226326326,0.1093381492291544,0.5568386768380088,0.04207605123741926,0.2286680346623561,1.1966639852539396,-0.05399888763287523
1773063780138284800,1.384394645690918,-0.8785723447799683,0.44181129336357117,-0.3986445963382721,0.9090453386306763,-0.2218678891658783,-0.3527199327945709,0.3105897903442383,-0.4176127016544342,0.027280479669570923,0.8213187770166841,0.10623374611016177,0.5588867751916063,0.04237383333675107,0.22372968922845418,1.200667507018278,-0.050417823217007746
1773063780148321536,1.3944315910339355,-1.4727787971496582,0.19749288260936737,-0.2598702311515808,0.9109247922897339,-0.21444231271743774,-0.35246357321739197,0.3361302614212036,-0.30263227224349976,0.10969626903533936,0.8211310046158172,0.10025837511254616,0.560103980670773,0.044448709010203584,0.21612082973962107,1.2016082395517587,-0.040261033091070535
1773063780158359808,1.4044697284698486,-1.873559832572937,0.2804436981678009,-0.09135203808546066,0.91203373670578,-0.20703129470348358,-0.35402315855026245,0.3777458667755127,-0.2716063857078552,0.03647252917289734,0.8213710264321242,0.09285857682621425,0.5606832507472261,0.048591253974726405,0.20853953037834552,1.2005305708797263,-0.02484641667319732
1773063780168396800,1.4145066738128662,-2.194230794906616,0.36541369557380676,-0.17064712941646576,0.9133977890014648,-0.1986704021692276,-0.3552948832511902,0.3489007353782654,-0.2702626883983612,-0.04140308499336243,0.821415007151902,0.08396203510975318,0.5615184240209619,0.054081082857720654,0.20000109112650327,1.1998245726358023,-0.005557237139050749
1773063780178434816,1.4245448112487793,-2.376894474029541,0.12050488591194153,-0.44179049134254456,0.9150424599647522,-0.18777570128440857,-0.3569839894771576,0.2941402792930603,-0.23353472352027893,0.03076636791229248,0.8215603424178579,0.07361782927777392,0.562217417928377,0.05941893635519935,0.1888970716395948,1.1988288843160606,0.015123617758139682
1773063780188471808,1.4345817565917969,-2.0903284549713135,-0.3666059076786041,-0.6067863702774048,0.9154214262962341,-0.1744939684867859,-0.3627060353755951,0.25703346729278564,-0.13960818946361542,-0.061228930950164795,0.8229917463907125,0.06269751768359058,0.5609955490119503,0.06354318237586747,0.17539182440761134,1.1935549285730902,0.03478555118195125
1773063780198508800,1.4446187019348145,-1.235470175743103,-0.4027961194515228,-0.6660917401313782,0.9151013493537903,-0.16249284148216248,-0.3690333962440491,0.24958676099777222,-0.00810040533542633,-0.20553627610206604,0.824759102120959,0.05411563119073848,0.5590660050094222,0.06549148385563051,0.16321655038174318,1.1874737070294963,0.04817968669152116
1773063780208546560,1.4546566009521484,-0.5033236145973206,-0.3116067051887512,-0.44448307156562805,0.9146155714988708,-0.15393273532390594,-0.37387582659721375,0.17890554666519165,0.10806483030319214,-0.38186150789260864,0.8262341452741256,0.04904594646627365,0.557365754245818,0.06538423186591359,0.15454722315165065,1.1827446590007946,0.05404241018499234
1773063780218583808,1.4646937847137451,-0.013834607787430286,-0.2107623964548111,-0.04417320340871811,0.9140561819076538,-0.1508786827325821,-0.3764796257019043,0.12140524387359619,0.1982114464044571,-0.3904576301574707,0.8270493980354936,0.047470199495244454,0.5563333189776868,0.06503140665080938,0.15145706436363926,1.180092406474986,0.055412235970674864
1773063780228620800,1.4747307300567627,0.13396528363227844,-0.17743998765945435,-0.028797846287488937,0.9132640957832336,-0.15113985538482666,-0.3782927095890045,0.08958923816680908,0.22725069522857666,-0.3255647122859955,0.827622590971228,0.04787901277705155,0.5554828945446406,0.06470797484694021,0.15172126929232296,1.1780913184040407,0.05456925643197288
1773063780238658560,1.4847686290740967,-0.3874307870864868,0.22150900959968567,-0.12846024334430695,0.9134848117828369,-0.15002205967903137,-0.37820491194725037,-0.01735144853591919,0.14063791930675507,-0.10597175359725952,0.8276103119900872,0.047319296584030876,0.5555703668639483,0.06452664314354578,0.15059058245139115,1.1782588101410203,0.05487570592684741
1773063780248695808,1.4948058128356934,-1.6570557355880737,-0.011121178045868874,-0.15449145436286926,0.9142992496490479,-0.14494526386260986,-0.37821662425994873,0.0012586116790771484,-0.008359774947166443,0.31794440746307373,0.82743705960867,0.042735565813729275,0.555936464212656,0.06675518844527098,0.14545765683057013,1.1785627152519602,0.06366984432594709
1773063780258732800,1.504842758178711,-2.8470141887664795,-0.41337913274765015,-0.277007520198822,0.9137147665023804,-0.1342930942773819,-0.38352394104003906,0.11446815729141235,-0.1569666564464569,0.6743717193603516,0.8285782894674997,0.03271169208303331,0.5542273681807336,0.0722489589842133,0.1347000625373336,1.173388153265454,0.08433132685820652
1773063780268770816,1.514880657196045,-3.0034849643707275,-0.6041538715362549,-0.575273334980011,0.9122132062911987,-0.11873038858175278,-0.3921356797218323,0.13252562284469604,-0.24629034101963043,0.6531830430030823,0.8305799304166466,0.019221278984036437,0.5509652500110376,0.07877154885619687,0.11901112909229143,1.1648055888083408,0.11067873334909258
1773063780278807552,1.5249176025390625,-2.2485036849975586,-0.409654438495636,-0.7684859037399292,0.9108722805976868,-0.10191028565168381,-0.3999076783657074,0.05847281217575073,-0.2816346287727356,0.180425226688385,0.832489244937697,0.006493946933867832,0.5477261993864455,0.08316016706690356,0.10208751773386349,1.1570955734266835,0.13242016043722069
1773063780288845824,1.5349557399749756,-1.6096364259719849,-0.10479599982500076,-0.6450443863868713,0.9105713963508606,-0.08753404766321182,-0.4039771556854248,0.041866958141326904,-0.17807568609714508,-0.2832939624786377,0.8334914192049819,-0.003374122966950758,0.5458938019072656,0.08532672086875533,0.08764622228414934,1.1532336304276745,0.14701327267434586
1773063780298882816,1.5449926853179932,-1.1116786003112793,0.18442541360855103,-0.23870061337947845,0.9110921025276184,-0.07785740494728088,-0.40478307008743286,0.13267004489898682,0.07228794693946838,-0.44189658761024475,0.8335407617749885,-0.01034782568105175,0.5454368775943447,0.08718522831425797,0.07793628277865447,1.1527065076574394,0.15776358628578718
1773063780308919552,1.5550296306610107,-0.5335761308670044,0.38254064321517944,0.11288192868232727,0.9123592376708984,-0.07406289130449295,-0.40263548493385315,0.24674415588378906,0.33921486139297485,-0.45127683877944946,0.8326839903945238,-0.01404774002645858,0.5463377302579673,0.08919166705151921,0.0741307667797922,1.1551904142857108,0.16508675720885513
1773063780318957824,1.5650677680969238,-0.06717248260974884,0.39728257060050964,0.30011066794395447,0.913822591304779,-0.07479703426361084,-0.3991662263870239,0.29238468408584595,0.49723660945892334,-0.3876074552536011,0.8314697721348283,-0.014841625147820931,0.5479020035871824,0.0907806135510685,0.07486695411733368,1.1589657274702436,0.16849204315357877
1773063780328994816,1.5751047134399414,0.15610671043395996,0.5112130045890808,0.5118786692619324,0.9153293967247009,-0.07872074842453003,-0.3949368894100189,0.2905727028846741,0.5120856165885925,-0.3007875382900238,0.8300350880853841,-0.013691390699656655,0.5498582573623235,0.09225051801756368,0.07880228119390997,1.1634585755915758,0.1695335228710251
1773063780339031808,1.585141658782959,0.2043759673833847,0.6244373321533203,0.7930033206939697,0.917057454586029,-0.0854300931096077,-0.3894961476325989,0.26322507858276367,0.4170340895652771,-0.17515525221824646,0.8281521665372332,-0.011388618613632875,0.5523786911968601,0.09440363294137841,0.08553435058217526,1.1691596218144256,0.17038592651501264
1773063780349069824,1.595179796218872,0.20038221776485443,0.5356232523918152,0.899601936340332,0.9185761213302612,-0.0941334217786789,-0.3838706314563751,0.2236509919166565,0.2636432945728302,-0.0538887083530426,0.8261056243042266,-0.008451291013764354,0.5549714021525586,0.09738946558537317,0.09427299669683899,1.1749569359478758,0.17189318934200343
1773063780359106816,1.6052167415618896,0.22124995291233063,0.35100629925727844,0.7634031176567078,0.919492244720459,-0.10271074622869492,-0.37945306301116943,0.16072320938110352,0.07385639101266861,0.013654112815856934,0.8244227998550328,-0.005450452181044269,0.5569953032569879,0.10026808429151057,0.102892203821322,1.1794097378837312,0.1731739025037752
1773063780369143808,1.6152536869049072,0.27782413363456726,0.012860587798058987,0.5692089796066284,0.9194679856300354,-0.10975907742977142,-0.37753334641456604,0.09418851137161255,-0.12409712374210358,0.05075114965438843,0.8235874614871411,-0.002677122329948823,0.5578764683742907,0.1023244149580825,0.10998066001732852,1.1811857374645798,0.17344419305905184
1773063780379181568,1.6252915859222412,0.43149784207344055,-0.14579430222511292,0.4036799371242523,0.9186158776283264,-0.11554978042840958,-0.3778795897960663,0.06215798854827881,-0.2994435131549835,-0.02583739161491394,0.82356599195991,0.00017059441303235093,0.5577276880740905,0.10333787876141728,0.11580847327321071,1.1805374391594885,0.17201440097820822
1773063780389218816,1.635328769683838,0.5145595073699951,-0.19806495308876038,0.2635904848575592,0.917587399482727,-0.12043704092502594,-0.3788512051105499,-0.01490795612335205,-0.40663206577301025,-0.11039131879806519,0.8238577004373748,0.003174957676535768,0.5572829727238104,0.1033636600331833,0.12073011735337658,1.1792381563491028,0.1687985113949635
1773063780399256832,1.6453666687011719,0.5683774948120117,-0.4082999527454376,0.12454204261302948,0.9162097573280334,-0.12429933995008469,-0.3809322416782379,-0.14702945947647095,-0.4253680109977722,-0.0358310341835022,0.8245743880499156,0.006095395948325695,0.5563242952852272,0.10268033360576503,0.1246216668814297,1.1767697431927469,0.16456538491326242
1773063780409293568,1.6554036140441895,0.7111588716506958,-0.4698687791824341,-0.07606083154678345,0.9144092202186584,-0.12699291110038757,-0.384354829788208,-0.26244693994522095,-0.41396164894104004,-0.05969119071960449,0.8258193465366249,0.00904591491463032,0.5547438624770135,0.10099465670166455,0.12733675624698954,1.1728867390635211,0.15871550092802847
1773063780419330816,1.6654407978057861,0.7459908723831177,-0.2806360125541687,-0.30853986740112305,0.9132065773010254,-0.12810556590557098,-0.38683685660362244,-0.3439774513244629,-0.3876109719276428,-0.28230684995651245,0.8269170883109854,0.011777258075362479,0.5535728224860129,0.09811530137757747,0.12845856452272994,1.1701097317044467,0.1510407007221008
1773063780429368832,1.6754786968231201,0.5828776955604553,-0.26169294118881226,-0.5270962119102478,0.912764310836792,-0.1268666684627533,-0.38828641176223755,-0.37713491916656494,-0.3163553774356842,-0.3033335208892822,0.8277776110498918,0.013523146838024728,0.5528778473317139,0.09448592228204854,0.12720947476875813,1.1685901882036072,0.143113845703527
1773063780439405568,1.6855156421661377,0.3329043388366699,-0.35766366124153137,-0.6967304944992065,0.912300169467926,-0.12303131073713303,-0.3906041979789734,-0.3261033296585083,-0.2572177052497864,-0.11803224682807922,0.8289083555620401,0.013881633592134684,0.5518199039849795,0.09062568026717724,0.12334382735300993,1.1662579801834143,0.13637564304969393
1773063780449442560,1.6955525875091553,0.03420531004667282,-0.5264504551887512,-0.8244648575782776,0.9115424156188965,-0.11678040772676468,-0.39427483081817627,-0.20980602502822876,-0.2616680860519409,0.09762874245643616,0.8304089548182341,0.012714556254178732,0.5501826320187618,0.08693825988162081,0.1170474816342473,1.162560051499733,0.13167651104924544
1773063780459480832,1.7055907249450684,-0.14438414573669434,-0.8778380155563354,-0.9636483192443848,0.9097513556480408,-0.10838073492050171,-0.4007568955421448,-0.07334089279174805,-0.3338189721107483,0.2714081108570099,0.83272480303225,0.010294708628249773,0.5472801615469899,0.08335348284250903,0.1085940432784502,1.1558601095443999,0.12866334698377646
1773063780469517824,1.715627670288086,-0.32790279388427734,-1.190548062324524,-1.130947470664978,0.9066175222396851,-0.09786707162857056,-0.4104469120502472,0.03825247287750244,-0.44404882192611694,0.3582924008369446,0.8359992687239568,0.00687213449307015,0.542889779252052,0.07955286608980167,0.09802397975287971,1.1456799687778976,0.12649332396006865
1773063780479555840,1.725665807723999,-0.6605483889579773,-1.5797981023788452,-1.1220206022262573,0.9019221663475037,-0.08548272401094437,-0.4233546257019043,0.08819013833999634,-0.5189636945724487,0.4725794792175293,0.8401770167623053,0.0022840763390348535,0.5369520162054897,0.07602603964397249,0.08558717920582275,1.1319339390613665,0.12609196284662616
1773063780489592832,1.7357027530670166,-1.1036100387573242,-1.9848852157592773,-0.8011391758918762,0.8949205279350281,-0.07294568419456482,-0.4402230381965637,0.060508549213409424,-0.4881657361984253,0.5929329991340637,0.8453398594801599,-0.0033179624905142267,0.5290344724027508,0.07424402092265184,0.07301052792125948,1.1136392285807237,0.12974185113381673
1773063780499629824,1.7457396984100342,-1.7838369607925415,-1.8080230951309204,-0.34923431277275085,0.886568009853363,-0.061408236622810364,-0.45850440859794617,-0.03737062215805054,-0.37992170453071594,0.36541056632995605,0.8506080452276173,-0.01015236916212716,0.5202352617037784,0.07561925899618313,0.06144689663741959,1.0935090240260272,0.139927334851719
1773063780509667584,1.7557775974273682,-2.5358128547668457,-1.2086154222488403,0.1648227572441101,0.8795664310455322,-0.05054677277803421,-0.4730835556983948,-0.18227028846740723,-0.2227533757686615,0.0017243027687072754,0.8543905603138977,-0.019038625530267958,0.5129286088699313,0.08098555670420457,0.05056832309603809,1.0773214532095596,0.15878603145272244
1773063780519704832,1.7658147811889648,-2.9318583011627197,-0.5249790549278259,0.3924143612384796,0.8752434253692627,-0.04008694738149643,-0.4820187985897064,-0.3042747974395752,0.03300689160823822,-0.10576498508453369,0.8561535727064075,-0.02969974649574923,0.5080438207061267,0.08950215510240146,0.040097689683354865,1.0673963529705666,0.18462740862345542
1773063780529741824,1.7758517265319824,-3.1222095489501953,0.2626693546772003,0.27475711703300476,0.8745542168617249,-0.02851918525993824,-0.48408859968185425,-0.3918118476867676,0.2752843499183655,-0.15052443742752075,0.8557472122175862,-0.041716410762934246,0.5061772857595104,0.09869722761063421,0.028523052539634584,1.0652499490351224,0.21284083058007242
1773063780539779584,1.7858896255493164,-2.302420139312744,0.665532112121582,-0.13057732582092285,0.8767797350883484,-0.016121022403240204,-0.4806218147277832,-0.41329407691955566,0.3604356050491333,-0.2088465690612793,0.853849354180809,-0.05351836880968849,0.5067789254020449,0.10607610772162675,0.016121720830755103,1.0693614276986332,0.23765129724645437
1773063780549816832,1.795926809310913,-1.2350975275039673,0.7275398373603821,-0.8240881562232971,0.8802827596664429,-0.0035345430951565504,-0.4744364619255066,-0.4351227283477783,0.29332947731018066,-0.4360402822494507,0.8517629954133105,-0.06258698482451938,0.5087874257292362,0.10825061007602878,0.0035345504919103475,1.0764692746957623,0.2507145351184809
1773063780559853824,1.8059637546539307,-0.6137245297431946,0.6330767273902893,-1.3240103721618652,0.8834385871887207,0.010384775698184967,-0.4684318006038666,-0.4142614006996155,0.24359776079654694,-0.45129168033599854,0.8503273584189028,-0.06956700817674712,0.5108272950721515,0.1056371553879831,-0.010384962564436787,1.083252744027637,0.2534438774253388
1773063780569891584,1.8160016536712646,-0.38188430666923523,0.6912903785705566,-1.4550739526748657,0.8862131237983704,0.025226114317774773,-0.46259039640426636,-0.25671184062957764,0.24773836135864258,-0.19643667340278625,0.8492218209545883,-0.07559387349849969,0.5128258628018093,0.10058562506003747,-0.025228790131786288,1.0897154183628532,0.2510808533195725
1773063780579928576,1.8260385990142822,-0.3009015619754791,0.8358145356178284,-1.129198670387268,0.8893295526504517,0.038549989461898804,-0.4556387662887573,-0.09573531150817871,0.2693418264389038,-0.0424843430519104,0.847756428713596,-0.08082314924360354,0.5154107425413813,0.09554195348035609,-0.038559544938320346,1.0973258152153005,0.2480244361737423
1773063780589966848,1.8360767364501953,-0.1662205159664154,0.8140470385551453,-0.5408530235290527,0.8927510976791382,0.04713460057973862,-0.44807806611061096,0.059092164039611816,0.2847746014595032,0.029910922050476074,0.8458907646074971,-0.08439922228010661,0.5184956534011045,0.09223842463769842,-0.047152071228990455,1.105624241493214,0.24632293257415572
1773063780600003840,1.846113681793213,-0.05851774290204048,0.6573535799980164,-0.07269779592752457,0.8959128260612488,0.05020134150981903,-0.44138413667678833,0.13579487800598145,0.2661896347999573,0.05692365765571594,0.8440475298714931,-0.08594149392117464,0.5214614046024254,0.09097132607117828,-0.05022245034477159,1.1130346134578084,0.24597863895262095
1773063780610040576,1.8561506271362305,-0.03447960689663887,0.5370966792106628,0.057535845786333084,0.8985258936882019,0.05023103579878807,-0.4360365867614746,0.07899785041809082,0.20279017090797424,0.067689448595047,0.8424713234116608,-0.08633581445979105,0.5239540321465874,0.090885701210747,-0.05025218398941316,1.1189939460650027,0.24640291547364507
1773063780620078848,1.8661887645721436,-0.12237910181283951,0.4712952673435211,-0.08409718424081802,0.9007097482681274,0.0505538173019886,-0.4314698576927185,-0.06994503736495972,0.1071304976940155,0.1102266013622284,0.8411191138765658,-0.0868689832328515,0.5260407314012518,0.09084895916777698,-0.050575376650054356,1.124062419740738,0.24704063799935996
1773063780630115840,1.8762257099151611,-0.28434062004089355,0.462036669254303,-0.30764466524124146,0.9025983214378357,0.05318195000290871,-0.427185982465744,-0.19999217987060547,0.0175730399787426,0.1914530098438263,0.8399231339659389,-0.08829480092112964,0.52783618396173,0.090122413065732,-0.05320705182290607,1.1287484470400049,0.24746690760391635
1773063780640152576,1.8862626552581787,-0.5318188667297363,0.5264278650283813,-0.5342221260070801,0.9044610857963562,0.05873910337686539,-0.4224926829338074,-0.2573205232620239,-0.034584421664476395,0.2632061839103699,0.8386497094466817,-0.09119114145594845,0.5295638090977781,0.08895598945534684,-0.05877293363612717,1.1337962041312089,0.24877205879974634
1773063780650190848,1.8963007926940918,-0.7897735238075256,0.5417053699493408,-0.6984760165214539,0.906349241733551,0.0672079548239708,-0.4171501398086548,-0.250160276889801,-0.0575186088681221,0.2907005548477173,0.8371962337126627,-0.09574306779440094,0.531279775694247,0.08762193082603816,-0.06725865049590857,1.1394486335495928,0.2516571210385026
1773063780660227840,1.9063377380371094,-0.9204066395759583,0.45604559779167175,-0.7034170031547546,0.9079244136810303,0.07727871090173721,-0.4119482636451721,-0.18241477012634277,-0.06066187471151352,0.2609167695045471,0.8357652219593638,-0.10132238047638192,0.5326909479923604,0.08643354417143723,-0.07735583596265613,1.144848789428542,0.2559664179577016
1773063780670264832,1.916374683380127,-0.9580324292182922,0.3282570242881775,-0.5698954463005066,0.909002959728241,0.08702639490365982,-0.40760287642478943,-0.08260220289230347,-0.03777100890874863,0.21436560153961182,0.8345268882111662,-0.10702116967771157,0.5336150588866443,0.08582750202994892,-0.08713661879964212,1.1492683046301038,0.2614147346216855
1773063780680302592,1.926412582397461,-0.9326463937759399,0.21991562843322754,-0.3888692259788513,0.9096682667732239,0.09525501728057861,-0.40426477789878845,-0.0016178488731384277,0.004567943513393402,0.18842923641204834,0.8335089435229213,-0.1122456273433564,0.5341053589092654,0.08599468893998481,-0.09539966118981877,1.1526015813337027,0.2676431038184851
1773063780690339840,1.9364497661590576,-0.9070517420768738,0.16643044352531433,-0.2824726104736328,0.9101183414459229,0.101967953145504,-0.4016059339046478,0.022590458393096924,0.051672838628292084,0.17188483476638794,0.8326337044471801,-0.11690008748019966,0.5343513867516712,0.08674250077571427,-0.10214548788428329,1.1552277810526905,0.27421605012104455
1773063780700377600,1.9464876651763916,-0.8699262142181396,0.13221734762191772,-0.25950631499290466,0.9104406833648682,0.10797557234764099,-0.3992980718612671,0.0026757121086120605,0.09229602664709091,0.1595214605331421,0.8318423731425765,-0.12123459382249063,0.5344652878477305,0.08767695093831898,-0.10818648883441219,1.1574825405790687,0.28075180278066914
1773063780710414592,1.9565246105194092,-0.7554386854171753,0.08805840462446213,-0.3079305589199066,0.9105729460716248,0.11381601542234421,-0.3973696529865265,-0.028447210788726807,0.11657640337944031,0.13397246599197388,0.8311862126006351,-0.12530326852431353,0.5344289193324273,0.08839780265096357,-0.11406318807536746,1.1593135959776386,0.2866271600751866
1773063780720451840,1.9665617942810059,-0.5547361969947815,0.08078771084547043,-0.4077399671077728,0.9104691743850708,0.1196851059794426,-0.3958806097507477,-0.0445634126663208,0.1197253093123436,0.08931624889373779,0.8307356588737207,-0.12890301533695803,0.534269319316297,0.08842315571267811,-0.11997270076161212,1.1606463996423562,0.29079224255458797
1773063780730489856,1.9765996932983398,-0.39549267292022705,0.13015338778495789,-0.4951978921890259,0.9103314280509949,0.12569764256477356,-0.3943307101726532,-0.04448676109313965,0.11575740575790405,0.0531289279460907,0.8303677977541535,-0.13197780244806653,0.534243865443372,0.08749055625077695,-0.12603102588865875,1.1620237611563757,0.2927688743521051
1773063780740526592,1.9866366386413574,-0.2573145627975464,0.15452291071414948,-0.5035711526870728,0.9102487564086914,0.1316385120153427,-0.39257946610450745,-0.03779691457748413,0.11468416452407837,0.05050790309906006,0.8300043965351339,-0.13462133558955525,0.5344037432571018,0.08592200814059102,-0.1320216982313409,1.163611679129675,0.29321425799840756
1773063780750563584,1.996673583984375,-0.00819736160337925,0.14238063991069794,-0.40132030844688416,0.9102134704589844,0.13639897108078003,-0.3910331428050995,-0.010356783866882324,0.13490232825279236,0.0272940993309021,0.8297280811905842,-0.13637117653334777,0.5346833896439773,0.08407127121072616,-0.13682548851171203,1.1650308390479003,0.29217463276159134
1773063780760601856,2.006711721420288,0.4360243082046509,0.1435558944940567,-0.26264283061027527,0.9103051424026489,0.13862769305706024,-0.3900345265865326,0.020206332206726074,0.17144615948200226,-0.022456347942352295,0.8296518257410299,-0.13632564640875244,0.5351617102731933,0.0818238172497981,-0.13907559538432382,1.1659938748227916,0.2884111710588632
1773063780770638592,2.0167486667633057,0.9287960529327393,0.16537795960903168,-0.17909987270832062,0.910618782043457,0.13791941106319427,-0.3895532786846161,0.034342825412750244,0.20627310872077942,-0.06554007530212402,0.8298042912262514,-0.13396907587634696,0.5359810080406063,0.0787498227816284,-0.13836044003692927,1.166565186632883,0.2806188348165993
1773063780780676864,2.0267868041992188,1.410812497138977,0.15366776287555695,-0.17758719623088837,0.9110086560249329,0.13492250442504883,-0.3896910846233368,0.02113550901412964,0.22838924825191498,-0.06633305549621582,0.8302345970130814,-0.12946978645735532,0.5370214415777527,0.07453899890849432,-0.1353352576352586,1.1665920886221532,0.2684644773580281
1773063780790713856,2.0368237495422363,1.9154733419418335,0.1649772971868515,-0.23906852304935455,0.9113464951515198,0.13027824461460114,-0.39048096537590027,-0.0047454833984375,0.21493662893772125,-0.053229331970214844,0.8309596472106515,-0.12301092471889846,0.5381708168707124,0.06889633215297532,-0.130649604717792,1.165993619294704,0.25167262286733694
1773063780800750848,2.046860694885254,2.3725128173828125,0.2315102517604828,-0.31797531247138977,0.9117695093154907,0.12440133839845657,-0.3914084732532501,-0.0324055552482605,0.16339465975761414,-0.0445045530796051,0.831813655952406,-0.11471207702080652,0.5395710421256515,0.06156446465362451,-0.12472446113315341,1.1653023228656254,0.23000451848236073
1773063780810788608,2.056898593902588,2.6899726390838623,0.3035925328731537,-0.36858269572257996,0.9124089479446411,0.11759023368358612,-0.39202365279197693,-0.05013477802276611,0.09472057223320007,-0.007756590843200684,0.8325988613940802,-0.1049612613533514,0.541268238501287,0.05283056923896434,-0.11786293110657713,1.1649870802809823,0.20442702883458058
1773063780820825856,2.0669357776641846,2.828225612640381,0.3732485771179199,-0.37640440464019775,0.9133022427558899,0.11012408882379532,-0.3921120762825012,-0.05087536573410034,0.02844100445508957,0.052680253982543945,0.8331741947671909,-0.09433149685820798,0.5431809417086241,0.04332354273473979,-0.11034790088258845,1.1652601404938607,0.17665653325961778
1773063780830862848,2.076972723007202,2.8251049518585205,0.4164850115776062,-0.37776634097099304,0.9144790768623352,0.10243696719408035,-0.39145201444625854,-0.039387524127960205,-0.03668685257434845,0.10696715116500854,0.8334260938774879,-0.08341820270319875,0.5452663542197485,0.0335696904988974,-0.10261697030567028,1.1663365918996464,0.1482453767253771
1773063780840900608,2.087010622024536,2.717062473297119,0.3487347364425659,-0.34888383746147156,0.9156385660171509,0.09490448236465454,-0.3906395137310028,-0.01839125156402588,-0.10412078350782394,0.1379539966583252,0.8335109817704309,-0.07272982788119084,0.5471659854582365,0.02406741357219272,-0.09504752612616094,1.1675452765746424,0.12054600158086701
1773063780850937856,2.097047805786133,2.520291805267334,0.27778613567352295,-0.2755810022354126,0.9165762662887573,0.08752501010894775,-0.3901633024215698,0.009235501289367676,-0.16386473178863525,0.16413486003875732,0.8335771568438398,-0.06249858677192128,0.5486458620507825,0.015191749526568495,-0.0876371439086734,1.1683543662913605,0.09440812182510223
1773063780860974848,2.1070847511291504,2.202838182449341,0.2110004425048828,-0.18485455214977264,0.9173486232757568,0.0803275853395462,-0.38989609479904175,0.03153437376022339,-0.2104392945766449,0.19276782870292664,0.8336025193748434,-0.053067125446640974,0.549759790352729,0.007408866476285551,-0.08041422288006006,1.168904498784563,0.0709892606578806
1773063780871012608,2.1171226501464844,1.7498804330825806,0.12432307004928589,-0.17018933594226837,0.9178735017776489,0.0741594135761261,-0.38988301157951355,0.035175204277038574,-0.2415940910577774,0.23502153158187866,0.8336310324401492,-0.045107351965665544,0.5504760016445761,0.0009504159620995164,-0.07422755795171965,1.1691224719135025,0.05140976427190902
1773063780881049600,2.127159595489502,1.2490010261535645,-0.020470604300498962,-0.2132401317358017,0.917951762676239,0.07002079486846924,-0.39046332240104675,0.027574360370635986,-0.26856815814971924,0.27834177017211914,0.8337947428262803,-0.039195456118362455,0.5506651083680129,-0.004230213254999463,-0.07007813642143963,1.1686176965941397,0.036209649172848246
1773063780891087872,2.137197732925415,0.7172865867614746,-0.20981989800930023,-0.267107754945755,0.9173411726951599,0.06837500631809235,-0.3921862840652466,0.027101635932922363,-0.29028356075286865,0.3207293748855591,0.834282791940031,-0.03564369744426021,0.5501239712516778,-0.008090141150933783,-0.0684283975337552,1.1667889367074005,0.025781158772305916
1773063780901124608,2.1472346782684326,0.22326165437698364,-0.44069305062294006,-0.30609431862831116,0.9158656597137451,0.06916419416666031,-0.3954823315143585,0.025113284587860107,-0.2984885573387146,0.3663075566291809,0.8352405011668332,-0.03437912308335277,0.5487047515638982,-0.010692932166126686,-0.06921945970957029,1.163169506194162,0.019914639295105806
1773063780911161600,2.15727162361145,-0.25267595052719116,-0.6605843901634216,-0.33923226594924927,0.9134287238121033,0.07219930738210678,-0.400543749332428,0.008553087711334229,-0.294367253780365,0.379730761051178,0.8367352343683543,-0.035252379694268185,0.5463381661318505,-0.012085453503300703,-0.07226217900634002,1.1575420113572927,0.01834369036306055
1773063780921199872,2.1673097610473633,-0.6667253375053406,-0.8088790774345398,-0.35481947660446167,0.9101691246032715,0.07726046442985535,-0.40696772933006287,-0.02035301923751831,-0.27055883407592773,0.36306822299957275,0.8386495360443207,-0.0381123334172333,0.5431975540719525,-0.012274245715775282,-0.07733753276751414,1.1503281761257897,0.02088140026305
1773063780931236864,2.177346706390381,-1.0343916416168213,-0.8734077215194702,-0.39253705739974976,0.906384289264679,0.08417320251464844,-0.4139834940433502,-0.05761420726776123,-0.22615623474121094,0.3358585238456726,0.840749373708301,-0.04267820621073972,0.539617286967772,-0.011498755576738897,-0.0842729194376732,1.1423501617825524,0.02682304877553592
1773063780941272832,2.187382698059082,-1.4219415187835693,-0.8872332572937012,-0.4565194845199585,0.9023057222366333,0.09318364411592484,-0.42090535163879395,-0.0897599458694458,-0.16941653192043304,0.33327412605285645,0.8428254882502124,-0.04898680559538572,0.5358615659192072,-0.009898997996775218,-0.0933190267288257,1.1343244900435316,0.03597830856020141
1773063780951310592,2.197420597076416,-1.7729592323303223,-0.875063955783844,-0.468952476978302,0.8981220126152039,0.10422378033399582,-0.4272167384624481,-0.10196423530578613,-0.10561235249042511,0.3441173732280731,0.8447203956740912,-0.056987956259802484,0.5321127765078313,-0.0074664671623220595,-0.10441340158140373,1.1267950943256,0.04831571222020998
1773063780961347840,2.2074577808380127,-2.033101797103882,-0.8826547861099243,-0.4603925347328186,0.8938080668449402,0.11661490797996521,-0.4330219328403473,-0.08574843406677246,-0.035743348300457,0.3078083097934723,0.8464592934458018,-0.06627231682997954,0.5282963270091022,-0.00418446166219179,-0.11688084748555516,1.11965085139819,0.06341375175202063
1773063780971384832,2.2174947261810303,-2.1276907920837402,-0.8775511980056763,-0.507463812828064,0.8893836736679077,0.13007906079292297,-0.43826499581336975,-0.06850659847259521,0.024660319089889526,0.21856892108917236,0.8480167030736532,-0.07637756728579843,0.5244368129661088,-0.000514991851760471,-0.1304487237932707,1.112946358392396,0.08000127870358217
1773063780981422592,2.2275326251983643,-1.969552993774414,-0.9346961975097656,-0.5424787402153015,0.8846603631973267,0.143907830119133,-0.4434710443019867,-0.04663240909576416,0.0678383857011795,0.11325562000274658,0.8495452545415605,-0.0864684901811663,0.5203726291847776,0.0028921236429699693,-0.14440922283300142,1.1061175513382837,0.0960515310324831
1773063780991459840,2.237569808959961,-1.7057126760482788,-1.0037790536880493,-0.4806346595287323,0.8795368671417236,0.15672089159488678,-0.44928112626075745,-0.011372864246368408,0.10528779029846191,0.041871488094329834,0.8512386879742818,-0.09555420272589493,0.5159736754351845,0.005773530219124895,-0.15736963371824894,1.0985337561627782,0.11001471750888794
1773063781001497856,2.247607707977295,-1.4387320280075073,-1.0519590377807617,-0.3299674093723297,0.8741980195045471,0.16747820377349854,-0.45577284693717957,0.02378171682357788,0.14888226985931396,0.03305858373641968,0.8531206855960611,-0.10322677205660495,0.5113294521528013,0.008459889033558267,-0.16827118995720122,1.0902062385485514,0.12202216553718483
1773063781011534592,2.2576446533203125,-1.1823947429656982,-1.0566322803497314,-0.119336798787117,0.8689264059066772,0.17550484836101532,-0.46277961134910583,0.030655503273010254,0.19536001980304718,0.04706919193267822,0.8551389287420595,-0.10929979961545283,0.5066199307398569,0.011278843387978951,-0.1764185577384017,1.0814196134211829,0.1324741844914392
1773063781021571584,2.26768159866333,-0.9371423125267029,-0.9813708066940308,0.0926542803645134,0.8641164302825928,0.18054260313510895,-0.46979498863220215,0.010334253311157227,0.23503053188323975,0.05104804039001465,0.8571414541848407,-0.11372859064819596,0.5021636348172882,0.01435824365692679,-0.18153809232297946,1.072825265452067,0.1416273758529292
1773063781031609856,2.277719736099243,-0.7077896595001221,-0.8792575001716614,0.21451546251773834,0.859990656375885,0.18304941058158875,-0.47634977102279663,-0.030690670013427734,0.26262933015823364,0.04997342824935913,0.8589919614332385,-0.11672497826260143,0.4981971372759992,0.017545487033308053,-0.18408738351805698,1.064962956847275,0.14952040006825792
1773063781041646592,2.2877566814422607,-0.4689123332500458,-0.8014913201332092,0.22669996321201324,0.8563770055770874,0.1839255392551422,-0.48248299956321716,-0.0794299840927124,0.2702217698097229,0.044067442417144775,0.8607129662225879,-0.11854828916763778,0.4946764661366355,0.020363369023446057,-0.18497864243972686,1.0577232706124273,0.15561138985001002
1773063781051683584,2.2977936267852783,-0.19840535521507263,-0.7623698711395264,0.17154283821582794,0.852959394454956,0.1838168054819107,-0.48854032158851624,-0.10681992769241333,0.258184552192688,0.025375068187713623,0.862420183411601,-0.11933197873688639,0.49141603966965675,0.022396306096272398,-0.18486802192087823,1.0506477349321104,0.15928883544359868
1773063781061721856,2.3078317642211914,-0.015477865934371948,-0.7469562888145447,0.08601915091276169,0.8494799733161926,0.18320995569229126,-0.4947907328605652,-0.1040118932723999,0.24009937047958374,0.012796103954315186,0.864199583725453,-0.1193028375078539,0.48823300752850907,0.02354712236319332,-0.18425069232725763,1.0433714421569524,0.16058985476199533
1773063781071758848,2.317868709564209,0.07618245482444763,-0.7790141105651855,0.031915970146656036,0.8457942605018616,0.1825902909040451,-0.5012912154197693,-0.08024555444717407,0.2202112227678299,0.022470414638519287,0.8660636953880824,-0.1188922751223059,0.4849938375219695,0.024068633182579804,-0.183620388500979,1.0357714314576452,0.16038538772478675
1773063781081796608,2.327906608581543,0.1674841344356537,-0.846907913684845,0.09875226020812988,0.8417855501174927,0.18147313594818115,-0.508394181728363,-0.039325833320617676,0.19609034061431885,0.023988664150238037,0.8681024117612391,-0.1180571322208395,0.4815240620972875,0.024399839475586736,-0.1824842607889697,1.0274793906590582,0.15936650269812566
1773063781091833856,2.3379437923431396,0.3357301354408264,-1.0142945051193237,0.263759583234787,0.837352454662323,0.17873123288154602,-0.5166199207305908,0.021183311939239502,0.17273974418640137,0.02260136604309082,0.8704514592350341,-0.11637735052781621,0.477646678077091,0.02498755309687679,-0.1796967613009326,1.0179934761254046,0.15786160952125808
1773063781101870848,2.3479807376861572,0.28819990158081055,-1.1512057781219482,0.5667157769203186,0.8323522210121155,0.1735631674528122,-0.5263700485229492,0.07302796840667725,0.18124942481517792,0.096072256565094,0.87320290130622,-0.11373577697739322,0.47315868020319346,0.02648758027329515,-0.1744466005440974,1.0069014888492824,0.15690279333654175
1773063781111908608,2.358018636703491,0.061226144433021545,-0.9373472929000854,0.8928222060203552,0.8278852701187134,0.16646504402160645,-0.5356261730194092,0.07975327968597412,0.24390482902526855,0.21981501579284668,0.8757433971968543,-0.11098505644577149,0.46890215785121336,0.029775742934134136,-0.16724359651009088,0.9965462420228035,0.15911536570138832
1773063781121945600,2.368055582046509,-0.07604622840881348,-0.5170897841453552,0.9549134969711304,0.8255298733711243,0.15874750912189484,-0.5415714979171753,0.024567782878875732,0.32423895597457886,0.12020003795623779,0.8772760619252378,-0.1086766059033531,0.466265635491938,0.03424149253825303,-0.1594219437670327,0.9901944822227923,0.16423338093014536
1773063781131982848,2.3780927658081055,0.1484987884759903,-0.2020214945077896,0.6271672248840332,0.8248454332351685,0.15190589427947998,-0.5445683002471924,-0.10318100452423096,0.32868492603302,-0.13769793510437012,0.8779834928218159,-0.10653700446779711,0.46515127612931106,0.03780444518890971,-0.15249625670714004,0.9872794908818395,0.1682305382760684
1773063781142020608,2.3881306648254395,0.4071047604084015,0.08824682235717773,-0.045559514313936234,0.8250263929367065,0.14782331883907318,-0.5454170107841492,-0.24018752574920654,0.17224504053592682,-0.40570908784866333,0.8782031931900917,-0.10445450782069156,0.4651674421238895,0.03831011907528135,-0.14836705425459756,0.9866641714191351,0.16706885865880822
1773063781152057600,2.398167610168457,0.40107762813568115,0.17084196209907532,-0.6972593665122986,0.8252677321434021,0.14870207011699677,-0.5448126196861267,-0.2920340895652771,-0.045018598437309265,-0.5512871742248535,0.8781574512027928,-0.10338607964668933,0.4657306076470379,0.03529555222216403,-0.14925562474557405,0.9873085974850758,0.16076144340257592
1773063781162094848,2.4082047939300537,0.40623483061790466,0.06667722016572952,-0.9623458981513977,0.8246167302131653,0.15373310446739197,-0.5444018840789795,-0.19783151149749756,-0.20980915427207947,-0.5853893756866455,0.8782260623526976,-0.10361525564423282,0.465900140443894,0.030330677111114555,-0.15434518601957384,0.9872925410137465,0.15221264998572093
1773063781172132608,2.4182426929473877,0.5849118828773499,0.039512038230895996,-0.682824969291687,0.8235415816307068,0.1581077128648758,-0.544776201248169,0.011739730834960938,-0.2854422926902771,-0.655785322189331,0.8784927230739098,-0.10338580566177641,0.46575021319028226,0.02527066993817791,-0.15877396914116454,0.9863762604050823,0.1429831583224928
1773063781182169600,2.4282796382904053,0.7127760648727417,0.03526243567466736,-0.07356372475624084,0.8231102228164673,0.15775568783283234,-0.5455297827720642,0.22495496273040771,-0.26034051179885864,-0.6223931908607483,0.8788004391529444,-0.10130544758989246,0.4658028634164052,0.021789108407189176,-0.15841746444156152,0.9854987776436193,0.13476320758968519
1773063781192207872,2.4383177757263184,0.7505248188972473,0.1014663577079773,0.6099321842193604,0.8238564729690552,0.15148596465587616,-0.5461800694465637,0.3249014616012573,-0.15546849370002747,-0.4377219080924988,0.8790033994692185,-0.09733721719731107,0.466299716650519,0.021052469830033376,-0.15207141756935746,0.9853674658145619,0.12964181751400858
1773063781202244864,2.448354721069336,0.7880713939666748,0.26281797885894775,1.0676320791244507,0.826113760471344,0.14014743268489838,-0.5457974672317505,0.3062562942504883,-0.03470918536186218,-0.2937716245651245,0.8788494680070714,-0.09189468509153247,0.46760735974521617,0.022856528547626348,-0.1406103109428756,0.9869492771942209,0.12772020455238278
1773063781212281600,2.4583916664123535,0.9721042513847351,0.3852902054786682,1.0609362125396729,0.8293764591217041,0.1263098269701004,-0.544224739074707,0.1858212947845459,0.0537744015455246,-0.25847911834716797,0.8783315001413949,-0.08549602808857476,0.46965737968611865,0.02542053152504195,-0.1266481246618051,0.9900851016633933,0.12630749237416206
1773063781222319872,2.4684298038482666,1.357269525527954,0.48762190341949463,0.6238968372344971,0.8328099250793457,0.11281929165124893,-0.5419403314590454,0.014464795589447021,0.08186758309602737,-0.3055174946784973,0.8776570545620356,-0.07838446284406193,0.4721077191749533,0.02623348166735381,-0.11306000743104909,0.993903080770376,0.12112724046356121
1773063781232356864,2.478466749191284,1.7825124263763428,0.5244477987289429,0.022422466427087784,0.8359331488609314,0.1015547439455986,-0.539353609085083,-0.12221860885620117,0.05416116863489151,-0.3574511408805847,0.8769937736146451,-0.07069214340062903,0.4746849730571546,0.023635036696565467,-0.10173012273271724,0.9977948077793619,0.10935057543880045
1773063781242393856,2.4885036945343018,1.9910888671875,0.5232600569725037,-0.4233725965023041,0.8385408520698547,0.09308532625436783,-0.5368280410766602,-0.15845662355422974,0.004174187779426575,-0.29605764150619507,0.8764105458042712,-0.06282247623018088,0.47711561309617545,0.017848123203327404,-0.09322028058356008,1.0013461593899773,0.09175828546884639
1773063781252431616,2.4985415935516357,1.8734784126281738,0.5575851798057556,-0.5355914235115051,0.8410010933876038,0.08681058883666992,-0.5340235233306885,-0.08414989709854126,-0.036029331386089325,-0.13873648643493652,0.8757269631886593,-0.0554140002264925,0.4794971683394512,0.010682526476543755,-0.08691999253363858,1.0050486382510686,0.07218662172372371
1773063781262468864,2.5085787773132324,1.5050417184829712,0.5540570020675659,-0.35347166657447815,0.8436249494552612,0.08159643411636353,-0.5306967496871948,0.043292224407196045,-0.06925205886363983,0.008571445941925049,0.8748313079346076,-0.04901342404510751,0.4819225281734079,0.004316590027219686,-0.08168724866591519,1.0092776939177044,0.05500497943173131
1773063781272506624,2.5186166763305664,1.0614910125732422,0.4275842607021332,-0.041263967752456665,0.8461131453514099,0.07646077126264572,-0.5274905562400818,0.16545307636260986,-0.10168352723121643,0.09449189901351929,0.8739252342159151,-0.043836688023007934,0.48407959348585494,0.00016444315493574762,-0.076535466678649,1.0133282815514875,0.042866892070736795
1773063781282543616,2.528653621673584,0.6157991290092468,0.2445361614227295,0.22316023707389832,0.8479645252227783,0.07118914276361465,-0.5252505540847778,0.2349058985710144,-0.13803791999816895,0.12432593107223511,0.873282683573789,-0.03988358208302794,0.48557597232740635,-0.0015753066154585219,-0.071249412656551,1.0162159397137356,0.03608099403550881
1773063781292580864,2.5386908054351807,0.18262967467308044,0.05938747897744179,0.3180024325847626,0.8489644527435303,0.06670361757278442,-0.524223268032074,0.236805260181427,-0.15628796815872192,0.13039398193359375,0.872988904619004,-0.037407096863743536,0.48630141297642504,-0.0014308615341926169,-0.06675318518871182,1.0176188991157855,0.03396616013511269
1773063781302618624,2.5487287044525146,-0.21835078299045563,-0.09524711221456528,0.2647429406642914,0.8490439653396606,0.06427832692861557,-0.5243975520133972,0.18589872121810913,-0.15364903211593628,0.12556332349777222,0.8730400356828081,-0.03674487535949978,0.48626231438037004,-0.0001221901880065411,-0.06432267322126912,1.0175121906644442,0.03560307479168708
1773063781312655616,2.5587656497955322,-0.5080183148384094,-0.15059597790241241,0.13892045617103577,0.8484857678413391,0.0644875168800354,-0.5252746343612671,0.12002009153366089,-0.130588561296463,0.09706723690032959,0.873289649385959,-0.0378271603207347,0.4857281060229295,0.0016270588962560037,-0.06453229925776366,1.0164704748673514,0.039682207169777356
1773063781322692608,2.56880259513855,-0.658233642578125,-0.13314189016819,-0.0016593015752732754,0.8477766513824463,0.06705517321825027,-0.5260974764823914,0.07415944337844849,-0.10068552941083908,0.03978461027145386,0.8735202926985388,-0.04023760823898869,0.4851105136846518,0.0033410519848328735,-0.0671055288242665,1.0153951846258595,0.04499273800731526
1773063781332730880,2.578840732574463,-0.6550063490867615,-0.11616051197052002,-0.09703534841537476,0.8470824956893921,0.0710403174161911,-0.5266920328140259,0.059182703495025635,-0.0630599781870842,-0.025080978870391846,0.8736840068683764,-0.04327090232652054,0.4845426848507356,0.004715658572378053,-0.07110020453555621,1.0145217600519347,0.05032151086966823
1773063781342767616,2.5888776779174805,-0.5584033727645874,-0.10248411446809769,-0.15286612510681152,0.8464171886444092,0.07532504945993423,-0.5271660685539246,0.07303166389465332,-0.026420623064041138,-0.07271790504455566,0.8738143528339352,-0.046211928304262,0.48402625543819977,0.005615651219965909,-0.07539646033357858,1.013765742066552,0.05473238403796441
1773063781352804608,2.598914623260498,-0.48416540026664734,-0.09643567353487015,-0.20586849749088287,0.8457512855529785,0.07958612591028214,-0.5276085734367371,0.08756780624389648,0.006290331482887268,-0.08346009254455566,0.8739380525290729,-0.048876739051461074,0.4835357018804001,0.0060433551606712795,-0.07967038448141935,1.013035762490341,0.05804694686583282
1773063781362842880,2.608952760696411,-0.4298419952392578,-0.09357783198356628,-0.24612244963645935,0.8450549840927124,0.08395889401435852,-0.5280462503433228,0.08499866724014282,0.01789350062608719,-0.09062129259109497,0.8740627033215085,-0.05140798356780925,0.4830466700046565,0.006116084870591554,-0.08405784657678196,1.0122932595659866,0.060607552847042494
1773063781372879616,2.6189897060394287,-0.3244972229003906,-0.0476837158203125,-0.26098835468292236,0.844430148601532,0.08816071599721909,-0.5283612012863159,0.07536977529525757,-0.006282031536102295,-0.14496344327926636,0.8741547372515305,-0.053655137205270445,0.4826391400043745,0.005848128226038378,-0.08827531694734081,1.0116927509186915,0.06229918755339989
1773063781382917632,2.6290276050567627,-0.17982126772403717,0.042183589190244675,-0.2642192840576172,0.8441693186759949,0.09175067394971848,-0.5281667113304138,0.06507152318954468,-0.048278361558914185,-0.21368509531021118,0.8741030678189695,-0.05536566986725493,0.48254666519494227,0.005222222758300682,-0.09187989055035022,1.0117193530247082,0.06286897334683414
1773063781392954880,2.6390647888183594,-0.056260451674461365,0.11451531201601028,-0.2364766001701355,0.8443599939346313,0.094493567943573,-0.5273776054382324,0.05545073747634888,-0.0909382775425911,-0.2492794394493103,0.8738825603305792,-0.05641705727646559,0.48283362037239524,0.004256325146626521,-0.09463476194481,1.012492922306733,0.0622376370046875
1773063781402991872,2.649101734161377,-0.029830172657966614,0.1306937336921692,-0.20356525480747223,0.8448077440261841,0.09654930233955383,-0.5262871980667114,0.05709350109100342,-0.11110617965459824,-0.23741519451141357,0.8735748443576884,-0.05706655888606727,0.4833216521761408,0.0032633728104953684,-0.09669993755673253,1.0136604183548101,0.06118846428096435
1773063781413029632,2.659139633178711,-0.043686024844646454,0.15836066007614136,-0.19275322556495667,0.8453525900840759,0.09840036928653717,-0.5250680446624756,0.05415302515029907,-0.10798288136720657,-0.17621064186096191,0.873228819379908,-0.05764373100387951,0.4838834457751712,0.002347638647207633,-0.09855985906152441,1.014989754413656,0.060214174482518035
1773063781423066624,2.6691765785217285,-0.06398995965719223,0.21885356307029724,-0.23847010731697083,0.8461100459098816,0.10050312429666519,-0.5234472155570984,0.027013123035430908,-0.1099177822470665,-0.10596257448196411,0.8727667242499211,-0.058350694504474075,0.4846355323370474,0.0013927650121415408,-0.10067309084377453,1.0167753151455334,0.05932374315498502
1773063781433103872,2.679213762283325,-0.04121927171945572,0.3083247244358063,-0.3302057683467865,0.8471996188163757,0.10318713635206223,-0.5211576819419861,-0.011262118816375732,-0.12177234888076782,-0.054846346378326416,0.8721117140074461,-0.05924373635725156,0.4857070651294321,0.00015150635842991713,-0.10337113612630833,1.0193091163118722,0.05815751449808243
1773063781443141632,2.689251661300659,0.003465374931693077,0.39708924293518066,-0.4503686726093292,0.8486319184303284,0.1065937876701355,-0.5181328058242798,-0.03034883737564087,-0.1389729529619217,-0.03000861406326294,0.8712424213684661,-0.06020972721440347,0.48714308831851316,-0.0017235718319396536,-0.10679668569577822,1.0226550537586445,0.05600640311540303
1773063781453178624,2.6992886066436768,0.03062136098742485,0.40261420607566833,-0.5361261367797852,0.8501941561698914,0.11074952036142349,-0.5146887302398682,-0.018254458904266357,-0.1574414074420929,-0.02638787031173706,0.8702450537039331,-0.0612517236165937,0.48877791821951366,-0.0042365890512158395,-0.11097717907446636,1.0264318632645886,0.05285282252425512
1773063781463216896,2.70932674407959,0.01721101440489292,0.31752514839172363,-0.5415957570075989,0.8514461517333984,0.11527486890554428,-0.5116162896156311,0.022440075874328613,-0.1771950125694275,-0.036052167415618896,0.8693447935234444,-0.06239782703233264,0.49020236904685777,-0.006920016850655294,-0.11553170932986453,1.029730601757622,0.04949337431717548
1773063781473253632,2.7193636894226074,-0.0499722845852375,0.27863287925720215,-0.488948792219162,0.8523284196853638,0.11974729597568512,-0.5091137290000916,0.062481701374053955,-0.19869627058506012,-0.04023313522338867,0.8686023460699217,-0.06366009741062909,0.491315089855733,-0.009318539790029433,-0.12003534531927686,1.0323489454396328,0.046719165522692
1773063781483290624,2.729400634765625,-0.20594483613967896,0.32956743240356445,-0.454580157995224,0.8533000946044922,0.12440706044435501,-0.5063615441322327,0.07065010070800781,-0.21821808815002441,-0.03738546371459961,0.8677869714920695,-0.06529367924392557,0.49249971810888316,-0.01125386489030418,-0.12473022518500482,1.0352324019097476,0.04514828501343005
1773063781493328896,2.739438772201538,-0.42409396171569824,0.35528770089149475,-0.43192970752716064,0.8544797897338867,0.12976086139678955,-0.5030173659324646,0.05280792713165283,-0.23330697417259216,-0.0263710618019104,0.8668049890335672,-0.06769079786844685,0.493871702801434,-0.012565423576581794,-0.13012779366011898,1.0387399961767276,0.04547763650142574
1773063781503365632,2.7494757175445557,-0.6543772220611572,0.36539626121520996,-0.44845542311668396,0.8557032346725464,0.13620583713054657,-0.49921947717666626,0.03171747922897339,-0.24281898140907288,-0.00624316930770874,0.8656980925925863,-0.07106319978744384,0.49531836093112663,-0.013291743015206253,-0.13663054617191955,1.0426701933130598,0.04784854969439033
1773063781513402624,2.7595126628875732,-0.9117435216903687,0.40379026532173157,-0.5275006890296936,0.8569366335868835,0.14425231516361237,-0.49482423067092896,0.01023566722869873,-0.24227476119995117,0.022015392780303955,0.8644223485299672,-0.0755951472228805,0.49686342304584497,-0.013645644153724303,-0.14475734037581584,1.0471348486042105,0.052097940847415175
1773063781523440896,2.7695508003234863,-1.170296549797058,0.40726861357688904,-0.6069350838661194,0.8581085801124573,0.15430328249931335,-0.4897347390651703,-0.008682310581207275,-0.21956512331962585,0.047001004219055176,0.8629478389862351,-0.08147544567458745,0.4984921017735061,-0.013726565409619156,-0.1549222575958838,1.0521889177998407,0.05826954963585957
1773063781533477888,2.779587745666504,-1.3799221515655518,0.3885146379470825,-0.6331096887588501,0.8590514659881592,0.16591143608093262,-0.4842562973499298,-0.00776362419128418,-0.17772172391414642,0.04893827438354492,0.8613638036275549,-0.08850423506596843,0.5000388576023264,-0.013441706393906485,-0.16668218921155797,1.0574878278026294,0.06632182731805672
1773063781543514624,2.7896246910095215,-1.505059003829956,0.37351319193840027,-0.617009162902832,0.8598063588142395,0.1782890111207962,-0.47848308086395264,0.005733191967010498,-0.1281181126832962,0.03449815511703491,0.859697539837667,-0.096275158991716,0.5014873359849528,-0.012716151685592045,-0.17924732957175057,1.0629756566502675,0.07598683828080542
1773063781553552640,2.7996625900268555,-1.5628074407577515,0.3615671694278717,-0.6011072993278503,0.86043381690979,0.1908671259880066,-0.47246527671813965,0.01732802391052246,-0.08468121290206909,0.021476536989212036,0.8579610296772052,-0.10440926078245626,0.5028578933911827,-0.011642426646891704,-0.19204543675057414,1.0686433819265464,0.08672968546212706
1773063781563589888,2.809699773788452,-1.593621015548706,0.3348711133003235,-0.6088677644729614,0.8608970642089844,0.20348714292049408,-0.46631452441215515,0.0238228440284729,-0.05176897346973419,0.019750773906707764,0.8561821504237463,-0.11267472592976908,0.5041300816156884,-0.010460556343139025,-0.20491826996448412,1.0743778074687083,0.09789435098115162
1773063781573627648,2.819737672805786,-1.6380881071090698,0.288100004196167,-0.6485351324081421,0.8610098361968994,0.21637625992298126,-0.46026450395584106,0.015805959701538086,-0.03150077164173126,0.04945218563079834,0.854427605411969,-0.1211461149986835,0.5051646866899563,-0.009259445489516578,-0.21810126446231762,1.079881661054631,0.1093783952975492
1773063781583664640,2.8297746181488037,-1.7355760335922241,0.2842656075954437,-0.7337570786476135,0.8607573509216309,0.23006406426429749,-0.45405659079551697,-0.005273342132568359,-0.02626766264438629,0.10373002290725708,0.8526210172757765,-0.13010282714687316,0.5060088573112586,-0.008109786319528035,-0.23214350509568984,1.0853850897372017,0.12138312448928876
1773063781593701888,2.8398118019104004,-1.8187885284423828,0.29645195603370667,-0.813296914100647,0.8602297902107239,0.24479879438877106,-0.4473011791706085,-0.029449760913848877,-0.03644002974033356,0.14175918698310852,0.8506470168396651,-0.13966458482984093,0.5067970143516988,-0.007091862170609859,-0.24731216710779094,1.0912937821060131,0.133961920856394
1773063781603739648,2.8498497009277344,-1.8317227363586426,0.28589174151420593,-0.8526816368103027,0.8594262003898621,0.26013556122779846,-0.4401317536830902,-0.034444570541381836,-0.05409616231918335,0.13820615410804749,0.8485442988430311,-0.1495793740930858,0.5075038269892316,-0.006193158639450841,-0.2631625871220018,1.0974975872455275,0.14688003480137196
1773063781613776640,2.859886646270752,-1.7696393728256226,0.2497270554304123,-0.8585994243621826,0.858299732208252,0.2754276692867279,-0.4329679012298584,-0.014839649200439453,-0.0649937093257904,0.1018216609954834,0.8464360328885198,-0.15941158776273298,0.508039363583,-0.0054762079091956505,-0.279034563841463,1.1035963443196466,0.15952389617754323
1773063781623813632,2.8699235916137695,-1.6641614437103271,0.19727317988872528,-0.8453698754310608,0.8568443059921265,0.29017138481140137,-0.42616698145866394,0.00939708948135376,-0.06576040387153625,0.06610533595085144,0.8444283187169734,-0.1688514204886981,0.5083362147237744,-0.004923457459388699,-0.29440592402748034,1.1092565028108832,0.17153579998274984
1773063781633851648,2.8799617290496826,-1.5284425020217896,0.16397367417812347,-0.8369981050491333,0.8551031947135925,0.30416974425315857,-0.41985630989074707,0.01844722032546997,-0.06123456358909607,0.04459691047668457,0.8425597914713209,-0.1777254604287715,0.5084147045814266,-0.004603606438002429,-0.30906674763628306,1.1143740239770028,0.1825742396771843
1773063781643888640,2.8899986743927,-1.3551934957504272,0.16509459912776947,-0.8509591817855835,0.8531594276428223,0.31741809844970703,-0.41396233439445496,0.013234615325927734,-0.05672168731689453,0.029318809509277344,0.8408089156705153,-0.18594863859472438,0.5083718507996773,-0.004645768350115098,-0.323005541608806,1.1190497661702337,0.1923173832422381
1773063781653925632,2.9000356197357178,-1.1553946733474731,0.1982092708349228,-0.883678138256073,0.8510879874229431,0.32999923825263977,-0.4083503186702728,0.00653231143951416,-0.04942062497138977,0.017176032066345215,0.8391348061629555,-0.19341881477072628,0.5083443730065885,-0.005301844536569459,-0.33630277530239094,1.1234405200930189,0.20022557854681236
1773063781663963904,2.910073757171631,-0.9362339973449707,0.21655791997909546,-0.9225805401802063,0.8488999009132385,0.34196826815605164,-0.40302184224128723,0.009422242641448975,-0.03537344932556152,0.011755943298339844,0.8375359525397005,-0.2001069260238829,0.5083761339034879,-0.0066631590815461736,-0.34901065053654207,1.127545617761565,0.206090843762463
1773063781674000640,2.9201107025146484,-0.7210870981216431,0.18417401611804962,-0.9480849504470825,0.846449077129364,0.353228360414505,-0.39843904972076416,0.022508442401885986,-0.017718136310577393,0.004441887140274048,0.8361479124510475,-0.20591941945942396,0.5083086384376011,-0.00872517301128201,-0.3610196605570999,1.130847280911688,0.20970294670837925
1773063781684038656,2.9301486015319824,-0.5200448036193848,0.13997380435466766,-0.9706475138664246,0.8436468243598938,0.36382773518562317,-0.394828200340271,0.039821743965148926,-0.006756812334060669,-0.010567307472229004,0.8350362712508366,-0.2109559557605412,0.508019182399954,-0.011334201284421218,-0.37237397502560526,1.1330734136357692,0.2113580910179507
1773063781694075904,2.940185785293579,-0.30058014392852783,0.11533383280038834,-0.9817615747451782,0.8405305743217468,0.37369051575660706,-0.3922547996044159,0.047561466693878174,-0.004748225212097168,-0.02900981903076172,0.8342158465850875,-0.21513220862982246,0.5075339691071231,-0.01453804951193153,-0.3829845971132759,1.1341621190414442,0.21083824134063703
1773063781704112896,2.9502227306365967,-0.10962695628404617,0.11372209340333939,-0.993809163570404,0.8372295498847961,0.3828127384185791,-0.39051374793052673,0.05533325672149658,-0.01194790005683899,-0.04347667098045349,0.8336190970834014,-0.21846115364644464,0.5069692798812278,-0.0183304551512952,-0.39283904148343074,1.134358855564836,0.20818998979274694
1773063781714150656,2.9602606296539307,0.030190329998731613,0.09972824156284332,-1.0260400772094727,0.8337400555610657,0.3913883566856384,-0.3894772231578827,0.06330883502960205,-0.02954152226448059,-0.03827238082885742,0.8332029758653955,-0.22112934205870727,0.5063232136673035,-0.022611167972471997,-0.4021398375751982,1.1337766953091017,0.20380003221145981
1773063781724187648,2.9702975749969482,0.08311479538679123,0.07441090047359467,-1.0825483798980713,0.8299002051353455,0.399936318397522,-0.388994425535202,0.07227569818496704,-0.06509745121002197,-0.005430042743682861,0.8329192052027821,-0.2235397957728379,0.5055024768066319,-0.027255202451415474,-0.41144736953707134,1.132480815620526,0.19833943276031493
1773063781734224896,2.980334758758545,-0.009212248027324677,0.06302469223737717,-1.1534018516540527,0.8256280422210693,0.4090357720851898,-0.38862353563308716,0.07258069515228271,-0.11318305134773254,0.05805706977844238,0.8326340166570264,-0.2261573136445045,0.5045206689437096,-0.03213270316992104,-0.4213971432398886,1.130861845109587,0.1926290714754086
1773063781744262656,2.990372657775879,-0.20443233847618103,0.02820465713739395,-1.2246289253234863,0.820870578289032,0.4192788302898407,-0.38778454065322876,0.06987649202346802,-0.1712166965007782,0.12186962366104126,0.8321836297600486,-0.22958479976854312,0.5033870719797903,-0.036915332768639335,-0.43265080569403586,1.1294662179598665,0.18802890859551658
1773063781754299648,3.0004096031188965,-0.39644700288772583,-0.03152378648519516,-1.2845885753631592,0.8155143857002258,0.4307476878166199,-0.38651350140571594,0.0743781328201294,-0.23053714632987976,0.13379746675491333,0.8315885093356252,-0.23397522008049684,0.5019948689945278,-0.041440155201074816,-0.44532111457066303,1.128204593814713,0.18497715885339655
1773063781764336896,3.010446786880493,-0.5923243761062622,-0.07160888612270355,-1.3192155361175537,0.8095975518226624,0.4432784914970398,-0.38478055596351624,0.08960288763046265,-0.2845260202884674,0.11801111698150635,0.8308469896768086,-0.23927336400366794,0.5003578518023942,-0.04564671247160199,-0.459252842059014,1.1271245642819776,0.18353272506933607
1773063781774374656,3.020484685897827,-0.8656706213951111,-0.1097879633307457,-1.3468519449234009,0.8032371997833252,0.4568420648574829,-0.3822374939918518,0.1010444164276123,-0.3206115663051605,0.1299486756324768,0.8298694070358722,-0.24559995418967898,0.4985598364858589,-0.04935244360090386,-0.4744419083352938,1.1266373530113771,0.18425795976118015
1773063781784411648,3.0305216312408447,-1.2250324487686157,-0.19004446268081665,-1.3743482828140259,0.7963390350341797,0.4717321991920471,-0.37856677174568176,0.11454957723617554,-0.3270789086818695,0.15676501393318176,0.8285875357085967,-0.2533744786582397,0.4965057850552953,-0.0522111962368538,-0.49125425910724274,1.1270348099365557,0.1883324738416818
1773063781794449920,3.040559768676758,-1.5445140600204468,-0.30407020449638367,-1.393757700920105,0.7887460589408875,0.4879968464374542,-0.37381646037101746,0.13001620769500732,-0.3101556599140167,0.15865230560302734,0.8270266938126394,-0.262666309857225,0.4940629309912084,-0.05417602626826386,-0.509793290976274,1.1282151093048725,0.19594497187532608
1773063781804486656,3.0505967140197754,-1.6655784845352173,-0.42707204818725586,-1.3963478803634644,0.7804305553436279,0.5050235986709595,-0.368617981672287,0.1421005129814148,-0.27679795026779175,0.11564257740974426,0.8253711058783049,-0.27296128947254095,0.49110400344426647,-0.05542092424270021,-0.529409306195341,1.1295316456583504,0.2060878493039383
1773063781814523648,3.060633659362793,-1.5409563779830933,-0.48670488595962524,-1.3895548582077026,0.7715601325035095,0.5218032598495483,-0.36389026045799255,0.14703410863876343,-0.24047702550888062,0.040236085653305054,0.8238590913204311,-0.28318849173410193,0.4877080484350569,-0.05657938191007624,-0.5489634532967518,1.1301018783449521,0.21620042785882929
1773063781824561920,3.070671796798706,-1.2915793657302856,-0.4612349569797516,-1.4018394947052002,0.7624314427375793,0.537663459777832,-0.36002272367477417,0.14127033948898315,-0.20761585235595703,-0.031411051750183105,0.8225711926275031,-0.29255947289149076,0.484146259266487,-0.058207093914675455,-0.5676635079666297,1.1296322560607086,0.22428213601375968
1773063781834598656,3.0807087421417236,-1.0961253643035889,-0.4172288477420807,-1.4653013944625854,0.7530331611633301,0.5527763962745667,-0.35690221190452576,0.12082237005233765,-0.1876031756401062,-0.04875263571739197,0.8214503544070836,-0.30102200201022283,0.48055660223165325,-0.06058302839165001,-0.5856922762309192,1.1282027033901,0.22975832826705977
1773063781844635648,3.090745687484741,-1.1783099174499512,-0.3272947072982788,-1.5890518426895142,0.7431403398513794,0.5681760311126709,-0.3534381687641144,0.0895012617111206,-0.2099301815032959,0.014525175094604492,0.8201685578626781,-0.3093968968139146,0.47702671069192165,-0.06358219289375211,-0.6042876492360074,1.1268578958316968,0.23409642256743146
1773063781854673664,3.100783586502075,-1.6534885168075562,-0.2662386894226074,-1.7391124963760376,0.7325090169906616,0.585381805896759,-0.34750354290008545,0.06094801425933838,-0.26155978441238403,0.15759265422821045,0.8181210886489074,-0.3192278054978398,0.47364737583648076,-0.06655563048243987,-0.6253508939569896,1.1278362299995655,0.24099367784917883
1773063781864710912,3.110820770263672,-2.253767728805542,-0.2974972724914551,-1.8904730081558228,0.7207342982292175,0.6053273677825928,-0.33781754970550537,0.06222456693649292,-0.31211453676223755,0.27167072892189026,0.8149660679448006,-0.3316638129854858,0.470202449621996,-0.06884043056407628,-0.6501771032411467,1.1324901065675987,0.2535871963841544
1773063781874747648,3.1208577156066895,-2.664543628692627,-0.4179428517818451,-2.0281739234924316,0.7074313759803772,0.6276125907897949,-0.3250279426574707,0.09081685543060303,-0.3548923134803772,0.2770695984363556,0.8109044793873605,-0.3465381956266268,0.4662588484815238,-0.07034057455509392,-0.6784828171834567,1.1401132833668775,0.27188865371760484
1773063781884785664,3.1308956146240234,-2.816016674041748,-0.5604283809661865,-2.0980613231658936,0.692590057849884,0.650934636592865,-0.31081050634384155,0.13832730054855347,-0.36800622940063477,0.20709651708602905,0.8064206661953792,-0.36276003050559924,0.46151912217641317,-0.07135163590593646,-0.7088150064927397,1.1489694980379945,0.2936951807188338
1773063781894822912,3.14093279838562,-2.8720455169677734,-0.6391361355781555,-2.042840003967285,0.6769245862960815,0.6738860011100769,-0.29605886340141296,0.18791306018829346,-0.32758772373199463,0.16706103086471558,0.8017814481191646,-0.379310195890012,0.4561735819086917,-0.07194434909216978,-0.7394558567503026,1.1585044625921939,0.3175519103864623
1773063781904860672,3.150970697402954,-2.8421802520751953,-0.6454869508743286,-1.9012353420257568,0.6614719033241272,0.6954567432403564,-0.28070396184921265,0.20954549312591553,-0.2507851719856262,0.17564722895622253,0.7969821934870657,-0.3956410957860007,0.4506840829187767,-0.07191173905954637,-0.7690553711995053,1.169465652956576,0.3434865081414187
1773063781914897664,3.1610076427459717,-2.5737552642822266,-0.556547224521637,-1.7423315048217773,0.6469577550888062,0.7148718237876892,-0.26533740758895874,0.19308435916900635,-0.17634344100952148,0.14146655797958374,0.7921686489471625,-0.41089995570415244,0.44552499200961543,-0.0716769266637514,-0.7964408228284137,1.1815869812454598,0.3695558030370942
1773063781924934656,3.1710445880889893,-1.7504924535751343,-0.41947004199028015,-1.6846442222595215,0.6333292722702026,0.7315230369567871,-0.25252366065979004,0.14114582538604736,-0.11815023422241211,0.06950974464416504,0.788052655879191,-0.423669038470591,0.44072976012971954,-0.07235274029476534,-0.8205530696241792,1.191390347275692,0.3903056407450697
1773063781934972672,3.1810827255249023,-0.48696115612983704,-0.27452993392944336,-1.8095978498458862,0.6195916533470154,0.7453016638755798,-0.2462349534034729,0.06339174509048462,-0.07963699102401733,-0.0411185622215271,0.785727553678706,-0.43219968109834545,0.43598848530820905,-0.07582684833105217,-0.8409871781693948,1.1925204715798574,0.3968654228352715
1773063781945010432,3.1911203861236572,0.9970294237136841,-0.14362701773643494,-1.9647724628448486,0.6048358082771301,0.7562618851661682,-0.24948273599147797,0.0051801204681396484,-0.028280317783355713,-0.18806302547454834,0.7860140330473312,-0.4354652148839929,0.4308464637583288,-0.08320634680934175,-0.8575806320421427,1.1795777344686826,0.38288647869158043
1773063781955047424,3.201157331466675,2.2160046100616455,-0.05600995570421219,-2.0135440826416016,0.5893296599388123,0.7640363574028015,-0.26256266236305237,0.022868216037750244,0.08458119630813599,-0.29615318775177,0.788922200915454,-0.43342044147541026,0.42528271487510244,-0.09425062169836798,-0.8695463576670496,1.1516678160878813,0.34787417956228694
1773063781965085184,3.211195230484009,2.8739426136016846,-0.002875364851206541,-1.8924132585525513,0.574190616607666,0.7684206366539001,-0.2825504541397095,0.08930730819702148,0.23077058792114258,-0.23174700140953064,0.7935819316503987,-0.4274468643070453,0.41954016399375677,-0.10725122201991326,-0.8763694682401679,1.1135009095680606,0.29888840560283186
1773063781975122432,3.2212324142456055,3.217102289199829,0.023160496726632118,-1.7318719625473022,0.5602816343307495,0.7696825265884399,-0.30606067180633545,0.1454373002052307,0.3155224919319153,-0.09559640288352966,0.799036076083565,-0.4191007579507627,0.41391330031425005,-0.12071281926073318,-0.8783437380748158,1.070827381379605,0.24367710326935665
1773063781985159424,3.231269359588623,3.484992265701294,0.020902136340737343,-1.6682668924331665,0.5472975373268127,0.7683333158493042,-0.33185768127441406,0.14107227325439453,0.2504960298538208,-0.05539512634277344,0.8049031068996785,-0.40911573838938553,0.40828357425326156,-0.1343873101009087,-0.8762330823512609,1.0257156730182615,0.1849967676169895
1773063781995197184,3.241307258605957,3.559145450592041,-0.002666972577571869,-1.6939847469329834,0.5344200134277344,0.7651569247245789,-0.3590683937072754,0.10052871704101562,0.09421807527542114,-0.07125997543334961,0.8109045154904667,-0.3982577633046958,0.40231400644919985,-0.14821615849228104,-0.8712850037301978,0.9791902488432384,0.12468691379124497
1773063782005234176,3.2513442039489746,3.4289238452911377,0.061562877148389816,-1.7234240770339966,0.5214394927024841,0.7611030340194702,-0.3857758939266205,0.07757478952407837,-0.051172614097595215,-0.02666914463043213,0.8164605442319542,-0.38742136967510504,0.3962533679228721,-0.16211157405213947,-0.8650119873594878,0.9338367058273868,0.06528938142112531
1773063782015272448,3.2613823413848877,3.130566120147705,0.030281655490398407,-1.7092243432998657,0.5086129903793335,0.7568144202232361,-0.41054219007492065,0.0810476541519165,-0.15174239873886108,0.040501296520233154,0.8212515631343805,-0.3773364132782226,0.39031543580105615,-0.17554801673537876,-0.8584256202749475,0.8916927178952796,0.009519731547140184
1773063782025309440,3.2714192867279053,2.846409559249878,0.02337980642914772,-1.7558165788650513,0.49561184644699097,0.7528628706932068,-0.43308931589126587,0.09700894355773926,-0.2519931197166443,0.0016013085842132568,0.8252726842195818,-0.36841860407459304,0.38434760215762925,-0.18833372123730285,-0.8524009867315683,0.8526193063569473,-0.0420249587971065
1773063782035346176,3.281456232070923,2.199946641921997,0.08846201002597809,-1.7994804382324219,0.4824763834476471,0.75015789270401,-0.45219433307647705,0.08563888072967529,-0.3333640694618225,-0.06794726848602295,0.8281805559999637,-0.3611864450891915,0.3787442262914478,-0.20053470029037032,-0.8483008361421699,0.8177854652637829,-0.08867957518066905
1773063782045384448,3.291494369506836,1.0494928359985352,0.13115887343883514,-1.7085773944854736,0.4696861505508423,0.7510730624198914,-0.4639871418476105,0.06289133429527283,-0.3064931035041809,0.00040990114212036133,0.8291487448505812,-0.3576974592978418,0.37424451594661323,-0.21096400697174403,-0.8496858648470147,0.7915019602528566,-0.12468831832668671
1773063782055421440,3.3015313148498535,0.1339023858308792,0.20498740673065186,-1.4293208122253418,0.4585706889629364,0.7558008432388306,-0.467416375875473,0.0588090717792511,-0.18715155124664307,0.08286440372467041,0.8281886208239833,-0.3582315772893337,0.37143228870841916,-0.21865925889616036,-0.8568762997733965,0.7758457326227071,-0.14723949519700683
1773063782065458176,3.311568260192871,-0.1606442928314209,0.3134249448776245,-1.1952763795852661,0.4498876929283142,0.7619786858558655,-0.46582135558128357,0.05882507562637329,-0.05081230401992798,0.03314316272735596,0.8262302913862035,-0.3606964122421108,0.3701181093205247,-0.22417452451951375,-0.8663630819294318,0.7679995524290636,-0.1604132788289224
1773063782075496448,3.321606397628784,-0.049052827060222626,0.561933159828186,-1.190543532371521,0.4428436756134033,0.7677620649337769,-0.46306684613227844,0.0035369694232940674,0.032454609870910645,-0.04688185453414917,0.8239466681671638,-0.3629269707332051,0.3697980342183317,-0.22944566737845615,-0.8753410197041229,0.7630782739362437,-0.17202975091009481
1773063782085533440,3.3316433429718018,-0.6192004680633545,0.635007381439209,-1.216103434562683,0.4364055097103119,0.7742906212806702,-0.45828408002853394,-0.08542287349700928,0.08793771266937256,0.050019919872283936,0.8209574543784862,-0.3656040256175391,0.37039392023059736,-0.2348849945149777,-0.8855934053175865,0.7609492137837668,-0.18245931524024253
1773063782095570432,3.3416802883148193,-1.670945644378662,0.40916773676872253,-1.1204967498779297,0.42959168553352356,0.7846387624740601,-0.44698193669319153,-0.11349064111709595,0.16811996698379517,0.3690858781337738,0.8164946710586974,-0.37197793883240726,0.371673840542357,-0.2383847622134034,-0.9021132387059198,0.7655618576214372,-0.18292057471447584
1773063782105608448,3.3517184257507324,-2.838324785232544,0.2468634992837906,-0.8793219327926636,0.42304620146751404,0.7987678647041321,-0.4277868866920471,-0.07905212044715881,0.17535310983657837,0.5016394853591919,0.8105145740848607,-0.3827238882257471,0.3736696081993436,-0.23866177021317622,-0.925244484984216,0.7798263959652625,-0.16842571595147932
1773063782115645440,3.36175537109375,-3.914862871170044,0.246979221701622,-0.7089025974273682,0.41771823167800903,0.8161764144897461,-0.39920851588249207,-0.04557162523269653,0.09748923778533936,0.39824721217155457,0.802522383083832,-0.39775131286338894,0.377080414546605,-0.2357160048839136,-0.9547623360636003,0.80805205525317,-0.1360473846957069
1773063782125683200,3.371793270111084,-4.7313408851623535,0.1689177006483078,-0.6805756092071533,0.41286349296569824,0.835580587387085,-0.3624207079410553,-0.08162572979927063,0.038274943828582764,0.23635265231132507,0.7925265165789142,-0.41622319158331195,0.3815074117517059,-0.23046047263307,-0.9891887686503134,0.8503702026532762,-0.086950434316083
1773063782135720192,3.3818302154541016,-5.246627330780029,-0.04132262244820595,-0.7280855774879456,0.4071553945541382,0.8556700944900513,-0.3194579780101776,-0.1488545536994934,0.04725360870361328,0.18811026215553284,0.7808924492935083,-0.4374536096583705,0.3858825633347473,-0.22346388909824053,-1.0268442395090351,0.9055105621512857,-0.022012610965440618
1773063782145757440,3.3918673992156982,-5.147891521453857,-0.07472744584083557,-0.8231796026229858,0.40023791790008545,0.8743826746940613,-0.274344265460968,-0.19741806387901306,0.10550636053085327,0.16947057843208313,0.7684830380460966,-0.4594856924510971,0.3894878284750059,-0.2158844915953038,-1.0641621626086006,0.9699003414689507,0.05385750367077643
