time,seconds_elapsed,rotationRateX,rotationRateY,rotationRateZ,gravityX,gravityY,gravityZ,accelerationX,accelerationY,accelerationZ,quaternionW,quaternionX,quaternionY,quaternionZ,pitch,roll,yaw
1773063633145724928,0.02550196647644043,-0.09533482789993286,0.035978153347969055,0.006013131700456142,0.09301553666591644,-0.39173611998558044,-0.9153637886047363,-0.01345621794462204,0.002286076545715332,0.059605181217193604,-0.9687076719891123,-0.19137874395245227,-0.07544713108413642,-0.13887877505266977,0.4025177700356654,0.10126831848351737,0.264111624585152
1773063633155779840,0.035556793212890625,-0.15941816568374634,0.03185923025012016,-0.027825821191072464,0.09340003877878189,-0.3904862701892853,-0.9158585667610168,-0.007599867880344391,-0.03444048762321472,0.06569987535476685,-0.9688343360889649,-0.19069494198494383,-0.07553911757854825,-0.13888607544868128,0.4011597473109325,0.10162950612290336,0.26408773543497466
1773063633165835776,0.04561281204223633,-0.11503472179174423,0.06065332889556885,0.03759020194411278,0.09382244944572449,-0.3891696631908417,-0.9163756370544434,0.008014708757400513,-0.016256362199783325,0.05816030502319336,-0.9689569405739471,-0.1899684483569878,-0.07565821001822422,-0.13896161203213087,0.3997300272017574,0.10202875437319608,0.26419959272974586
1773063633175890944,0.055667877197265625,-0.00022069108672440052,0.11107053607702255,0.12848235666751862,0.09422815591096878,-0.3886983394622803,-0.9165340662002563,0.01293431967496872,0.019038915634155273,0.07069361209869385,-0.9689220160655102,-0.18965202521680408,-0.07592816454285299,-0.13948910125838662,0.3992184281658376,0.10244928760312133,0.26521841423757664
1773063633185946880,0.06572389602661133,0.03847024589776993,0.17939527332782745,0.1566503345966339,0.09500651061534882,-0.38910263776779175,-0.9162821173667908,0.023279622197151184,0.05234116315841675,0.08376258611679077,-0.968736706645277,-0.189745806646658,-0.07652106704977579,-0.1403220055416029,0.39965725984081896,0.10331776199827483,0.26675703549332136
1773063633196002048,0.07577896118164062,-0.08596182614564896,0.2115674763917923,0.22432853281497955,0.09612031280994415,-0.38912487030029297,-0.9161564707756042,0.012796923518180847,0.016459494829177856,0.09630173444747925,-0.9685434923685649,-0.18959322605950352,-0.0773056366128997,-0.14142760368651314,0.3996813999485985,0.10453447601488669,0.26880097650262363
1773063633206056960,0.08583402633666992,-0.252642422914505,0.24148648977279663,0.310124933719635,0.09712418913841248,-0.3878287971019745,-0.9166001081466675,0.017652422189712524,-0.03876116871833801,0.13853919506072998,-0.9684249652509449,-0.18871591047744013,-0.07801451119103643,-0.14301446904195278,0.3982748615467752,0.10556743663329397,0.271911556819455
1773063633216112896,0.09588980674743652,-0.4086211621761322,0.29658830165863037,0.39071792364120483,0.09820563346147537,-0.38510850071907043,-0.917631208896637,0.03829948604106903,-0.08254283666610718,0.18450748920440674,-0.9683822171702564,-0.18704507145892435,-0.0787307047428003,-0.14509122786559828,0.3953253997310434,0.10661500117193105,0.27607231031460683
1773063633226167808,0.10594487190246582,-0.5348696112632751,0.35183051228523254,0.5066290497779846,0.09951961040496826,-0.381155401468277,-0.9191389679908752,0.04218876361846924,-0.09320986270904541,0.21697527170181274,-0.9683670025133135,-0.18466237804858168,-0.07956339774516538,-0.14776569781962018,0.3910457048763297,0.10785465814626653,0.2814682676420909
1773063633236224000,0.11600089073181152,-0.573578417301178,0.37474000453948975,0.5962303280830383,0.10079728811979294,-0.376529723405838,-0.9209045767784119,0.04509199410676956,-0.08326336741447449,0.24666452407836914,-0.9683187403280976,-0.18188150268018138,-0.08041654118797856,-0.1510334915407864,0.38604746246684707,0.10902066527257748,0.28812732003661323
1773063633246278912,0.12605595588684082,-0.5702366828918457,0.42087098956108093,0.6971029043197632,0.10203862190246582,-0.37186142802238464,-0.9226630926132202,0.06702876091003418,-0.05007457733154297,0.2593178153038025,-0.968185919746718,-0.17904358960382116,-0.08131323768918049,-0.15475014874717513,0.3810134524362449,0.11014383519554223,0.2957276457692245
1773063633256335104,0.13611197471618652,-0.46969401836395264,0.4573976397514343,0.818000853061676,0.10327911376953125,-0.36776313185691833,-0.9241665005683899,0.08921051770448685,0.018764078617095947,0.2403133511543274,-0.9678756679432068,-0.176451168040657,-0.08235130159592424,-0.15905966538410127,0.3766024232062806,0.11129202403569334,0.30453725079972443
1773063633266389760,0.14616680145263672,-0.377659410238266,0.48320525884628296,0.886071503162384,0.10452451556921005,-0.36475399136543274,-0.925218403339386,0.10850344598293304,0.04659298062324524,0.19275081157684326,-0.9673547943574425,-0.17438243915674645,-0.0835556622468701,-0.16381071297850658,0.3733685894082195,0.11249582946219011,0.3142246949730465
1773063633276445952,0.15622282028198242,-0.3403557538986206,0.48351725935935974,0.9239108562469482,0.10570834577083588,-0.36240482330322266,-0.9260067343711853,0.11467433720827103,0.023674964904785156,0.14240694046020508,-0.9667046813094433,-0.17263560909908865,-0.08481492549670873,-0.16877637599585757,0.37084681872268943,0.11366302482415552,0.3243515934412055
1773063633286500864,0.16627788543701172,-0.33071058988571167,0.4966181516647339,0.9794633388519287,0.1068316102027893,-0.36029261350631714,-0.9267017841339111,0.1292676478624344,0.02574366331100464,0.09764599800109863,-0.9655142071247736,-0.1707672630374076,-0.08653113790353659,-0.1764462272575429,0.3685815648961421,0.11477487869105725,0.3400903176808162
1773063633296557056,0.17633390426635742,-0.30722564458847046,0.49604716897010803,1.0014978647232056,0.10785206407308578,-0.35840943455696106,-0.9273136258125305,0.13166514039039612,-0.0031170248985290527,0.05194747447967529,-0.9646722658733115,-0.16921807685981943,-0.08779759089240056,-0.18183559304957506,0.3665635698217949,0.11578570527296425,0.35113187476145585
1773063633306611968,0.18638896942138672,-0.32762411236763,0.5195927023887634,0.9686365127563477,0.10902030766010284,-0.35656246542930603,-0.9278888702392578,0.11874762177467346,-0.04210391640663147,0.0039691925048828125,-0.9637959876104574,-0.16766813410501463,-0.08912328313550731,-0.18719423753759465,0.36458593921134186,0.11695663825449938,0.362091529607507
1773063633316666880,0.19644379615783691,-0.4327966570854187,0.6002077460289001,0.9465147256851196,0.11079271137714386,-0.35413429141044617,-0.9286085963249207,0.10121289640665054,-0.052497148513793945,0.0023238062858581543,-0.9629471687298962,-0.16576229407182203,-0.09065636716368175,-0.19244989734616963,0.36198819440885405,0.11874911440387811,0.37275700233578357
1773063633326722816,0.20649981498718262,-0.631602942943573,0.6592226028442383,0.9834368228912354,0.1133282259106636,-0.35025307536125183,-0.9297738671302795,0.0792224183678627,-0.06297016143798828,0.042490601539611816,-0.9621493551469052,-0.16300908284301768,-0.09241803304256395,-0.19787754321531673,0.3578412796730967,0.12128965185760783,0.38370573153510434
1773063633336777984,0.21655488014221191,-0.8438277840614319,0.7226723432540894,1.0669655799865723,0.11621105670928955,-0.34454578161239624,-0.9315488338470459,0.06823718547821045,-0.07755810022354126,0.0956113338470459,-0.961391001152009,-0.15923426956790085,-0.09418091020820313,-0.203719651375507,0.3517549088268582,0.12410919850153554,0.39554090299218175
1773063633346833920,0.22661089897155762,-1.0796717405319214,0.75661700963974,1.225226879119873,0.11923708766698837,-0.33686426281929016,-0.9339726567268372,0.07364925742149353,-0.06532689929008484,0.13218438625335693,-0.9606169278139449,-0.15436049866895304,-0.09584620108156885,-0.21024121793874975,0.3435845143778323,0.1269796717816078,0.40886645094105123
1773063633356889088,0.23666596412658691,-1.0275063514709473,0.9346957206726074,1.4029828310012817,0.12278096377849579,-0.3283921480178833,-0.9365273118019104,0.08698160201311111,-0.0580672025680542,0.1458473801612854,-0.9595893831372816,-0.14891385479888464,-0.09778039447627518,-0.21783430287449293,0.3346008224164838,0.13035891572314423,0.42440414014185646
1773063633366945024,0.24672198295593262,-1.0322118997573853,0.9523231387138367,1.4030451774597168,0.12713727355003357,-0.3205575942993164,-0.9386580586433411,0.10093583166599274,-0.0633535385131836,0.10005027055740356,-0.9583012931646003,-0.14364713817542082,-0.10018222516658337,-0.22580413029192722,0.32631808992686134,0.13462651031736614,0.44062177239229816
1773063633376999936,0.2567768096923828,-1.1893147230148315,0.9626930356025696,1.389936089515686,0.1317400187253952,-0.3120523691177368,-0.9408867359161377,0.0700116902589798,-0.029820799827575684,0.0839378833770752,-0.9569708769965277,-0.1379924072465165,-0.10254128114143563,-0.23377379637267257,0.3173524987089555,0.1391124894020465,0.4568896199189565
1773063633387055872,0.2668328285217285,-1.6736640930175781,0.8474114537239075,1.3922377824783325,0.13605175912380219,-0.3004794120788574,-0.944034993648529,0.025065794587135315,0.030658245086669922,0.05118221044540405,-0.9558066583188907,-0.13081420390632031,-0.10426001961764442,-0.2417668643683525,0.30519525223842037,0.14313177872956037,0.47344827525595934
1773063633397111040,0.2768878936767578,-2.0738840103149414,0.703545868396759,1.5776031017303467,0.13899733126163483,-0.28454235196113586,-0.948533296585083,0.015101194381713867,0.10445809364318848,0.05664181709289551,-0.9547811799902248,-0.12156938000388434,-0.10466250463218886,-0.2503190072780718,0.28852900125625097,0.14550361289794786,0.49163264675943863
1773063633407166976,0.2869439125061035,-2.232919216156006,0.7632885575294495,1.8765082359313965,0.1411087065935135,-0.2662317752838135,-0.9535245299339294,-0.009028613567352295,0.14377999305725098,0.05569738149642944,-0.9534558540964453,-0.11114736616818686,-0.10432645295204726,-0.26016196485427645,0.2694815811345883,0.14692011934645363,0.5128030537566481
1773063633417222144,0.2969989776611328,-2.208343267440796,0.8650943040847778,2.1513113975524902,0.1438274085521698,-0.24773509800434113,-0.9580923914909363,-0.1118907630443573,0.10756786167621613,0.07939976453781128,-0.9515204477868877,-0.10045031667439441,-0.10422832999260569,-0.2713946886152521,0.25034177096400045,0.1490058573518292,0.5369057719582742
1773063633427278080,0.3070549964904785,-2.0887880325317383,0.918209433555603,2.4798123836517334,0.14701241254806519,-0.2303774207830429,-0.9619321823120117,-0.20849008858203888,0.0190889835357666,0.1703062653541565,-0.9488452533791933,-0.09013580719886101,-0.10444821930036458,-0.28400466098819327,0.23246552586444946,0.15165683874353642,0.5639175477972467
1773063633437332992,0.3171098232269287,-1.9788962602615356,1.069614291191101,2.7865774631500244,0.15081672370433807,-0.2147240787744522,-0.9649600386619568,-0.26327401399612427,-0.10838077962398529,0.2535037398338318,-0.945331480391301,-0.08042700238906925,-0.10512599418577158,-0.29804106366675,0.21640931219052154,0.1550389438548739,0.5939501022679117
1773063633447387904,0.327164888381958,-2.083652973175049,1.2326058149337769,3.063673257827759,0.1558932065963745,-0.19968228042125702,-0.9673801064491272,-0.3185518980026245,-0.2523746192455292,0.3303714394569397,-0.9409807698468343,-0.07066952601438485,-0.10637554649858655,-0.3134411409851465,0.2010336551250454,0.15977626154812027,0.6269334653454837
1773063633457443584,0.3372204303741455,-2.522273302078247,1.2246414422988892,3.2165567874908447,0.16189207136631012,-0.18249446153640747,-0.9697869420051575,-0.2977715730667114,-0.30072087049484253,0.39057856798171997,-0.9359663139933339,-0.05959727356162758,-0.1074927328766665,-0.3299403329819385,0.18352291914680766,0.16541042939321002,0.6625682120250903
1773063633467498496,0.3472754955291748,-3.1858057975769043,1.1322451829910278,3.2625081539154053,0.16772666573524475,-0.15993426740169525,-0.9727737903594971,-0.18136802315711975,-0.23239971697330475,0.43630528450012207,-0.9305657306027084,-0.04593635451688362,-0.10725188780009928,-0.34703664331554473,0.16062406026121104,0.1707422505302385,0.7001353336438098
1773063633477554432,0.3573315143585205,-3.712930679321289,1.2219271659851074,3.2290730476379395,0.1743469089269638,-0.131710484623909,-0.9758358001708984,-0.0700225681066513,-0.1859622299671173,0.37776756286621094,-0.924792294136018,-0.029506079856640662,-0.10588432826712593,-0.3642489036054728,0.13209430670005193,0.17679874389633962,0.7386989233348793
1773063633487609600,0.3673865795135498,-4.320272445678711,1.430187463760376,3.2603042125701904,0.18369938433170319,-0.09813356399536133,-0.9780717492103577,-0.056563153862953186,-0.20928525924682617,0.25106674432754517,-0.9184144881771702,-0.010133048526325584,-0.10421826887933339,-0.3815112705652865,0.09829175960552015,0.18565504561383078,0.7782685214311947
1773063633497665536,0.3774425983428955,-5.064012050628662,1.3180279731750488,3.277404546737671,0.1949559450149536,-0.05834989994764328,-0.9790747761726379,-0.0657598078250885,-0.2635189890861511,0.23081433773040771,-0.9112328450039701,0.012437566000108514,-0.10152786616285231,-0.3989886731200633,0.05838306149626324,0.19655179238124507,0.8196603273460041
1773063633507720448,0.3874974250793457,-6.151692867279053,1.1787822246551514,3.2139244079589844,0.20611953735351562,-0.009938974864780903,-0.978476345539093,0.02206040918827057,-0.3134710490703583,0.13477212190628052,-0.9032196395778722,0.038849024174218996,-0.09619033420310033,-0.416452330929044,0.009939138199521089,0.20761807280613287,0.86301644714531
1773063633517776384,0.3975534439086914,-7.353700160980225,0.8815329670906067,2.9856648445129395,0.2166956514120102,0.04992297291755676,-0.9749618768692017,0.11971487104892731,-0.32767871022224426,0.06950533390045166,-0.8942438049991546,0.0701545510528992,-0.0871630214399416,-0.433369408833672,-0.04994373168360431,0.21870555755398025,0.9080224742520853
1773063633527831552,0.4076085090637207,-8.26445198059082,0.6917595863342285,2.524580717086792,0.22688867151737213,0.12022605538368225,-0.9664715528488159,0.17222020030021667,-0.29872336983680725,0.10116088390350342,-0.8843078070420566,0.10582276953717033,-0.07460410526962986,-0.4485929068694246,-0.12051758857172004,0.23058432701646273,0.9528849177021022
1773063633537887488,0.4176645278930664,-8.958174705505371,0.4537252187728882,1.993513822555542,0.23628351092338562,0.19822779297828674,-0.9512496590614319,0.20504644513130188,-0.05218592286109924,0.08566427230834961,-0.8735190792420758,0.14457398454862436,-0.0589368132667572,-0.46107411974206397,-0.19954949844832512,0.24346538165208162,0.9958266135350183
1773063633547942656,0.4277195930480957,-8.652709007263184,0.1418786495923996,1.549786925315857,0.24276010692119598,0.27790555357933044,-0.9294278025627136,0.23201711475849152,0.42538729310035706,0.15260285139083862,-0.862004306054651,0.18339622107098202,-0.04064385183290431,-0.4708105601601787,-0.28161308791348755,0.2554852623268124,1.0362211731868622
1773063633557997568,0.4377744197845459,-7.513010025024414,0.17743247747421265,1.359360694885254,0.24850702285766602,0.34931373596191406,-0.9034512639045715,0.1979193538427353,0.9465999603271484,0.26499301195144653,-0.8503489786864452,0.21847863628888167,-0.023269058850410005,-0.4781551813187209,-0.3568385944136577,0.2684258170972738,1.0731724381868994
1773063633568053504,0.4478304386138916,-5.590470790863037,0.49921396374702454,1.3412309885025024,0.2565978169441223,0.40496474504470825,-0.8775882720947266,0.044473350048065186,1.277301549911499,0.16758155822753906,-0.8393374830005483,0.24718351016985146,-0.010304708165581038,-0.4840524440521335,-0.4169402580829687,0.2844603846471808,1.1067999069955485
1773063633578108672,0.4578855037689209,-3.5127339363098145,0.8613089323043823,1.2496775388717651,0.2680990695953369,0.4410289227962494,-0.8565140962600708,-0.08986115455627441,1.2094684839248657,-0.1583174467086792,-0.8302674619128316,0.2678220108190774,-0.0037837335858144404,-0.4887873754490549,-0.4567447888549653,0.30335110347817146,1.135177404485344
1773063633588164608,0.4679415225982666,-2.1442630290985107,1.1020985841751099,1.023298740386963,0.28178462386131287,0.4615289568901062,-0.8411827683448792,-0.18562376499176025,0.8653753399848938,-0.30215829610824585,-0.8236075128363715,0.281782687206708,-0.0026693427772109123,-0.49220137856128626,-0.4797179361267435,0.32323740837363085,1.1570368053862958
1773063633598219520,0.4779965877532959,-1.7006945610046387,1.1829358339309692,0.7799712419509888,0.2956523597240448,0.47461265325546265,-0.8290551900863647,-0.1979808509349823,0.47514015436172485,-0.23529112339019775,-0.8186644036172573,0.2923282803104558,-0.004071403499008241,-0.49428356189077394,-0.4945239165063923,0.3425544687858603,1.1736416503473461
1773063633608275712,0.4880526065826416,-1.9578226804733276,1.2358394861221313,0.5629917979240417,0.30887529253959656,0.48741796612739563,-0.8167127966880798,-0.16974565386772156,0.13755148649215698,-0.14573532342910767,-0.8142848486595153,0.30267582707370444,-0.0055632835817179295,-0.4952742494487628,-0.5091302329171835,0.3615673078285656,1.1879516890305704
1773063633618330368,0.4981074333190918,-2.7653276920318604,1.2166270017623901,0.3932721018791199,0.32131049036979675,0.5048312544822693,-0.8011897206306458,-0.17465826869010925,-0.10567659139633179,-0.05965012311935425,-0.8094618474890888,0.31523671202443,-0.005564734129940968,-0.49534461064458596,-0.5291864768859977,0.38140408680087917,1.2028256929715286
1773063633628386560,0.5081634521484375,-3.700754165649414,1.2332613468170166,0.3074687719345093,0.3329133987426758,0.529393196105957,-0.7803277969360352,-0.17107871174812317,-0.23735523223876953,-0.01637929677963257,-0.8033181915784324,0.33140097446220446,-0.003079603215874844,-0.49481688219155706,-0.5578851379357641,0.4032527800732952,1.2211064556579838
1773063633638441472,0.5182185173034668,-4.957899570465088,1.282739281654358,0.42634856700897217,0.34448495507240295,0.5614482164382935,-0.7524001598358154,-0.16386666893959045,-0.30764877796173096,0.11182093620300293,-0.7950346436904364,0.3518463748476036,0.0020118837137988025,-0.49408494901867467,-0.5961348255412752,0.4293611843025356,1.2458771929377186
1773063633648497664,0.5282745361328125,-6.1612725257873535,1.2201008796691895,0.6500203013420105,0.35694757103919983,0.600678026676178,-0.7153840661048889,-0.17111077904701233,-0.318146288394928,0.06589365005493164,-0.7835080957084305,0.37710825777406026,0.009866234954672292,-0.49376820275430516,-0.644348893486902,0.4628147744252158,1.281646729189159
1773063633658552576,0.5383296012878418,-7.069542407989502,1.1342432498931885,0.7221934199333191,0.3694984018802643,0.6443533301353455,-0.6695370078086853,-0.17237013578414917,-0.3642171621322632,0.013454914093017578,-0.7687972607807848,0.4059752566773062,0.020385672433300923,-0.4936794819079923,-0.7001773305151825,0.5042789333910757,1.329245910548175
1773063633668608768,0.5483856201171875,-7.438782215118408,1.1046326160430908,0.6773905754089355,0.38144809007644653,0.688956618309021,-0.6163085103034973,-0.15805941820144653,-0.2966225743293762,-0.02770388126373291,-0.7517136084423797,0.4367756890203776,0.032752551546249606,-0.4930324392916271,-0.7600485006398613,0.5542180564734311,1.3872459719871093
1773063633678663424,0.5584404468536377,-7.444274425506592,0.9977477192878723,0.6714127063751221,0.392357736825943,0.7302359342575073,-0.5592948794364929,-0.101159006357193,-0.0344199538230896,-0.0658423900604248,-0.7334418004190812,0.467188502118365,0.045688647214622985,-0.4916406050764405,-0.8186672357108618,0.6117467947254133,1.4533581938301683
1773063633688718592,0.568495512008667,-7.571262359619141,0.9364665150642395,0.8471946716308594,0.40333569049835205,0.7672141194343567,-0.4987010657787323,-0.0009156763553619385,0.25539934635162354,-0.08566471934318542,-0.7135475229630295,0.4971769356862665,0.058860503464936965,-0.4901024119283292,-0.8744862538591968,0.6800671669109516,1.5314506648757962
1773063633698774528,0.5785515308380127,-7.44136381149292,0.8379349708557129,0.745915412902832,0.41394057869911194,0.7991757392883301,-0.43585681915283203,0.10499554872512817,0.17853105068206787,-0.2207593321800232,-0.6924998361951712,0.5261868730812443,0.072103866577327,-0.4882337815113908,-0.9259226963058629,0.7596139293771232,1.621541517595806
1773063633708829696,0.588606595993042,-7.694150447845459,0.6091481447219849,0.45286545157432556,0.42187362909317017,0.8271631598472595,-0.3712463676929474,0.20939773321151733,-0.060332655906677246,-0.17044061422348022,-0.6709207768397759,0.5540099696219337,0.0863120165218666,-0.4852716584722152,-0.9740406471702291,0.849144694968593,1.722331107490939
1773063633718885632,0.5986626148223877,-8.598074913024902,0.27448245882987976,0.3246207535266876,0.42652446031570435,0.8530498743057251,-0.30063730478286743,0.29312577843666077,-0.0991894006729126,0.06900891661643982,-0.6469628239075939,0.582195867930991,0.10358243265460418,-0.48141223459308424,-1.02180223552984,0.9568203349174611,1.845235602868926
1773063633728940544,0.6087174415588379,-9.33458423614502,0.08740097284317017,0.28836286067962646,0.42970648407936096,0.875289797782898,-0.22185608744621277,0.34385305643081665,-0.16401666402816772,0.13047122955322266,-0.6194005347109786,0.6113720961995157,0.12367746700565824,-0.47672954016603725,-1.0660347708126166,1.0941964422069075,2.001923975314302
1773063633738996480,0.6187734603881836,-10.033307075500488,-0.00698136119171977,0.22440563142299652,0.4320385754108429,0.8916247487068176,-0.13545410335063934,0.3227984309196472,-0.2691120505332947,0.17733950912952423,-0.5882457476794414,0.6410803223528229,0.14590739478671033,-0.4708437850828717,-1.1009209626857055,1.2669795781823185,2.1969907633248726
1773063633749051648,0.6288285255432129,-9.972275733947754,-0.08431396633386612,0.1437896192073822,0.4336298108100891,0.8999864459037781,-0.04460589587688446,0.25112366676330566,-0.1874467134475708,0.14243000745773315,-0.554514488506798,0.6701432430351039,0.16913038144892686,-0.46348322366795464,-1.119738462519124,1.468290561880063,2.4219115344422146
1773063633759107584,0.6388845443725586,-8.899917602539062,0.0012938659638166428,0.3661497235298157,0.435691237449646,0.8991864919662476,0.04045659303665161,0.18061122298240662,0.020826876163482666,0.059564705938100815,-0.5215150430782277,0.6956918767809986,0.19037097990349655,-0.4558439660236171,-1.1179067604846993,1.6633869374420513,2.639508616927118
1773063633769162752,0.6489396095275879,-7.9567484855651855,0.13361674547195435,0.748388946056366,0.4407479166984558,0.8900238871574402,0.11661359667778015,0.1477682888507843,0.23970627784729004,0.014978162944316864,-0.49033430926358634,0.7178515721009037,0.20735456876693414,-0.44862619461399517,-1.0973975709564525,1.8294506547840368,2.8242747247366062
1773063633779218688,0.6589956283569336,-7.373739719390869,0.22616848349571228,0.7071372270584106,0.44717830419540405,0.8750842213630676,0.18509185314178467,0.10911133885383606,0.1790081262588501,0.08154021203517914,-0.46099928225443254,0.7373202878735553,0.22114410873094678,-0.44151291784981245,-1.0656097840361873,1.9632367935037802,2.9735065272023267
1773063633789273600,0.6690504550933838,-7.468387603759766,0.28330710530281067,0.592130184173584,0.45217064023017883,0.8559253215789795,0.25086525082588196,0.05257481336593628,0.04910385608673096,0.18619224429130554,-0.43200317027257173,0.7552554129904322,0.23456743523773285,-0.43352114283087706,-1.0273377006694355,2.077318938851953,3.1024250379686165
1773063633799328512,0.6791055202484131,-6.556332111358643,0.4766567349433899,0.6618341207504272,0.4563603103160858,0.8329616785049438,0.31290575861930847,0.014480143785476685,0.08572423458099365,0.20566415786743164,-0.40386835166273904,0.7717417595612334,0.24671346704116193,-0.42477929227726785,-0.9844387929375166,2.1718297929152475,-3.0734280735319146
1773063633809384704,0.6891615390777588,-4.447403907775879,0.6354705691337585,0.5992866158485413,0.459846168756485,0.8110808730125427,0.3615098297595978,-0.005759865045547485,0.3867798447608948,0.09883260726928711,-0.38142901091933273,0.7847463321332918,0.25480996068996153,-0.41684169224366674,-0.9459975957670821,2.2370373115551914,-3.001061196382123
1773063633819439616,0.6992166042327881,-1.4244294166564941,0.5869907140731812,0.20729726552963257,0.46077850461006165,0.7979634404182434,0.388506680727005,0.004599273204803467,1.0400491952896118,0.056409090757369995,-0.3695757446416133,0.7921952313319032,0.258224817438264,-0.4112911367487534,-0.9239085950703962,2.2713017860396136,-2.9662784048696267
1773063633829495552,0.7092726230621338,1.574493646621704,0.3644687235355377,0.09171129018068314,0.45983418822288513,0.7978272438049316,0.389902263879776,0.003941357135772705,1.5942623615264893,0.11594179272651672,-0.370373547281062,0.7931492299445978,0.2566426159551596,-0.40972205635871445,-0.9236826909566354,2.27408116860533,-2.968876176128134
1773063633839550464,0.719327449798584,3.447742223739624,0.1341475248336792,0.3884570002555847,0.4607132375240326,0.8067938685417175,0.36990153789520264,-0.003865063190460205,1.5735468864440918,0.11422935128211975,-0.3806438335799251,0.788999031445719,0.24986256128741147,-0.4125040140816776,-0.9387053436867838,2.2472962979266407,-3.0053490855211247
1773063633849606400,0.7293834686279297,3.5887234210968018,0.15924541652202606,0.6491847634315491,0.46467024087905884,0.8172439932823181,0.34087276458740234,-0.04363441467285156,0.7488877773284912,0.20632269978523254,-0.3939795285342065,0.7828502813090014,0.2399621302200866,-0.4175450780159059,-0.9566123427194241,2.2037055288919127,-3.0604677008528296
1773063633859661568,0.739438533782959,2.406811237335205,0.5679653882980347,0.4378287196159363,0.4682649075984955,0.8246411085128784,0.3173254132270813,-0.1202271580696106,-0.2442576289176941,0.11913707852363586,-0.40517466643446537,0.778151147480145,0.23052873431145632,-0.42091676094554825,-0.9695673857705724,2.1663726106269876,-3.110326935746351
1773063633869717504,0.7494945526123047,0.7542321681976318,0.7679104208946228,0.05266079306602478,0.46799004077911377,0.8285509347915649,0.3073907196521759,-0.033267080783843994,-0.7113022208213806,-0.16316458582878113,-0.41170346201209945,0.7766260571479445,0.22482732720789217,-0.42048190511044964,-0.9765146624504969,2.1519592144677344,-3.1362600080302623
1773063633879772672,0.759549617767334,-0.6972107887268066,0.3925210237503052,-0.08733895421028137,0.46583291888237,0.8286598920822144,0.3103589713573456,0.3409145474433899,-0.6842200756072998,-0.3737592399120331,-0.4124274498810097,0.7779122796226968,0.2236782762104762,-0.41800024644830247,-0.9767093383931084,2.158507119288198,-3.1358497211433485
1773063633889828608,0.7696056365966797,-1.5928232669830322,-0.2540159225463867,-0.16489605605602264,0.46465691924095154,0.8254967927932739,0.3203886151313782,0.6741980314254761,-0.5541803240776062,-0.47100821137428284,-0.4081346841311839,0.7803126249254826,0.22650942547423708,-0.4162111451365971,-0.9710818293104878,2.1744516990521623,-3.1172178844558753
1773063633899883520,0.7796604633331299,-1.9040405750274658,-0.5194796323776245,-0.21734051406383514,0.4643552601337433,0.82059645652771,0.3331601321697235,0.6391756534576416,-0.22388625144958496,-0.2668149471282959,-0.40110890205679106,0.7828377427836563,0.23182997545402445,-0.41536920794096915,-0.9624538657125329,2.193149979586282,-3.0895069622627243
1773063633909939456,0.7897164821624756,-1.7653937339782715,-0.4657101333141327,-0.1745768040418625,0.464467316865921,0.815179705619812,0.34605273604393005,0.34226489067077637,0.32655930519104004,0.07661572098731995,-0.3936020560527536,0.7852511629741878,0.23750152409215075,-0.41479052779367576,-0.9530393949645173,2.21112377682902,-3.061272880184331
1773063633919994624,0.7997715473175049,-1.2945843935012817,-0.20457221567630768,-0.17055539786815643,0.46432965993881226,0.8104598522186279,0.3571450114250183,0.05857369303703308,0.7243911623954773,0.1908743977546692,-0.38739414710055603,0.7873875400634456,0.2420606631367494,-0.4139482768833928,-0.9449366713458713,2.2264491176463386,-3.0381830384990605
1773063633930049536,0.8098266124725342,1.1169850826263428,0.4400315582752228,-0.2375301718711853,0.46241194009780884,0.8095391988754272,0.3616923391819,-0.09624680876731873,0.783051073551178,-0.005659013986587524,-0.3857705112852763,0.7882428639565285,0.24396587818666993,-0.41271647699970376,-0.9433667366181482,2.234580522024554,-3.0286205996245625
1773063633940105728,0.8198826313018799,4.5596604347229,1.9906902313232422,1.0649151802062988,0.4622720181941986,0.8203662633895874,0.3366062045097351,-0.002341628074645996,1.090919017791748,-1.3068515062332153,-0.401109864670387,0.784012365624245,0.23157657058471356,-0.4132889596194134,-0.9620512337145316,2.200170153366225,-3.086358008216835
1773063633950160384,0.8299374580383301,2.4196488857269287,-0.12399223446846008,0.3283168077468872,0.465037077665329,0.8283481597900391,0.3123772144317627,0.48354074358940125,1.6240899562835693,-0.24818351864814758,-0.41444153059380573,0.7797794077214069,0.21939161001367655,-0.4147885011912461,-0.9761526645808415,2.1622929460430815,3.1386347702379425
1773063633960216576,0.8399934768676758,0.9660539627075195,-0.23049651086330414,-0.3888186514377594,0.46595150232315063,0.8332710266113281,0.29757165908813477,0.47359323501586914,-0.20936954021453857,0.9687399864196777,-0.42041283747231084,0.7757976811532291,0.21661900095846043,-0.4176928663459814,-0.9849980850281023,2.1391386268716825,3.1142736399126654
1773063633970271488,0.8500485420227051,-0.17158901691436768,0.3322576582431793,-1.2118459939956665,0.4585310220718384,0.8384003639221191,0.29467612504959106,0.09269270300865173,-1.0231385231018066,0.3429124057292938,-0.4237947726872086,0.7741986605217461,0.21898514148203366,-0.41600468356800047,-0.9943417760958366,2.1419890060154283,3.1167756928368484
1773063633980327680,0.8601045608520508,-0.6709887385368347,0.3912891447544098,-1.2186287641525269,0.4467434585094452,0.8426833152770996,0.3005078136920929,-0.08237889409065247,0.11952054500579834,0.2929827570915222,-0.4249989180440709,0.7746481665137677,0.22399581488963202,-0.4112443765466734,-1.0022477150350053,2.162938798665909,3.1369104451477003
1773063633990382592,0.8701596260070801,-0.616884708404541,0.2645471692085266,-1.1966075897216797,0.4356405436992645,0.8459269404411316,0.3076113760471344,0.039365530014038086,0.6096698641777039,0.2852383553981781,-0.42524380784792865,0.7753987890368991,0.22926492182380812,-0.4066472219021661,-1.0083009304805768,2.1856130772132842,-3.1234122327077856
1773063634000438784,0.8802156448364258,-0.5742347836494446,-0.054046880453825,-1.5057530403137207,0.4239279627799988,0.8498517870903015,0.31310808658599854,0.11429524421691895,0.44015657901763916,0.18776163458824158,-0.42580494364550925,0.7753339258360078,0.23539614849996376,-0.40266112205093674,-1.015704011565955,2.206953621833741,-3.0996255922232865
1773063634010493440,0.890270471572876,-0.2539215385913849,0.06323473900556564,-1.6724445819854736,0.4101696014404297,0.8551819324493408,0.3168991208076477,0.0875873863697052,0.35572510957717896,0.14719703793525696,-0.42729007171459454,0.7743386247448205,0.24258866074241692,-0.3987151319716305,-1.025901775924723,2.2286084346614805,-3.074098631816128
1773063634020549632,0.9003264904022217,0.4319453537464142,0.055899638682603836,-1.6922868490219116,0.39532580971717834,0.8622942566871643,0.31649091839790344,0.11743056774139404,0.33578020334243774,-0.05843421816825867,-0.43111314086129354,0.7722433815786053,0.24876820812941752,-0.39483685951165975,-1.03978279942677,2.245892340914976,-3.055031603156559
1773063634030604544,0.910381555557251,0.987659215927124,-0.32988372445106506,-1.7269108295440674,0.3809610903263092,0.8712568879127502,0.30948346853256226,0.2136586606502533,0.40590375661849976,-0.08936023712158203,-0.4371735748388505,0.7682034596471914,0.25417549045700805,-0.3926034903359425,-1.0577572566756521,2.2530378901614285,-3.0451870362904994
1773063634040659712,0.9204366207122803,1.365378499031067,-0.42928338050842285,-1.740260362625122,0.366759330034256,0.8814178109169006,0.2976410388946533,0.17083832621574402,0.37048953771591187,-0.05395817756652832,-0.44461534489423965,0.7625492070986944,0.2594980198304039,-0.39178648081407436,-1.0788554900510883,2.252536255389913,-3.041132188518686
1773063634050715648,0.930492639541626,1.7394733428955078,-0.40762999653816223,-1.6137546300888062,0.353054940700531,0.8920051455497742,0.28227466344833374,0.057650625705718994,0.29509806632995605,-0.10167157649993896,-0.4533030100619173,0.756024288573243,0.26375103262829924,-0.39163637122100947,-1.1017618970314553,2.245244820847647,-3.0446665278640754
1773063634060770560,0.9405474662780762,2.052349090576172,-0.507019579410553,-1.569690465927124,0.33992698788642883,0.9027459025382996,0.26362767815589905,0.06166908144950867,0.24230414628982544,-0.13472139835357666,-0.463015478845619,0.7486659121569413,0.26704530664883175,-0.39217706224094434,-1.1261105933091635,2.2304450004477068,-3.0562041088734397
1773063634070826496,0.9506034851074219,2.294429302215576,-0.8067554235458374,-1.6579619646072388,0.3269912004470825,0.913646399974823,0.2415095418691635,0.11928257346153259,0.14482516050338745,-0.1389400213956833,-0.4734701793307421,0.7400891136454115,0.27022745126673087,-0.3937907342314985,-1.1521655114005493,2.2069492529699706,-3.074906561182261
1773063634080881664,0.9606585502624512,2.350691318511963,-1.121176838874817,-1.92755126953125,0.3126769959926605,0.924757182598114,0.2169267237186432,0.10880124568939209,0.02952742576599121,-0.033729687333106995,-0.4842308299056949,0.7300864918439092,0.27465810756525183,-0.39630430089397994,-1.1803969674368475,2.17733058316351,-3.0962677604234474
1773063634090937600,0.9707145690917969,2.577816963195801,-0.9194480180740356,-2.021268606185913,0.2962157726287842,0.9358753561973572,0.19077123701572418,0.00432133674621582,-0.017692983150482178,0.05161464214324951,-0.49572048479276787,0.7192054832319299,0.2795158219065679,-0.3985920712946837,-1.2107354097990661,2.1429618284382626,-3.122069700569531
1773063634100992768,0.9807696342468262,2.859687566757202,-0.6548616290092468,-1.9319034814834595,0.27882522344589233,0.9464631676673889,0.1626778542995453,-0.052186429500579834,0.08406966924667358,0.057781100273132324,-0.5083876442061673,0.7079365736998878,0.2831337731718706,-0.40025382580501767,-1.2420974600032502,2.0989505317313375,3.1227363133805386
1773063634111048448,0.9908254146575928,2.8480224609375,-0.640142023563385,-1.7734225988388062,0.26204627752304077,0.9557816982269287,0.1334669589996338,0.026863664388656616,0.07415616512298584,0.022050634026527405,-0.5213797043493683,0.6965814027161066,0.2854957541925782,-0.4017833734695604,-1.2723065673144445,2.0418767950773256,3.069367575538474
1773063634121103616,1.000880479812622,2.5987460613250732,-0.7607837915420532,-1.6845568418502808,0.2462538778781891,0.9634698033332825,0.10528481006622314,0.15489967167377472,-0.13757264614105225,0.03907858580350876,-0.53336574966198,0.6854309672727872,0.2877964478724102,-0.4035821551083406,-1.299669874511671,1.9748213173342926,3.0068223187812437
1773063634131159552,1.0109364986419678,2.1385741233825684,-0.8476054668426514,-1.599494218826294,0.23095910251140594,0.9696526527404785,0.08019579201936722,0.20271089673042297,-0.29606884717941284,0.15837536752223969,-0.5436828609280105,0.6749301805925584,0.2908043086154071,-0.4053528499777635,-1.323806066263041,1.9050007643394495,2.9430543707485226
1773063634141214720,1.020991563796997,1.5307931900024414,-0.8611740469932556,-1.3271929025650024,0.21718008816242218,0.9742600321769714,0.06041902303695679,0.1839277148246765,-0.2937026619911194,0.2816067934036255,-0.5515970110136817,0.6659986391780585,0.2943727630458532,-0.4068554611968595,-1.3434149797806094,1.8421330589135174,2.8871717641897616
1773063634151270656,1.0310475826263428,0.8412374258041382,-0.832167387008667,-1.0472190380096436,0.20604921877384186,0.9774174690246582,0.04688964784145355,0.18100520968437195,-0.27862608432769775,0.25762999057769775,-0.5567255295262301,0.6591668496435567,0.2982346187615922,-0.4081810756696236,-1.3578736703996743,1.7945510922588608,2.847192954363717
1773063634161325568,1.041102647781372,0.10769525170326233,-0.7664379477500916,-0.9695215225219727,0.1966458559036255,0.9796286225318909,0.04071944206953049,0.18917261064052582,-0.31860268115997314,0.1485048532485962,-0.5590776190691509,0.6547265998342306,0.30280819240363016,-0.4087449826868325,-1.36860380593129,1.77498055992806,2.835427878061446
1773063634171380480,1.0511574745178223,-0.5584304928779602,-0.774176299571991,-1.0273133516311646,0.18711736798286438,0.9814626574516296,0.04145105555653572,0.18618887662887573,-0.3939840793609619,0.107505202293396,-0.5592242998038017,0.6522563668389796,0.30868618396762615,-0.4080964410787882,-1.3779499083212805,1.7888001530185564,2.85732664687223
1773063634181436416,1.061213493347168,-0.6741387844085693,-0.7806655764579773,-1.0587928295135498,0.1771695613861084,0.9830545783042908,0.04705974459648132,0.1693575382232666,-0.40730994939804077,0.11483597755432129,-0.557780568861054,0.6510081479531212,0.3157819868566654,-0.4066336810822652,-1.386440683052843,1.8304210935072178,2.9077800730262666
1773063634191491584,1.0712685585021973,0.44572922587394714,-0.6953312754631042,-1.0889390707015991,0.16693846881389618,0.9848446846008301,0.04703398048877716,0.10941347479820251,-0.3355681300163269,-0.13823580741882324,-0.5583713094764615,0.6481439445598443,0.3215997776865226,-0.4058378153160883,-1.3964761175595009,1.84542188635089,2.93055674604011
1773063634201547520,1.081324577331543,1.744362473487854,-0.6949830651283264,-1.070347547531128,0.1564435213804245,0.9870667457580566,0.03499649837613106,0.04269891977310181,-0.05434274673461914,-0.24033403396606445,-0.5630394846763401,0.6418620425733429,0.3248251343267902,-0.4068025786219232,-1.4097918371524676,1.7908735822981816,2.882280927533693
1773063634211602688,1.0913796424865723,2.862865447998047,-0.6661255955696106,-0.9608829021453857,0.14650386571884155,0.9891495704650879,0.010940545238554478,0.03969913721084595,0.14477676153182983,-0.0988616943359375,-0.5714379995379997,0.6322009397403804,0.32525719757199145,-0.40986376348306325,-1.4233506068147663,1.645335490681548,2.7419066735999946
1773063634221658368,1.1014354228973389,3.5862233638763428,-0.7297341823577881,-0.8929262757301331,0.13730870187282562,0.9902738928794861,-0.022450173273682594,0.07455956935882568,0.058493196964263916,-0.013423264026641846,-0.5824567320405645,0.6198174284441248,0.323421193833724,-0.4146917950959259,-1.4312118818011856,1.4087288781487834,2.5099282051648775
1773063634231713536,1.1114904880523682,3.798574924468994,-0.8319990038871765,-0.8822592496871948,0.12813030183315277,0.9899051785469055,-0.06058652326464653,0.13294757902622223,-0.14240139722824097,0.09787898510694504,-0.5945310285242814,0.6057109188867326,0.32065717184799397,-0.42050717203926796,-1.4285860743434415,1.129102944905276,2.23549657078834
1773063634241769472,1.1215465068817139,3.5862274169921875,-0.8586437702178955,-0.7584917545318604,0.11923141032457352,0.9879604578018188,-0.09858038276433945,0.1853187382221222,-0.29045069217681885,0.26491641998291016,-0.6061059057789524,0.5913669327975318,0.31779704143552706,-0.4265276840972818,-1.4154658197033068,0.8799269286957405,1.9921988533033756
1773063634251824640,1.1316015720367432,3.003148317337036,-0.8764976263046265,-0.5975832939147949,0.11153902858495712,0.9848978519439697,-0.13242152333259583,0.20608791708946228,-0.3640176057815552,0.3868466019630432,-0.6159188851115751,0.5782579081844489,0.3152888021826911,-0.43226705106740637,-1.3967830367122114,0.7000084551720148,1.8186462758455906
1773063634261880576,1.1416575908660889,2.3654119968414307,-0.909035325050354,-0.5902209877967834,0.10446774959564209,0.9815804362297058,-0.15995746850967407,0.18372498452663422,-0.3990914225578308,0.3843989968299866,-0.6235190816080068,0.5670159994883716,0.31386959466538134,-0.4372673007271317,-1.3785651384511202,0.5785493197300261,1.7042448813092537
1773063634271935488,1.151712417602539,1.932044506072998,-0.8892933130264282,-0.5480607151985168,0.09719216823577881,0.9785115122795105,-0.18184900283813477,0.1440187394618988,-0.375743567943573,0.32363367080688477,-0.6293974519375678,0.5574042034560813,0.3136495728748737,-0.4413427900728947,-1.3631144679490164,0.49083900959106463,1.6240037677871417
1773063634281990656,1.1617674827575684,1.84970223903656,-0.9598011374473572,-0.4151979386806488,0.09072867780923843,0.9753572940826416,-0.2011127918958664,0.14064034819602966,-0.2931216359138489,0.22781570255756378,-0.6342260630518181,0.5486585074674679,0.3137155543202225,-0.445324218126365,-1.3483348132009234,0.4237959996999256,1.5648117923044296
1773063634292046592,1.171823501586914,2.0942561626434326,-1.0585803985595703,-0.31899285316467285,0.08499213308095932,0.9715399146080017,-0.22110311686992645,0.15273979306221008,-0.1668218970298767,0.12483544647693634,-0.6387930684272408,0.5395604399058476,0.31356494683493646,-0.44999441090848846,-1.3316472298797757,0.36698658320734734,1.5169061036479563
1773063634302101504,1.1818785667419434,2.7670907974243164,-1.0440282821655273,-0.24244730174541473,0.07980408519506454,0.9661150574684143,-0.24546493589878082,0.13191163539886475,-0.05717951059341431,0.06010115146636963,-0.644230309728479,0.5289354776481171,0.31224156657721674,-0.45574088617899733,-1.3097289648017536,0.3143350023507836,1.473572864609394
1773063634312157696,1.191934585571289,3.3063933849334717,-0.8584573864936829,-0.22563768923282623,0.07505110651254654,0.958225667476654,-0.275990754365921,0.04753801226615906,-0.010395526885986328,0.15671280026435852,-0.6513364711815068,0.5163252844571957,0.3088896658863572,-0.4623377232754379,-1.2807326577265101,0.26551298825184927,1.4329396576301803
1773063634322212608,1.2019896507263184,3.2052054405212402,-0.5299929976463318,-0.1603924036026001,0.0710684061050415,0.9487202167510986,-0.3080247640609741,-0.0249563530087471,-0.05569958686828613,0.4006150960922241,-0.659166733814734,0.5035545346392801,0.3040073184089426,-0.46852068044719747,-1.2491625729451992,0.22675497592194077,1.39963758843341
1773063634332268544,1.212045431137085,2.3857150077819824,-0.31850045919418335,0.03316934034228325,0.06911510229110718,0.9395452737808228,-0.33537715673446655,-0.0018238425254821777,-0.29557859897613525,0.5959667563438416,-0.6658311133711764,0.4929811636706556,0.2987992585088756,-0.47366392769445165,-1.2212998621188995,0.2032364769298261,1.3791481143327786
1773063634342323456,1.2221004962921143,1.2979220151901245,-0.3533201217651367,0.12877270579338074,0.06885357201099396,0.9331730008125305,-0.3527710735797882,0.09932877868413925,-0.4867618680000305,0.5441009998321533,-0.6696165283378419,0.48622054531955017,0.29530331612176736,-0.4774927135415699,-1.20314194171704,0.19275590190147895,1.3714397823389644
1773063634352379648,1.23215651512146,0.9182681441307068,-0.4464913308620453,0.11996695399284363,0.06858424842357635,0.929317057132721,-0.36285778880119324,0.17837925255298615,-0.475627601146698,0.2982063591480255,-0.6712628582546378,0.48190477141638516,0.29383480384419247,-0.4804528363993199,-1.1925592011789272,0.18680758555159735,1.3694128544766513
1773063634362434560,1.2422115802764893,1.3803995847702026,-0.4486786127090454,0.1132327988743782,0.06799810379743576,0.9251254200935364,-0.3735228180885315,0.15937310457229614,-0.24099761247634888,0.0710020661354065,-0.6729963037111723,0.47723094973378516,0.292385383449237,-0.483567406418305,-1.1813657907447042,0.18007341254701592,1.3670344979508722
1773063634372490752,1.252267599105835,2.1753804683685303,-0.3638867437839508,0.19294653832912445,0.06777571141719818,0.9182320237159729,-0.3902003765106201,0.042469047009944916,0.058452486991882324,-0.004956483840942383,-0.6762457397876679,0.4704362224007244,0.28911860952920054,-0.4876390725685783,-1.1635930729464536,0.17197880459159046,1.3627663775134866
1773063634382545408,1.2623224258422852,2.995549201965332,-0.15694059431552887,0.333223819732666,0.06908498704433441,0.9075706005096436,-0.41417747735977173,-0.09398732334375381,0.23456507921218872,0.02848106622695923,-0.68127758223853,0.46129951017902465,0.28304421248979306,-0.4928992233046062,-1.1374616642314603,0.16527883851303415,1.3584240473521356
1773063634392601600,1.2723784446716309,3.382432222366333,0.14085380733013153,0.42991361021995544,0.07257317006587982,0.8933050036430359,-0.4435528814792633,-0.19401785731315613,0.13089531660079956,0.2133283019065857,-0.6877406527470415,0.45066647783046376,0.274086281610447,-0.49878762723300385,-1.104645701437228,0.16218080824303244,1.355039929703626
1773063634402656512,1.2824335098266602,2.884127378463745,0.36728766560554504,0.45131272077560425,0.07775149494409561,0.8783532977104187,-0.47164618968963623,-0.1711352914571762,-0.11742806434631348,0.4058198034763336,-0.6940926694743211,0.4408999124484014,0.2641669492773978,-0.5040420342126714,-1.0724063018839167,0.1633818678567278,1.3534077555981885
1773063634412711680,1.2924885749816895,1.977367639541626,0.33431294560432434,0.4985896944999695,0.08367763459682465,0.8661643266677856,-0.4927041232585907,-0.010771140456199646,-0.3075553774833679,0.4035012423992157,-0.6987347999791743,0.433932082810952,0.25563820211328064,-0.5080567521784151,-1.0474754576596117,0.16822826841043217,1.3546897312178776
1773063634422767616,1.3025445938110352,1.3117866516113281,0.16841360926628113,0.6064059734344482,0.0897483229637146,0.8575652837753296,-0.5064849853515625,0.1550636887550354,-0.3773101568222046,0.282470703125,-0.7011551004645931,0.4296038758316326,0.24939529639593166,-0.5114920016147022,-1.0305175058267497,0.17537793093212017,1.3599886602709803
1773063634432822528,1.3125994205474854,1.0894970893859863,0.06763533502817154,0.6759384274482727,0.09585783630609512,0.8508983850479126,-0.516510546207428,0.19163301587104797,-0.3041302561759949,0.20373594760894775,-0.7021552275824311,0.42652543595396125,0.24458284520688264,-0.515008067251153,-1.0176931059964551,0.18349963175880438,1.3682348103487991
1773063634442878464,1.322655439376831,1.116188883781433,0.08532610535621643,0.6650269031524658,0.10196255147457123,0.844516396522522,-0.525733470916748,0.08558320999145508,-0.11741983890533447,0.15895795822143555,-0.7028205126119561,0.42367666933150633,0.24006526195431055,-0.5185654114126015,-1.005661474149759,0.19156519823608917,1.3769225300346795
1773063634452933376,1.3327102661132812,1.2855665683746338,0.22507362067699432,0.6672903299331665,0.10834530740976334,0.837408721446991,-0.5357311964035034,-0.04721859097480774,0.04950839281082153,0.08837401866912842,-0.7038136040339192,0.42060667832786797,0.2349987608112603,-0.5220268454862734,-0.9925249523848588,0.1995467279870797,1.3846514739670037
1773063634462989312,1.342766284942627,1.0016286373138428,0.6657861471176147,1.0985404253005981,0.11759685724973679,0.8294926881790161,-0.545997142791748,-0.11472820490598679,0.08992564678192139,0.04889631271362305,-0.7048985214977709,0.41817770804246085,0.2283174068045466,-0.5254680663110436,-0.9781987891480434,0.21213933499619692,1.3943798089007386
1773063634473044480,1.3528213500976562,0.269830584526062,0.580302357673645,1.4074079990386963,0.13135987520217896,0.8253299593925476,-0.5491584539413452,-0.06725770235061646,0.1296108365058899,0.3021034002304077,-0.703127583495548,0.41948264653306944,0.22238500338491185,-0.5293305117526345,-0.9707863374249092,0.23479042776152192,1.4148709540908335
1773063634483100416,1.362877368927002,0.12520034611225128,0.5764572024345398,1.3362390995025635,0.14616379141807556,0.8222150206565857,-0.5500897169113159,-0.030761554837226868,-0.10132873058319092,0.2641400098800659,-0.7005087743151311,0.42185135772455307,0.2167869490345715,-0.5332282352683273,-0.9652917338643275,0.25970810124045685,1.4379016382026828
1773063634493155584,1.3729324340820312,-0.2350446581840515,0.38610002398490906,1.1053712368011475,0.15898403525352478,0.820566713809967,-0.5489938259124756,0.038830921053886414,-0.1934306025505066,0.12910252809524536,-0.6976320324997836,0.42462712660324864,0.21259087459821077,-0.5364759024622656,-0.9624018855843538,0.28188070913378493,1.4589884149609307
1773063634503211520,1.382988452911377,-0.5714151859283447,0.20311355590820312,0.8668782114982605,0.16868332028388977,0.8211840391159058,-0.5451630353927612,0.09260818362236023,-0.17028987407684326,0.14782416820526123,-0.6944133796919958,0.4278759631411156,0.2105721941225579,-0.5388613312157321,-0.9634827328329426,0.300074729967152,1.4776097305848284
1773063634513266432,1.3930432796478271,-1.0047637224197388,0.05029498413205147,0.7904340028762817,0.17612804472446442,0.8240216970443726,-0.5384859442710876,0.09000051021575928,-0.15825021266937256,0.13084745407104492,-0.6906315667531154,0.431797189756892,0.21049513924142566,-0.5406209532882753,-0.9684732920374152,0.3161121219925656,1.4956046286941849
1773063634523322368,1.4030992984771729,-1.3707149028778076,-0.006225977558642626,0.8465626239776611,0.1829594373703003,0.8290145993232727,-0.5284510850906372,0.07279311120510101,-0.10640418529510498,0.08994406461715698,-0.685800089453514,0.43686444477082526,0.21195258804519126,-0.542128857403643,-0.9773432638441356,0.33330184084817127,1.516244855355781
1773063634533377536,1.4131543636322021,-0.6336312890052795,0.27170228958129883,0.6435160040855408,0.19001923501491547,0.8335210084915161,-0.5187826156616211,0.018171682953834534,-0.09197437763214111,0.006316184997558594,-0.6812522771002224,0.4418638074381007,0.212990738030186,-0.5434028233484779,-0.9854503480730004,0.3511031004041222,1.5365092208375182
1773063634543432448,1.4232094287872314,-0.09272309392690659,0.7480425834655762,0.5786293148994446,0.19771510362625122,0.8338358998298645,-0.515389621257782,-0.15874415636062622,0.021052956581115723,-0.20036965608596802,-0.6796505358346678,0.44493101200721175,0.21057443328532707,-0.5438474059699863,-0.9860206210282705,0.366308698212849,1.5480905637719482
1773063634553488384,1.4332654476165771,-0.015258662402629852,0.8258199691772461,0.5794165730476379,0.20683802664279938,0.832908034324646,-0.5133053660392761,-0.12415063381195068,0.21550822257995605,0.010635077953338623,-0.6787395426317598,0.4479287343211621,0.20665710474088006,-0.5440270769000515,-0.9843417897060521,0.3830496052308589,1.5585288823136587
1773063634563543296,1.4433202743530273,-0.009432099759578705,0.7166566848754883,0.4241413474082947,0.21507954597473145,0.8318415880203247,-0.5116447806358337,0.033470869064331055,0.04913985729217529,0.05790942907333374,-0.678158875078228,0.450582988623377,0.2028609938837078,-0.5439880345231218,-0.9824176220313924,0.3979415184937525,1.5670054576807835
1773063634573599232,1.453376293182373,-0.09704823046922684,0.5483331680297852,0.27672314643859863,0.22124232351779938,0.831393301486969,-0.5097422003746033,0.11393225193023682,-0.033618032932281494,-0.004631519317626953,-0.6777188401915446,0.4528798624642755,0.20007177593618675,-0.543661998535578,-0.9816103119465728,0.40949239109569346,1.5732025086841264
1773063634583654400,1.4634313583374023,0.07981225848197937,0.4036855399608612,0.19731195271015167,0.22560840845108032,0.8310192227363586,-0.5084366798400879,0.13478891551494598,0.04143249988555908,-0.07643264532089233,-0.6774770112644212,0.45449947157479076,0.19801991596382376,-0.5433628881035454,-0.980937536026143,0.4176272423339406,1.5773150912019478
1773063634593710336,1.473487377166748,0.4130235016345978,0.43799877166748047,0.17646020650863647,0.22923214733600616,0.8293375372886658,-0.5095605254173279,0.10354676842689514,0.15609025955200195,-0.1573249101638794,-0.6779676260826232,0.45496584163172693,0.19551427473729713,-0.5432680924819694,-0.9779210550003258,0.42273956014644404,1.578435398473582
1773063634603765504,1.4835424423217773,0.5141440033912659,0.47885751724243164,0.2321956306695938,0.2333236187696457,0.8263992667198181,-0.5124688148498535,0.01959080994129181,0.23854213953018188,-0.13598394393920898,-0.6789504844017661,0.45479772314208944,0.192157823553098,-0.543378836315193,-0.9726826745945699,0.42724712041671986,1.5782607425923985
1773063634613821440,1.493598461151123,0.35345685482025146,0.5719876885414124,0.2722676992416382,0.2380293309688568,0.8234789967536926,-0.5149993896484375,-0.03446182608604431,0.17063111066818237,-0.028900086879730225,-0.6798078169151937,0.45489759973918203,0.18859608901950284,-0.5434712289534265,-0.9675160336256302,0.43294758279297807,1.5788789610413105
1773063634623876352,1.5036532878875732,-0.5421366691589355,0.41662824153900146,0.4124332070350647,0.24362196028232574,0.82290118932724,-0.5133050084114075,-0.015518337488174438,0.06809002161026001,0.11177003383636475,-0.6792183222120093,0.4568284097077713,0.1861593205288276,-0.5434289826979333,-0.966498373257721,0.44313367080235544,1.5849022627146654
1773063634633932288,1.513709306716919,-1.108096957206726,0.22418424487113953,0.41433364152908325,0.24873434007167816,0.826374888420105,-0.5052086710929871,0.06323160231113434,0.01784813404083252,0.27124571800231934,-0.6763388997243023,0.461095990427874,0.1865104263593757,-0.5432956001854848,-0.972639413835526,0.45750066574843046,1.5984302423350076
1773063634643987456,1.5237643718719482,-0.9589570760726929,0.048333462327718735,0.35704365372657776,0.252628356218338,0.8307991027832031,-0.49593523144721985,0.1415824294090271,-0.0253487229347229,0.06972673535346985,-0.6729148338233836,0.46546466965031513,0.188082506708429,-0.5432800980626121,-0.9805419502691898,0.4711376380259908,1.6132496411533097
1773063634654043392,1.533820390701294,-0.21557830274105072,-0.0624934546649456,0.35888737440109253,0.2554968595504761,0.8329823613166809,-0.49077659845352173,0.15948113799095154,0.17312109470367432,-0.14722386002540588,-0.6704774252034397,0.46785388628898406,0.18900910775320098,-0.5439193358648245,-0.9844761428796653,0.47998918255822987,1.6240856636254055
1773063634664098560,1.5438754558563232,0.6581547260284424,0.0344216451048851,0.38972586393356323,0.25853362679481506,0.8308264017105103,-0.49283650517463684,0.05746060609817505,0.38593989610671997,-0.25418803095817566,-0.6699849719947767,0.4673410494196085,0.18754758088492163,-0.5454707550402147,-0.9805909553625853,0.48312001615911787,1.6281326641404468
1773063634674153216,1.5539302825927734,1.1220380067825317,0.23935189843177795,0.3861660063266754,0.26237037777900696,0.8251941800117493,-0.5002161860466003,-0.11059123277664185,0.43034470081329346,-0.2797672748565674,-0.6712199508118073,0.46492663308813054,0.18367125734167788,-0.5473315174890363,-0.97054592152522,0.4830659040227443,1.62651637479762
1773063634684209408,1.5639863014221191,0.9131168723106384,0.2844650149345398,0.45634958148002625,0.26708129048347473,0.8188796639442444,-0.5080390572547913,-0.18981078267097473,0.26045072078704834,-0.19284290075302124,-0.672718733066561,0.46253434192171616,0.17900406274760025,-0.5490620081160699,-0.9594564200099069,0.48400355896476027,1.6245086927839174
1773063634694264320,1.5740413665771484,0.38003990054130554,0.3164820671081543,0.5609263181686401,0.2728060483932495,0.8140694499015808,-0.5127063989639282,-0.10456264019012451,0.0019858479499816895,-0.05174672603607178,-0.6731277714632973,0.4615584875135813,0.17495876961742288,-0.5506834612107523,-0.9511251557535819,0.48898898268737934,1.6269188257332614
1773063634704320512,1.5840973854064941,0.5223002433776855,0.33162084221839905,0.44825494289398193,0.2788599729537964,0.8107870221138,-0.5146470665931702,0.020242840051651,-0.10099387168884277,0.028959810733795166,-0.6726723022212149,0.4617298733007997,0.17170316843489677,-0.5521192420933267,-0.94549544929783,0.49656214023492934,1.6324408812332842
1773063634714375424,1.5941524505615234,0.6706204414367676,0.3424937427043915,0.25304684042930603,0.28342291712760925,0.8067777156829834,-0.5184411406517029,-0.009237736463546753,0.0178225040435791,-0.12648677825927734,-0.6734697286921724,0.46102199396670945,0.16804208299711926,-0.5528645480405742,-0.9386780672698201,0.5002929329291613,1.6324426298725931
1773063634724431616,1.6042084693908691,0.7893331050872803,0.1788090169429779,0.2530539333820343,0.2868014872074127,0.8022419214248657,-0.5235961079597473,-0.03368872404098511,0.16493642330169678,-0.07131361961364746,-0.6746719387075787,0.4594789879848369,0.16456310581511976,-0.5537290415705768,-0.9310410826855393,0.5011166832768468,1.6302511698755846
1773063634734486272,1.6142632961273193,0.8963375687599182,0.1450268179178238,0.22567212581634521,0.2895623743534088,0.7970497012138367,-0.5299673080444336,-0.032253414392471313,0.07680588960647583,-0.033097267150878906,-0.6760703416473647,0.45722510093944874,0.1611258623643932,-0.5548986692845388,-0.9223940685754403,0.5000579755009426,1.6270171707431986
1773063634744542464,1.624319314956665,0.8870804905891418,0.24166640639305115,0.16747449338436127,0.29217657446861267,0.7916463017463684,-0.5365901589393616,-0.06738409399986267,-0.028676390647888184,-0.03144878149032593,-0.6777402744789608,0.4548612751227692,0.15749969258918323,-0.5558445615252304,-0.9134988482689995,0.4986154064850851,1.6227427141236244
1773063634754597376,1.6343743801116943,0.7410580515861511,0.29330936074256897,0.11321018636226654,0.29479503631591797,0.7867814302444458,-0.5422829389572144,-0.07804393768310547,-0.06954210996627808,-0.032805562019348145,-0.6794286470068821,0.45294492240732964,0.15394620370339365,-0.5563435281312599,-0.9055770505815975,0.49793058688696895,1.6183725137952563
1773063634764653568,1.64443039894104,0.6895825266838074,0.31244537234306335,0.02807248756289482,0.297037810087204,0.7827262282371521,-0.5469077229499817,-0.04642745852470398,-0.09765243530273438,-0.022428154945373535,-0.6810414042929926,0.4514527105062695,0.1507865310742827,-0.5564498065948267,-0.8990342875613235,0.4975475150393798,1.6140188828011015
1773063634774708480,1.6544854640960693,0.759167492389679,0.3395094871520996,-0.08142630755901337,0.29864466190338135,0.7788077592849731,-0.5516065955162048,-0.03568994998931885,-0.09550392627716064,0.019715726375579834,-0.6830043596928784,0.4498703655838005,0.14769347012547396,-0.5561549226730966,-0.8927628378633649,0.4962233736503981,1.6080832708438806
1773063634784764416,1.664541482925415,0.7425829768180847,0.28966429829597473,-0.17546126246452332,0.2994193732738495,0.7749873995780945,-0.5565453171730042,-0.043590545654296875,-0.024560093879699707,0.056575775146484375,-0.6853129526371866,0.44807349318985745,0.14476704453546804,-0.5555348019494925,-0.8866951574102648,0.49358072658416735,1.6005130901572961
1773063634794819328,1.6745963096618652,0.6584369540214539,0.14521467685699463,-0.2427108734846115,0.29904723167419434,0.7716614603996277,-0.5613460540771484,-0.03267452120780945,-0.0064484477043151855,0.07495689392089844,-0.6876369745689368,0.4461158318592965,0.14250491541059096,-0.5548228560459557,-0.8814492338390993,0.4894893628655889,1.5923306214961004
1773063634804874496,1.6846513748168945,0.5225192308425903,-0.01609502173960209,-0.32388851046562195,0.297210693359375,0.7691419124603271,-0.5657618641853333,-0.0102081298828125,-0.06574225425720215,0.07821309566497803,-0.6898023384023473,0.4440314730724207,0.14126255161477516,-0.5541242152831227,-0.8774973459913586,0.4837042991192458,1.5839957095533355
1773063634814930432,1.6947073936462402,0.3588048815727234,-0.10749391466379166,-0.39007338881492615,0.29405006766319275,0.7677268385887146,-0.5693243145942688,-0.01940712332725525,-0.09420377016067505,0.0629613995552063,-0.6917187177735972,0.44207635019350205,0.1410897977472966,-0.5533421583279302,-0.875286066623575,0.47675203684138506,1.5758497203447916
1773063634824985600,1.7047624588012695,0.3548785150051117,-0.08551488071680069,-0.43497219681739807,0.29028138518333435,0.7669585943222046,-0.5722859501838684,-0.05355653166770935,-0.07816159725189209,0.03847247362136841,-0.6935581016907856,0.4402984535824817,0.1414012064595786,-0.5523767923384687,-0.8740880234057365,0.46941596714432704,1.5676261282049537
1773063634835041536,1.7148184776306152,0.5765635371208191,0.03506825491786003,-0.49648934602737427,0.28651106357574463,0.76572185754776,-0.5758310556411743,-0.08192124962806702,-0.051122307777404785,0.03219097852706909,-0.6958133229411413,0.4383136714670244,0.14129972426664428,-0.5511435762902912,-0.8721629182377704,0.4616945144701155,1.5579786096304493
1773063634845096448,1.7248733043670654,0.9086089730262756,0.16302232444286346,-0.5579008460044861,0.28306934237480164,0.7628869414329529,-0.5812703371047974,-0.10382434725761414,-0.01201719045639038,0.05621540546417236,-0.6989845942559985,0.43561180746816763,0.1400256731059201,-0.5495958835962648,-0.8677667171147463,0.4531806753867467,1.5454685910906598
1773063634855152384,1.7349293231964111,1.0917081832885742,0.16815343499183655,-0.6046358942985535,0.2796505391597748,0.7585870623588562,-0.5885075926780701,-0.09656032919883728,0.06238150596618652,0.08592885732650757,-0.7029200731385274,0.4321270821110795,0.13788544649276693,-0.5478659592844636,-0.8611418971825109,0.44360005560221477,1.530547132756436
1773063634865207552,1.7449843883514404,1.1074802875518799,0.0515311174094677,-0.6587522625923157,0.27553093433380127,0.75372314453125,-0.5966439843177795,-0.05794057250022888,0.073822021484375,0.09588110446929932,-0.7071397672672605,0.4280651928283936,0.13578727848719163,-0.5461458917667453,-0.8537090925213195,0.4326243577764428,1.5145125668733581
1773063634875263488,1.7550404071807861,0.970717191696167,-0.08607041835784912,-0.7096138596534729,0.2702455520629883,0.7493212819099426,-0.6045535802841187,-0.02529624104499817,-0.006706535816192627,0.08357274532318115,-0.7112346299182227,0.42384215960069344,0.13446571897476264,-0.544446675651804,-0.8470365324202598,0.4203702544407768,1.4984426777930366
1773063634885318400,1.7650954723358154,0.9274073839187622,-0.20320819318294525,-0.7079653739929199,0.26399970054626465,0.7455093264579773,-0.6119804978370667,-0.016639500856399536,-0.08779442310333252,0.06344223022460938,-0.7150691852279285,0.4196068817325756,0.13393964508646403,-0.5428318202154351,-0.8412986685250544,0.40726705213946107,1.4828694688468944
1773063634895374336,1.775151252746582,0.932641863822937,-0.2894133925437927,-0.64072185754776,0.2573916018009186,0.7414926290512085,-0.6196275353431702,-0.02634301781654358,-0.053412795066833496,0.07130289077758789,-0.7187057662100255,0.41509871301225704,0.1337135029644478,-0.5415494309857597,-0.8352922325953829,0.3937090634973221,1.46802453702345
1773063634905429248,1.7852063179016113,0.9355061054229736,-0.2824319899082184,-0.5748920440673828,0.2510637044906616,0.7372250556945801,-0.6272687315940857,-0.04288804531097412,0.059146344661712646,0.05675792694091797,-0.7220863678212294,0.4105406845920398,0.13349894181451236,-0.5405788807113207,-0.828954049052005,0.3807210448199137,1.454405570980024
1773063634915485440,1.795262336730957,1.0289490222930908,-0.20003245770931244,-0.5561140775680542,0.24535974860191345,0.7324482202529907,-0.6350734233856201,-0.053511008620262146,0.04906117916107178,0.028124570846557617,-0.7254387451367192,0.4059553121547628,0.13290433948720073,-0.5396993857652973,-0.8219109803448617,0.3686828404202604,1.4414009338311151
1773063634925540352,1.8053174018859863,1.2418204545974731,-0.09282489120960236,-0.6217582821846008,0.24012421071529388,0.7265946865081787,-0.6437394022941589,-0.046200260519981384,-0.016160786151885986,0.028596580028533936,-0.7292220902537884,0.40102657886794346,0.13155980504627335,-0.5386137330390166,-0.8133526052164531,0.35702893498574556,1.4274582492507366
1773063634935595520,1.8153724670410156,1.3473801612854004,-0.0958358570933342,-0.7072066068649292,0.2347249984741211,0.7196714282035828,-0.6534349322319031,-0.025328636169433594,0.03232741355895996,0.07318896055221558,-0.7335929488723137,0.3955612127236485,0.12966830761856465,-0.5371766666778223,-0.8033289470345809,0.3448623309005311,1.4117764350912307
1773063634945651456,1.8254284858703613,1.2529926300048828,-0.2563261091709137,-0.6919430494308472,0.22851796448230743,0.7126144766807556,-0.6632949709892273,0.01225048303604126,0.10086214542388916,0.1171676516532898,-0.7379906914500234,0.38978594495144886,0.1281383611166473,-0.5357399336294,-0.7932178681890462,0.33178397534247145,1.3958648148077695
1773063634955706368,1.8354833126068115,1.0042341947555542,-0.4250946342945099,-0.696801483631134,0.22126342356204987,0.7066339254379272,-0.672094464302063,0.050663456320762634,0.052460312843322754,0.10469639301300049,-0.7418108281476736,0.3842302430347777,0.12774932126713065,-0.5345689153863825,-0.7847296908911663,0.31803928566261574,1.3814097435550237
1773063634965762304,1.8455393314361572,0.9403223395347595,-0.5130380988121033,-0.6952894330024719,0.2130899578332901,0.701620876789093,-0.679941713809967,0.045714378356933594,-0.04404342174530029,0.09008276462554932,-0.7452381300310181,0.37891311889502133,0.1282731232655631,-0.5334705753786689,-0.7776697178411889,0.30369952846263143,1.3677795660491745
1773063634975817472,1.8555943965911865,0.8198646306991577,-0.504310667514801,-0.7312783598899841,0.2045866698026657,0.6969940662384033,-0.6872725486755371,-0.0014463961124420166,-0.07240605354309082,0.07573080062866211,-0.7484912657358813,0.37374270483883304,0.12915151616990253,-0.5323504931227983,-0.7711969557517997,0.2893261543685072,1.3545797439694607
1773063634985873408,1.8656504154205322,0.7556111216545105,-0.4865487515926361,-0.7965551018714905,0.1958014965057373,0.6931670904159546,-0.693672239780426,-0.0186774879693985,-0.06427615880966187,0.030677855014801025,-0.7516491029112474,0.3690031318238685,0.13038626661853245,-0.5309046281481253,-0.7658738177602714,0.27511061804234677,1.3413192493141017
1773063634995928576,1.8757054805755615,0.798241913318634,-0.44235652685165405,-0.8554732799530029,0.18678219616413116,0.6893050670623779,-0.699979305267334,-0.006011337041854858,-0.10057520866394043,0.031125545501708984,-0.7549801722446721,0.3642670811284858,0.13160490259474122,-0.5291452395511473,-0.76052938066099,0.26076384634443334,1.327354683979622
1773063635005984256,1.8857612609863281,0.865140438079834,-0.4302603006362915,-0.8744878768920898,0.17773406207561493,0.6850286722183228,-0.7065028548240662,0.004043877124786377,-0.06077641248703003,0.04393577575683594,-0.7585084883943076,0.35938849295902753,0.13262154417198038,-0.5271777065429264,-0.7546430768939314,0.24645461979632766,1.312841382015889
1773063635016039424,1.8958163261413574,0.9307910799980164,-0.48922136425971985,-0.84151291847229,0.16857440769672394,0.6801172494888306,-0.7134585976600647,0.014241144061088562,0.012708067893981934,0.05401957035064697,-0.7620869288013621,0.35417407956339586,0.13353430160804453,-0.5253121524914214,-0.7479225674061893,0.23202250296396937,1.298426254536913
1773063635026095360,1.9058723449707031,1.064796805381775,-0.575807511806488,-0.8030588030815125,0.15914557874202728,0.6743325591087341,-0.7210744023323059,0.024371877312660217,0.02480989694595337,0.03223162889480591,-0.7656421168258828,0.3484173793378992,0.13441774311266252,-0.523764558204573,-0.7400604345108887,0.2172237870321156,1.2844730223129306
1773063635036150528,1.9159274101257324,1.1688342094421387,-0.636768102645874,-0.7788147330284119,0.1493687480688095,0.6673303246498108,-0.7296294569969177,0.01654006540775299,0.036404967308044434,0.0116729736328125,-0.7692681931854997,0.3419265307611175,0.13517215799664958,-0.5225333403790932,-0.7306184056621902,0.2019285536432449,1.2707989135250113
1773063635046206464,1.9259834289550781,1.1626859903335571,-0.6396839618682861,-0.7350701689720154,0.1395544409751892,0.659843921661377,-0.7383295893669128,-0.011807858943939209,0.07114362716674805,-0.030408203601837158,-0.7728060206014107,0.3352099758214396,0.1359024631363847,-0.5214745270688295,-0.7206110241969663,0.186809887892399,1.2577549702642359
1773063635056261376,1.9360382556915283,1.205420970916748,-0.5459551215171814,-0.6688336730003357,0.1304447203874588,0.6519759893417358,-0.746934711933136,-0.0430423766374588,0.04789888858795166,-0.07125681638717651,-0.7761978487854511,0.32855656441574743,0.13632030602419,-0.5205614644880668,-0.7101875539144529,0.17289639091626974,1.245768313593767
1773063635066316288,1.9460933208465576,1.3385764360427856,-0.38115593791007996,-0.6356421709060669,0.12270098179578781,0.6432517766952515,-0.7557589411735535,-0.06662493944168091,0.016538262367248535,-0.07969021797180176,-0.7796500865118682,0.32195284713985783,0.13589290668420764,-0.5196394752151721,-0.6987377701724367,0.1609502933027747,1.2345255247465756
1773063635076372480,1.9561493396759033,1.405173897743225,-0.29729992151260376,-0.5986111760139465,0.11623332649469376,0.6334047913551331,-0.7650412917137146,-0.06446024775505066,0.04324620962142944,-0.0475197434425354,-0.7832536825306697,0.31523634796281313,0.13455633764099217,-0.5186851376310752,-0.6859453242677579,0.15077771130151976,1.2237632476664273
1773063635086427392,1.9662044048309326,1.3729662895202637,-0.3474256992340088,-0.5489142537117004,0.11021991819143295,0.6232451796531677,-0.7742202877998352,-0.027151092886924744,0.088043212890625,-0.018016040325164795,-0.7867230590122598,0.30852964555022017,0.13303875208766447,-0.5178582220229669,-0.6728856025556178,0.14141224877679354,1.2138321781703476
1773063635096483584,1.9762604236602783,1.2545256614685059,-0.43722617626190186,-0.5607898235321045,0.10369117558002472,0.613551914691925,-0.7828168272972107,0.0014113709330558777,0.062320828437805176,-0.0007525086402893066,-0.7899132592301845,0.30192492063593235,0.13203383812892347,-0.5171513012439706,-0.6605508657620022,0.13169242287678723,1.204541783204804
1773063635106538240,1.9863152503967285,1.1620887517929077,-0.4571482539176941,-0.6020088791847229,0.0965534970164299,0.6046289801597595,-0.7906334400177002,-0.010661788284778595,-0.03059333562850952,-0.019699811935424805,-0.792932582243707,0.29558331427336054,0.13158181710948957,-0.5163087717200355,-0.6492999688677513,0.12151997149973641,1.195293339347137
1773063635116594432,1.9963712692260742,1.2070964574813843,-0.43432122468948364,-0.6235301494598389,0.08927776664495468,0.595820963382721,-0.7981396317481995,-0.03980877250432968,-0.09547001123428345,-0.04510682821273804,-0.7959532882941142,0.28932680549471634,0.13122572248025807,-0.5152942190095666,-0.6382874744060156,0.11139428328706034,1.1859230008950854
1773063635126649344,2.0064263343811035,1.3675916194915771,-0.37002870440483093,-0.6513758301734924,0.08220824599266052,0.586014986038208,-0.8061192035675049,-0.06876524537801743,-0.06419497728347778,-0.03196972608566284,-0.7991742748702063,0.28270442266372015,0.13045534199667386,-0.5141789917277519,-0.6261321089467498,0.10162891300153962,1.1763495272119748
1773063635136705280,2.016482353210449,1.478330135345459,-0.23394490778446198,-0.6864174604415894,0.07584769278764725,0.5748600363731384,-0.8147287964820862,-0.08767324686050415,-0.017868459224700928,0.005280613899230957,-0.8027244661303292,0.2757169198817255,0.12890216697600704,-0.5128331182043058,-0.6124330841764517,0.0928280683013267,1.1663836894847561
1773063635146760448,2.0265374183654785,1.3913145065307617,-0.1866314560174942,-0.6912065744400024,0.07023023068904877,0.5634708404541016,-0.8231453895568848,-0.07038279622793198,-0.021432876586914062,0.043756961822509766,-0.8063475791895607,0.2689081116381855,0.12694781231992813,-0.511249641200895,-0.5985811242020778,0.08511322731439656,1.1564115885936501
1773063635156816384,2.036593437194824,1.2106411457061768,-0.2334117442369461,-0.6935917139053345,0.06464114040136337,0.5531255006790161,-0.8305863738059998,-0.021107807755470276,-0.09055536985397339,0.06326764822006226,-0.8097260413669498,0.2626577949272291,0.1253702863853352,-0.5095457193452982,-0.586111243778269,0.07766935176982395,1.146791494099382
1773063635166871296,2.0466482639312744,1.1090859174728394,-0.2472885251045227,-0.7460981011390686,0.058660734444856644,0.5438936352729797,-0.8371013402938843,0.0027711503207683563,-0.15659505128860474,0.05226552486419678,-0.8129123738049912,0.25688180194611554,0.12434257219421149,-0.5076653203221121,-0.5750700971067902,0.06996165530996751,1.1371795228143702
1773063635176927232,2.05670428276062,1.0417239665985107,-0.22494752705097198,-0.812356173992157,0.05242708697915077,0.5352490544319153,-0.8430657386779785,-0.010373860597610474,-0.11697512865066528,0.017046451568603516,-0.8161289600331417,0.25139139105955455,0.12356981824441914,-0.5054367656684419,-0.5648025571892432,0.06210626529827039,1.1270199604894304
1773063635186982400,2.0667593479156494,1.0410642623901367,-0.2089405059814453,-0.836905837059021,0.046175435185432434,0.5268718600273132,-0.8486894965171814,-0.021181534975767136,-0.021256685256958008,-0.048023760318756104,-0.8193834568546626,0.24608456144239096,0.12287250932845126,-0.5029467060118221,-0.5549159743647043,0.054354337423098475,1.1165095751827991
1773063635197037568,2.0768144130706787,1.1282553672790527,-0.21646660566329956,-0.8138743042945862,0.0400172658264637,0.5179316997528076,-0.8544854521751404,-0.0120631642639637,0.020276308059692383,-0.08136659860610962,-0.8226711202072584,0.240559611830709,0.12201785451690275,-0.5004547399952664,-0.5444313259400654,0.046797811869319125,1.106108181807339
1773063635207093504,2.0868704319000244,1.0999360084533691,-0.21774153411388397,-0.7862197756767273,0.03403500095009804,0.5085420608520508,-0.8603642582893372,0.008475981652736664,0.03486919403076172,-0.08078259229660034,-0.8258851564495148,0.23487329902147933,0.12104716652556985,-0.498092203295195,-0.5334906844338424,0.0395382134632061,1.0961985536949845
1773063635217148416,2.0969252586364746,0.7520358562469482,-0.29135236144065857,-0.8125951886177063,0.027869226410984993,0.5005027055740356,-0.8652862906455994,0.020516404882073402,0.047303080558776855,-0.032083094120025635,-0.8288356918139791,0.22980282991909734,0.12061311915178874,-0.49565564957523633,-0.5241793673133853,0.032196968696856815,1.0865542451361188
1773063635227204352,2.1069812774658203,0.42584630846977234,-0.300430029630661,-0.8346149921417236,0.02096906304359436,0.49597489833831787,-0.868083655834198,0.02036699652671814,0.011425614356994629,0.054515540599823,-0.8313377209632704,0.22625198458927076,0.12152457118744951,-0.4928685691394861,-0.5189571948073749,0.024150883442816126,1.076720400992664
1773063635237259264,2.1170363426208496,0.4667825400829315,-0.24406714737415314,-0.7748094797134399,0.014611979015171528,0.4923623502254486,-0.8702676892280579,0.04227278381586075,-0.03710111975669861,-0.06851404905319214,-0.8336586359493979,0.22329567143335677,0.12249574313639226,-0.49004811740317283,-0.5148017988549521,0.016788634304898103,1.0672628384618716
1773063635247315456,2.1270923614501953,0.49839332699775696,-0.40092962980270386,-0.657374918460846,0.008367491886019707,0.48825588822364807,-0.8726603984832764,0.11162762343883514,0.04368075728416443,-0.20044445991516113,-0.8357651068220471,0.22008680494426494,0.12341636388324646,-0.4876750176686051,-0.5100901226675947,0.009588192019420641,1.0589083496329603
1773063635257370368,2.1371474266052246,0.6428104043006897,-0.6122146844863892,-0.5390836596488953,0.000972634123172611,0.48338204622268677,-0.875408947467804,0.16749966144561768,0.12614554166793823,-0.13104552030563354,-0.837516776832793,0.21611998917283715,0.12485059429973296,-0.48607620598036155,-0.5045139902401308,0.0011110620815469835,1.0520193279806673
1773063635267426560,2.1472034454345703,0.6926470398902893,-0.7132735252380371,-0.49468231201171875,-0.007436239160597324,0.4774433374404907,-0.878631055355072,0.13460299372673035,0.10467943549156189,-0.05400139093399048,-0.8390700714217602,0.2113248693571408,0.12659490032158185,-0.48505352380684125,-0.49774269966592594,-0.008463235355583408,1.0461478798895318
1773063635277481216,2.1572582721710205,0.6923905611038208,-0.712988018989563,-0.4486977756023407,-0.016013259068131447,0.4712509512901306,-0.8818537592887878,0.0671302080154419,0.0484175980091095,-0.018429994583129883,-0.8404897429935707,0.20635349193232466,0.12841862876885762,-0.4842559710925402,-0.4907085674979102,-0.01815663765917811,1.0408635951573886
1773063635287537408,2.167314291000366,0.64382004737854,-0.739954948425293,-0.4042467772960663,-0.024442631751298904,0.4652053713798523,-0.8848652839660645,0.04289050027728081,0.015034466981887817,-0.029822826385498047,-0.8417401667439731,0.20147892801153497,0.13028281780344736,-0.48363849405666015,-0.4838666168278072,-0.027615975103912914,1.0362068122938362
1773063635297592320,2.1773693561553955,0.5468610525131226,-0.786431610584259,-0.37504974007606506,-0.03304911032319069,0.459764301776886,-0.8874257802963257,0.05190896615386009,-0.0025957226753234863,-0.020899415016174316,-0.8427853423590342,0.19683697374487544,0.13244736017890463,-0.48314163720529923,-0.4777297662812202,-0.037224346660458325,1.031997350977261
1773063635307648512,2.187425374984741,0.36895987391471863,-0.8234133124351501,-0.34275302290916443,-0.04190521314740181,0.4555181562900543,-0.8892396688461304,0.052922043949365616,-0.02387753129005432,-0.01699507236480713,-0.8435654391996136,0.19268645127652353,0.13510031424913357,-0.4827186814882218,-0.4729541736854273,-0.04708992944784017,1.0281596076783361
1773063635317703424,2.1974804401397705,0.24111269414424896,-0.8331663608551025,-0.32685738801956177,-0.05085653439164162,0.4527263343334198,-0.8901979923248291,0.03178305923938751,-0.0657634437084198,-0.0162351131439209,-0.8440850136184352,0.1891924108545573,0.1382289270797148,-0.48230633253122196,-0.4698206004299185,-0.05706743495035716,1.0245808187534426
1773063635327758336,2.2075352668762207,0.24412593245506287,-0.8195093870162964,-0.3264616131782532,-0.059724584221839905,0.4503955543041229,-0.8908292651176453,0.0186021625995636,-0.11515998840332031,0.003835916519165039,-0.8445195552640485,0.18594394299357345,0.14145745442753122,-0.48187261842553797,-0.4672083082717256,-0.06694362312016555,1.0210893822354565
1773063635337814272,2.2175912857055664,0.2586905062198639,-0.8603673577308655,-0.3081537187099457,-0.06866832077503204,0.447969913482666,-0.8914076685905457,0.03381723910570145,-0.07214593887329102,0.032322585582733154,-0.8449233332166044,0.18263583055361254,0.14470769326872218,-0.4814649267344651,-0.46449337023641135,-0.0768817380144362,1.0176924335936306
1773063635347869440,2.2276463508605957,0.30967530608177185,-0.8994778990745544,-0.28192204236984253,-0.07790423184633255,0.44521400332450867,-0.89202880859375,0.04479266703128815,-0.004982680082321167,0.058502256870269775,-0.8452417702565954,0.17907956789307863,0.1480408395076617,-0.48122846572274236,-0.46141323290619435,-0.08711273233988936,1.0146638457262458
1773063635357925376,2.2377023696899414,0.3063354194164276,-0.8504685163497925,-0.29477739334106445,-0.08706988394260406,0.4421769380569458,-0.8926916718482971,0.023349180817604065,-0.0263901948928833,0.05818849802017212,-0.8455441491477005,0.1754093720305122,0.15128027035195193,-0.48104159299113414,-0.4580243336502678,-0.09722880573788782,1.0118153654564328
1773063635367980544,2.2477574348449707,0.35046759247779846,-0.777723491191864,-0.3336016535758972,-0.09575247764587402,0.43900415301322937,-0.8933682441711426,0.00864005833864212,-0.09485742449760437,0.04340791702270508,-0.845962805975243,0.17184038755655337,0.15422958446485976,-0.48065682049725383,-0.45449001415287443,-0.10677379730493684,1.0086707890073947
1773063635378036480,2.2578134536743164,0.4286007285118103,-0.7411774396896362,-0.34475043416023254,-0.10404262691736221,0.43514126539230347,-0.894330620765686,0.02179773896932602,-0.07976403832435608,0.052075982093811035,-0.8465331144853211,0.16808316634174975,0.15678886676823678,-0.48015309817151947,-0.4501951553169527,-0.11581515034332743,1.0053571253886433
1773063635388091392,2.2678682804107666,0.4615733027458191,-0.7576911449432373,-0.29884397983551025,-0.11217571794986725,0.4307642877101898,-0.8954656720161438,0.02858807146549225,0.04357042908668518,0.0522955060005188,-0.8470984804449346,0.16411999263339455,0.15915966012716828,-0.4797468376696356,-0.4453394869173219,-0.12462163907389198,1.00235331356919
1773063635398147328,2.2779242992401123,0.4357132315635681,-0.7807136178016663,-0.23391878604888916,-0.12025041878223419,0.4263896942138672,-0.8965108394622803,0.019588179886341095,0.07505989074707031,0.025172948837280273,-0.8474866369477955,0.16012917920174508,0.1615649371231406,-0.4796059946994933,-0.4404976963255776,-0.1333357615222746,1.00006748669932
1773063635408202496,2.2879793643951416,0.3817119300365448,-0.7982527017593384,-0.23006269335746765,-0.12832215428352356,0.4224281907081604,-0.8972669243812561,0.013072505593299866,-0.0107308030128479,-0.017161786556243896,-0.8477122834945745,0.15630590633361072,0.16411890220758493,-0.479601400151453,-0.43612259582799184,-0.14205123794287375,0.9981977303391353
1773063635418258432,2.2980353832244873,0.370453417301178,-0.8671292662620544,-0.2899273633956909,-0.1369127780199051,0.41872334480285645,-0.8977336287498474,0.02871270477771759,-0.05347374081611633,-0.023164808750152588,-0.8479374185682448,0.15250232697205637,0.16696175197784657,-0.4794466281304693,-0.43203904537695875,-0.15134318151407405,0.9959485285832465
1773063635428313600,2.3080904483795166,0.38269156217575073,-0.9873558878898621,-0.3249530494213104,-0.14656540751457214,0.4148656725883484,-0.8980005979537964,0.05757613480091095,0.0028894245624542236,0.015478014945983887,-0.8481888884740943,0.1483977001300918,0.1702287336513451,-0.47914096842048864,-0.4277951759377504,-0.16178651860175317,0.9932033913736381
1773063635438369536,2.3181464672088623,0.33672860264778137,-1.0825713872909546,-0.3006725013256073,-0.1572529822587967,0.41110727190971375,-0.897921085357666,0.06133626401424408,0.05979418754577637,0.04915100336074829,-0.8483188411785875,0.14407683796897275,0.1740152764447275,-0.4788691024152545,-0.4236683929333744,-0.17337186718613498,0.9904277157206642
1773063635448424448,2.3282012939453125,0.25895315408706665,-1.1092647314071655,-0.24270440638065338,-0.1683010458946228,0.4079984426498413,-0.8973360657691956,0.0327724814414978,0.04854452610015869,0.04578888416290283,-0.8482160089214631,0.13993160698304632,0.17818837909292334,-0.47874609040673444,-0.42026065246410604,-0.18540235281118264,0.9880357602084846
1773063635458480128,2.338257074356079,0.21331508457660675,-1.1113179922103882,-0.19548895955085754,-0.17922505736351013,0.405478835105896,-0.8963622450828552,0.0067397356033325195,0.017754167318344116,0.0458831787109375,-0.8478939171335976,0.13604400532447375,0.18251276078372822,-0.4788077832260406,-0.41750259392640426,-0.19734472759991778,0.9861867685648834
1773063635468536064,2.348313093185425,0.11963500827550888,-1.1100832223892212,-0.18815089762210846,-0.18998652696609497,0.4036131501197815,-0.8949868679046631,-0.008362457156181335,0.03526011109352112,0.06184178590774536,-0.8474320282131564,0.1324804779346247,0.18696384949024278,-0.4789074583302726,-0.4154625389114711,-0.20917351451837443,0.9845247698012722
1773063635478590976,2.358367919921875,0.021021347492933273,-1.131546139717102,-0.18792639672756195,-0.20081183314323425,0.4026072919368744,-0.8930744528770447,-0.009622141718864441,0.03281751275062561,0.06670421361923218,-0.8468671835349084,0.12930521967214081,0.19168445225061134,-0.4789083950593036,-0.4143633950768444,-0.22117597288475233,0.9826672419442624
1773063635488646912,2.3684239387512207,-0.11684583872556686,-1.1548186540603638,-0.1893860399723053,-0.21183596551418304,0.4026295840740204,-0.8905138969421387,-0.007249727845191956,-0.009929388761520386,0.06138181686401367,-0.8461730102731343,0.12656211851184138,0.19678691834316062,-0.4787988467104804,-0.4143877738492546,-0.23354003705237894,0.980539865883549
1773063635498702080,2.37847900390625,-0.21765688061714172,-1.1594486236572266,-0.18449833989143372,-0.22295626997947693,0.403774231672287,-0.887274980545044,-0.010777875781059265,-0.03211590647697449,0.057944536209106445,-0.8453522948816126,0.12432432518056329,0.2022522707866664,-0.47855708979443085,-0.41563858033599665,-0.2461849303284862,0.978082083060774
1773063635508758016,2.3885350227355957,-0.2376871407032013,-1.1460700035095215,-0.1877429336309433,-0.23397976160049438,0.40539416670799255,-0.883690595626831,-0.02360387146472931,-0.044645875692367554,0.06464457511901855,-0.8444614130949898,0.12233279013646416,0.2078205787397571,-0.4782575330219212,-0.4174099655978339,-0.2588361024160792,0.9755000959412883
1773063635518813184,2.398590087890625,-0.21856670081615448,-1.1147520542144775,-0.22506926953792572,-0.24484466016292572,0.4069617986679077,-0.8800188899040222,-0.030576467514038086,-0.036966681480407715,0.06971609592437744,-0.8436167586940527,0.12038495254844331,0.21330267747570916,-0.47782865281058984,-0.4191254868645998,-0.2713634858514219,0.9726461639035371
1773063635528869120,2.4086461067199707,-0.11332736909389496,-1.0897009372711182,-0.26569482684135437,-0.2555842697620392,0.40788888931274414,-0.8765291571617126,-0.027801990509033203,-0.02742624282836914,0.06727927923202515,-0.8429053428052092,0.11821402976172993,0.21854259972348744,-0.47725800115455386,-0.42014065897924935,-0.283720435903375,0.9695164115062657
1773063635538924032,2.418700933456421,0.09729990363121033,-1.0189447402954102,-0.2946859896183014,-0.26604267954826355,0.4072483777999878,-0.8737105131149292,-0.03078654408454895,-0.020789027214050293,0.0612410306930542,-0.8423981030430576,0.11541207225230214,0.22321466508821777,-0.4766769086275669,-0.41943925015491024,-0.29557782510355807,0.9665176846080621
1773063635548979968,2.4287569522857666,0.3327416479587555,-0.9115259051322937,-0.3034508526325226,-0.27573728561401367,0.404570609331131,-0.8719469904899597,-0.047688037157058716,0.0061349570751190186,0.05230587720870972,-0.8421430603771718,0.11186196283382313,0.22696564789546608,-0.47620216411152405,-0.41650925753087054,-0.30628093875352236,0.9640669185268904
1773063635559035136,2.438812017440796,0.550260066986084,-0.816400945186615,-0.33201804757118225,-0.2845713794231415,0.39972975850105286,-0.8713410496711731,-0.05624890327453613,0.014912545680999756,0.04829728603363037,-0.8421507496104692,0.10752375876906536,0.22971310519474966,-0.4758704107541356,-0.4112220172515322,-0.3156694303724894,0.9623092037994994
1773063635569091072,2.4488680362701416,0.6099106073379517,-0.7543742060661316,-0.40206193923950195,-0.29286953806877136,0.39351269602775574,-0.8714213967323303,-0.043479979038238525,-0.0027656257152557373,0.03867298364639282,-0.8424372575889555,0.10274434869993124,0.2318035928108478,-0.47540539319406827,-0.4044494524084643,-0.3242228150461035,0.9605062734831011
1773063635579146240,2.458923101425171,0.5286250710487366,-0.7642987370491028,-0.44298088550567627,-0.30115240812301636,0.3871777355670929,-0.8714359402656555,-0.021006405353546143,-0.036469727754592896,0.026633083820343018,-0.8428556315908228,0.09799251563860997,0.23383647246081324,-0.4746707254735938,-0.39756861910866415,-0.3327333917284455,0.9581690778201927
1773063635589200896,2.468977928161621,0.4737813174724579,-0.7874123454093933,-0.46884071826934814,-0.30973830819129944,0.3814658224582672,-0.8709454536437988,-0.0069426000118255615,-0.06957617402076721,0.015293598175048828,-0.8432626451614762,0.0935123120013373,0.23618365747844097,-0.47368845247170416,-0.3913815084238072,-0.3416856297653546,0.9552415198394477
1773063635599257088,2.479033946990967,0.5357427000999451,-0.7639368772506714,-0.49279001355171204,-0.31838294863700867,0.37554678320884705,-0.8704004287719727,-0.017112046480178833,-0.07774099707603455,0.020211219787597656,-0.8437099122045469,0.08895620256111506,0.23850905893517935,-0.4726032464834021,-0.3849866574317283,-0.35067094716856456,0.9521736900938554
1773063635609312000,2.489089012145996,0.5275015830993652,-0.7466640472412109,-0.5224667191505432,-0.32686465978622437,0.36917442083358765,-0.8699826002120972,-0.027856409549713135,-0.027438580989837646,0.021288752555847168,-0.8442386125382655,0.08426563636228611,0.24064078852538134,-0.4714367016762603,-0.37812051829265225,-0.35939650680585,0.949073210564622
1773063635619368192,2.499145030975342,0.41177552938461304,-0.7614791989326477,-0.5700377225875854,-0.33545517921447754,0.363168865442276,-0.8692400455474854,-0.02164626121520996,0.005819171667098999,0.0022966861724853516,-0.8448151482615595,0.07978854680518632,0.24292751247930663,-0.4700079366224671,-0.37166672662510075,-0.3683079038904585,0.9453941378040629
1773063635629423104,2.509200096130371,0.21287590265274048,-0.8078069090843201,-0.6100320816040039,-0.3444553315639496,0.35844504833221436,-0.8676794767379761,-0.013073354959487915,-0.057877421379089355,-0.038494229316711426,-0.8453705189355554,0.07589802469060093,0.24576358871300985,-0.46817581319852,-0.3666017203945313,-0.3779041430147486,0.9406568951246331
1773063635639479040,2.5192558765411377,0.12444058060646057,-0.8550068736076355,-0.6054400205612183,-0.35391294956207275,0.3549530804157257,-0.8653056621551514,-0.008162856101989746,-0.11777046322822571,-0.06470227241516113,-0.8458219611012466,0.0725203206568974,0.2491745660403179,-0.46608792334970905,-0.3628638699296003,-0.38824373726287353,0.9351936666332796
1773063635649533952,2.529310941696167,0.11183876544237137,-0.8080772161483765,-0.6069690585136414,-0.3633407652378082,0.3517300486564636,-0.8627105355262756,-0.027574121952056885,-0.05108615756034851,-0.050131261348724365,-0.8462189178396045,0.06928674334103664,0.2526738705433837,-0.4639707218444908,-0.35941862008578485,-0.3986152305458189,0.9296964521521133
1773063635659589888,2.5393669605255127,0.12653596699237823,-0.7149584293365479,-0.607903003692627,-0.37206849455833435,0.3484947979450226,-0.8603001832962036,-0.06323423981666565,0.05194160342216492,-0.03896129131317139,-0.8467037140196897,0.06625659879655918,0.25585145062477627,-0.461782387222172,-0.35596475646451636,-0.40819491243158507,0.924160579568209
1773063635669645056,2.549422025680542,0.2499569207429886,-0.6855536699295044,-0.5731567144393921,-0.38011860847473145,0.344666987657547,-0.8583207726478577,-0.07392188906669617,0.006910771131515503,-0.040376126766204834,-0.8472409094350505,0.06310398419892733,0.2585681735133697,-0.4597209732738358,-0.3518840028170332,-0.41690307052885933,0.9191287939101834
1773063635679700992,2.5594780445098877,0.3706955909729004,-0.7103780508041382,-0.5450201630592346,-0.38804173469543457,0.33980968594551086,-0.8567105531692505,-0.06027674674987793,-0.06635692715644836,-0.03461635112762451,-0.8477096854628896,0.059430623261376485,0.26098412960288886,-0.45797775498083,-0.3467145299536204,-0.4252992946821386,0.9150748197326016
1773063635689756160,2.569533109664917,0.32779911160469055,-0.7313275933265686,-0.5775317549705505,-0.3961147964000702,0.33448848128318787,-0.8551084995269775,-0.04265168309211731,-0.015152543783187866,-0.03365492820739746,-0.8481486107790801,0.055497383897035,0.2633738506120959,-0.4562875448910363,-0.3410623863860275,-0.4338041439601075,0.9112768725043445
1773063635699811840,2.5795888900756836,0.2471599280834198,-0.7879090905189514,-0.6004021763801575,-0.40460634231567383,0.3296896517276764,-0.8529937863349915,-0.027034282684326172,0.03217253088951111,-0.046084582805633545,-0.8485712742305542,0.051773982170363206,0.266125076988344,-0.4543386832139644,-0.33597483966662095,-0.4429070835989523,0.9068287507180436
1773063635709867008,2.589643955230713,0.27116912603378296,-0.7870872020721436,-0.5939051508903503,-0.4134279191493988,0.32506006956100464,-0.8505370616912842,-0.023721158504486084,-0.03431910276412964,-0.04855656623840332,-0.8489282831320639,0.0480686481439558,0.26911124590161334,-0.45231552484168536,-0.3310752350254734,-0.45244861965228006,0.9022284862731993
1773063635719922176,2.599699020385742,0.4427259564399719,-0.7482860088348389,-0.578256368637085,-0.42194467782974243,0.3196123242378235,-0.8484165668487549,-0.03560534119606018,-0.055192768573760986,-0.026461362838745117,-0.849277576152636,0.04401615372820372,0.2717614726399569,-0.45048412396953635,-0.32532032169943154,-0.4615109204860714,0.8983178600470054
1773063635729978112,2.609755039215088,0.5186071395874023,-0.6312111616134644,-0.5533353686332703,-0.429543137550354,0.31298828125,-0.8470720648765564,-0.046561598777770996,0.021255463361740112,0.017726361751556396,-0.8497237295332444,0.03959469690373165,0.2736717605005141,-0.4488939228339279,-0.3183377785776392,-0.4693047968016283,0.8953209963414733
1773063635740033024,2.619810104370117,0.4791601300239563,-0.5898607969284058,-0.5295986533164978,-0.43635740876197815,0.3063623011112213,-0.8460108637809753,-0.04430973529815674,0.08089050650596619,0.026766479015350342,-0.8502098522438963,0.03534904319448848,0.2752181098668225,-0.4473798709316057,-0.31136920978163896,-0.47619354906825573,0.8926244417310321
1773063635750088960,2.629865884780884,0.44660064578056335,-0.647423505783081,-0.5321204662322998,-0.4432242512702942,0.3000805079936981,-0.8446916341781616,-0.010755211114883423,0.023192226886749268,0.03538072109222412,-0.8506171706883036,0.031243792531492513,0.27690795744427393,-0.4458656284068994,-0.3047770354843172,-0.4832253176980565,0.8899318926633871
1773063635760143872,2.639920949935913,0.31737661361694336,-0.7191073298454285,-0.5526864528656006,-0.4506324827671051,0.29437148571014404,-0.8427786231040955,0.012796789407730103,-0.05404555797576904,0.02831023931503296,-0.8509352095795392,0.02731078364808106,0.2790426739719091,-0.4441830980921782,-0.29879780607822454,-0.49101960164970015,0.8867808824616602
1773063635770200064,2.649976968765259,0.08891071379184723,-0.7909443378448486,-0.5354944467544556,-0.45861440896987915,0.29007479548454285,-0.8399580121040344,0.02033621072769165,-0.05113741755485535,0.002006351947784424,-0.8511143578948046,0.023949140245686708,0.2818641963353641,-0.442248230368886,-0.2943049956541964,-0.4997645462675656,0.8828036017027958
1773063635780254976,2.660032033920288,-0.23645593225955963,-0.8476076126098633,-0.4895024299621582,-0.46702057123184204,0.28834182024002075,-0.8359131217002869,0.012613862752914429,-0.007671624422073364,-0.041284143924713135,-0.8510775838149279,0.02173294421701384,0.285606582013288,-0.4400265620748431,-0.2924946418076392,-0.5094944019022636,0.8776686712683005
1773063635790311168,2.670088052749634,-0.311359167098999,-0.877444863319397,-0.45168837904930115,-0.4756406843662262,0.28864359855651855,-0.8309337496757507,-0.0035005509853363037,-0.020302563905715942,-0.08717232942581177,-0.8508305937277784,0.020434133270517803,0.290026869708065,-0.4376691358915925,-0.2928098250413469,-0.5198910108871113,0.8718081820379084
1773063635800365824,2.680142879486084,-0.06821522116661072,-0.832093358039856,-0.4104418456554413,-0.4840640723705292,0.28817489743232727,-0.8262186050415039,-0.022649794816970825,-0.06466415524482727,-0.0835561752319336,-0.8504883613444587,0.01873465296710288,0.29417631817826023,-0.4356361807876558,-0.2923203391013619,-0.5299716559617448,0.8668962452848583
1773063635810422016,2.6901988983154297,0.30673152208328247,-0.6739982962608337,-0.4006194770336151,-0.4915139973163605,0.28532740473747253,-0.8228014707565308,-0.039507150650024414,-0.010165661573410034,-0.04641544818878174,-0.8502573530528572,0.016032453052149488,0.2972241961991452,-0.43412343891604716,-0.28934801376588587,-0.5384808101181185,0.8637883539606275
1773063635820476928,2.700253963470459,0.6089819073677063,-0.5061280727386475,-0.38560324907302856,-0.4974990487098694,0.2794053852558136,-0.8212352395057678,-0.049574315547943115,0.0931226909160614,0.024772286415100098,-0.8502597619827073,0.01210312135488219,0.29872375689403097,-0.43321593195389124,-0.2831747647378875,-0.5446686000298734,0.8628797449211492
1773063635830533120,2.7103099822998047,0.5765592455863953,-0.4752225875854492,-0.3750949501991272,-0.5024837851524353,0.2724835276603699,-0.8205258846282959,-0.014636516571044922,0.13489562273025513,0.054626286029815674,-0.8504058203546092,0.007903033238633592,0.2994571613798715,-0.4325191999376002,-0.2759732771423483,-0.5494817400920861,0.862767204936006
1773063635840588032,2.720365047454834,0.3988502621650696,-0.6129589080810547,-0.3545076251029968,-0.5079219341278076,0.2665601074695587,-0.8191220760345459,0.04974633455276489,0.042277753353118896,0.053054630756378174,-0.8503970275878544,0.004067717899378972,0.3007031902412545,-0.43172431700670877,-0.26982223659444166,-0.5550541356643202,0.8622376728888952
1773063635850644224,2.7304210662841797,0.0761999785900116,-0.7625076770782471,-0.35915738344192505,-0.5145402550697327,0.26270541548728943,-0.8162316679954529,0.08294546604156494,-0.04322299361228943,0.031395912170410156,-0.8501195862337744,0.0009758347664605393,0.30312243530842886,-0.4305954003571213,-0.2658250259432993,-0.5624623544396975,0.8604757946890873
1773063635860698880,2.74047589302063,-0.24206002056598663,-0.8629607558250427,-0.39494600892066956,-0.5222154259681702,0.26154476404190063,-0.8117175102233887,0.06860220432281494,-0.026406854391098022,-0.007465779781341553,-0.8496829228036159,-0.0009455090525405344,0.30682298365099814,-0.42883283912679326,-0.2646223440816707,-0.5716834890791306,0.8566100091322327
1773063635870754048,2.750530958175659,-0.13644570112228394,-0.8453829884529114,-0.43597647547721863,-0.530324399471283,0.2611636519432068,-0.8065665364265442,0.02757781744003296,-0.028650224208831787,-0.02703636884689331,-0.8492404189564926,-0.0024905455073716658,0.3109831819137859,-0.4267012171992157,-0.2642275047272852,-0.5816355706523857,0.8517063425715313
1773063635880809984,2.760586977005005,0.2448265552520752,-0.6600443124771118,-0.4633351266384125,-0.5376381278038025,0.25822266936302185,-0.8026620149612427,-0.036931514739990234,-0.04025086760520935,0.0022622346878051758,-0.8490164987014565,-0.005094187153039649,0.3140749040637954,-0.4248552969490374,-0.2611820314527851,-0.5901817041747778,0.8481468194301555
1773063635890865152,2.770642042160034,0.23458212614059448,-0.5111072659492493,-0.4566728174686432,-0.5434484481811523,0.25354331731796265,-0.800237238407135,-0.06997013092041016,0.08344703912734985,0.01787334680557251,-0.8490819115274847,-0.008198898570057645,0.31593378135911043,-0.4232950088364406,-0.25634151139297795,-0.5965672243848102,0.8457392260491179
1773063635900921088,2.78069806098938,-0.037926625460386276,-0.5927783846855164,-0.42526775598526,-0.5488936305046082,0.25031450390815735,-0.7975327372550964,-0.03087937831878662,0.14955729246139526,-0.0076125264167785645,-0.849155109030122,-0.010474769415575597,0.3179998513355081,-0.421547251022026,-0.2530051019586986,-0.6027893929950566,0.8425458647338772
1773063635910976000,2.79075288772583,-0.2277069240808487,-0.7732732892036438,-0.4370170831680298,-0.555433452129364,0.249091237783432,-0.7933771014213562,0.03246903419494629,0.014656931161880493,-0.0402868390083313,-0.8489643991515177,-0.011996030409615548,0.3211970528484989,-0.4194615685154983,-0.2517417988858316,-0.6107847587346937,0.8380684688845598
1773063635921031936,2.800808906555176,-0.3484719395637512,-0.8716459274291992,-0.5116889476776123,-0.5631969571113586,0.24869689345359802,-0.7880095839500427,0.04230767488479614,-0.08478698134422302,-0.07073980569839478,-0.8486303202238368,-0.013289939466305108,0.32529770673829644,-0.41693098344604157,-0.25133464681089046,-0.6205292476760008,0.8323594664285179
1773063635931087104,2.810863971710205,-0.4196699559688568,-0.9103766083717346,-0.5990839004516602,-0.5716456770896912,0.24871191382408142,-0.7818974256515503,0.015478074550628662,-0.03997167944908142,-0.10761368274688721,-0.8483477342511283,-0.014349696250502808,0.3299172155719002,-0.413829531266443,-0.2513501482291187,-0.6312953810956787,0.8252201053173669
1773063635941143040,2.820919990539551,-0.12567481398582458,-0.8508917093276978,-0.6753919720649719,-0.5801867246627808,0.2473275363445282,-0.7760235071182251,-0.005323529243469238,0.0005362331867218018,-0.0950855016708374,-0.8482107131256923,-0.015995869455577943,0.3342639531699636,-0.4105487184076672,-0.24992112910131878,-0.641989412263819,0.818075895039566
1773063635951198208,2.83097505569458,0.49300098419189453,-0.6924459934234619,-0.7275280952453613,-0.5879461169242859,0.24190564453601837,-0.7718814611434937,-0.03507024049758911,0.01847033202648163,-0.019378304481506348,-0.8483373286983765,-0.01948244648559896,0.33716420020183757,-0.4077553648112501,-0.24432935206130277,-0.6509504166343452,0.8132792415097475
1773063635961254144,2.841031074523926,1.0456136465072632,-0.5910783410072327,-0.7217101454734802,-0.594575047492981,0.23140931129455566,-0.7700195908546448,-0.04087722301483154,0.05945374071598053,0.08900457620620728,-0.8486601946985343,-0.025407999208641313,0.33814882408839886,-0.40593786651458025,-0.23352606411312282,-0.6575306252026156,0.8123322983764844
1773063635971309056,2.851085901260376,1.0127042531967163,-0.6994059085845947,-0.7303433418273926,-0.601090133190155,0.2188364565372467,-0.7686359882354736,0.01490849256515503,0.1384328305721283,0.14964795112609863,-0.8489058571528455,-0.03246087166899813,0.33856802534867353,-0.40456995603785306,-0.22062186169329104,-0.6636821384477539,0.8131748879742593
1773063635981364992,2.8611419200897217,0.684638500213623,-0.9740926027297974,-0.7326650619506836,-0.609087347984314,0.20776678621768951,-0.765405535697937,0.08456647396087646,0.11053153872489929,0.153436541557312,-0.8488187794489518,-0.039059063916556315,0.34025229583117,-0.4027524877295107,-0.20929136771612397,-0.6721568178108512,0.8127105470236471
1773063635991419904,2.871196985244751,0.20826813578605652,-1.2446187734603882,-0.7079427242279053,-0.6190845370292664,0.19981038570404053,-0.7594802379608154,0.11081427335739136,-0.04142417013645172,0.11298060417175293,-0.8482686993138147,-0.04449071577968599,0.343919255909892,-0.4002255474638543,-0.2011643962933177,-0.6839061344241568,0.809879192801248
1773063636001475072,2.8812520503997803,-0.3676140606403351,-1.4406120777130127,-0.6845324635505676,-0.6307113766670227,0.19610093533992767,-0.7508312463760376,0.0860946774482727,-0.08463546633720398,0.0363231897354126,-0.8473233718741142,-0.048041219428411115,0.34968044929345626,-0.39681061065867607,-0.1973800527672312,-0.6986700670540769,0.8038489025395407
1773063636011531008,2.891308069229126,-0.4521852135658264,-1.4629181623458862,-0.722841739654541,-0.6430459022521973,0.19513754546642303,-0.7405492663383484,0.04090362787246704,-0.030312106013298035,-0.022283315658569336,-0.8462193109299327,-0.05019900949108147,0.35665868269258655,-0.39266713415754695,-0.19639768734966442,-0.7150434619198688,0.7953387902374667
1773063636021585920,2.901362895965576,0.09463844448328018,-1.3213608264923096,-0.7942306995391846,-0.6547978520393372,0.1915104240179062,-0.7311384677886963,-0.017855286598205566,-0.03628277778625488,-0.012010276317596436,-0.8452818434631839,-0.053504045284647125,0.36272314009556034,-0.38867443308092064,-0.19270082611327155,-0.7303714402114412,0.7881028410464713
1773063636031641856,2.911418914794922,0.6086267232894897,-1.2698720693588257,-0.7159367203712463,-0.6657347679138184,0.18385012447834015,-0.7231848835945129,-0.025427281856536865,0.07825006544589996,0.04369574785232544,-0.844267281377062,-0.05895508892932118,0.36733069951665154,-0.38575299578066463,-0.18490192406746192,-0.7440585577597558,0.784845290028714
1773063636041697024,2.921473979949951,0.8070098161697388,-1.222476601600647,-0.6175030469894409,-0.6759225726127625,0.1740359216928482,-0.7161286473274231,-0.011470615863800049,0.2222195714712143,0.11760258674621582,-0.8430144556519765,-0.06571898775402236,0.37096725515154017,-0.3839153321869781,-0.17492666337959803,-0.7565235968910577,0.7850186444072175
1773063636051752960,2.931529998779297,0.7070015072822571,-1.2757031917572021,-0.5676427483558655,-0.6858329772949219,0.16450433433055878,-0.7089227437973022,0.034557342529296875,0.14482185244560242,0.13401734828948975,-0.8415548375161727,-0.0724657399496301,0.37454953133322166,-0.3824222130261851,-0.16525547748002448,-0.7688449675823166,0.7860710274822087
1773063636061808128,2.941585063934326,0.40518760681152344,-1.3637135028839111,-0.5394934415817261,-0.6960844397544861,0.1566343754529953,-0.7006655335426331,0.08300149440765381,-0.0218229740858078,0.13027673959732056,-0.8398986095323158,-0.07844899231829532,0.3788310861918722,-0.3806614436581531,-0.15728204002546298,-0.7821183403729687,0.7861045327434812
1773063636071864064,2.951641082763672,0.055854760110378265,-1.403167963027954,-0.5003824830055237,-0.7066037058830261,0.15139222145080566,-0.6912247538566589,0.08122217655181885,-0.057535409927368164,0.07975929975509644,-0.8381419340068864,-0.08303942474081276,0.3840469755143536,-0.3783259360305248,-0.15197657034813414,-0.7963997397532978,0.7839788064756035
1773063636081918976,2.961695909500122,0.8200275301933289,-1.0518152713775635,-0.10918062925338745,-0.7159573435783386,0.14689581096172333,-0.682515025138855,0.06906098127365112,-0.01602119207382202,-0.03359520435333252,-0.836233755281861,-0.08732542816797036,0.3887373794586394,-0.37679005295772977,-0.14742930651683686,-0.8093070598563026,0.7834361436476387
1773063636091974912,2.9717519283294678,1.1709399223327637,-1.0135276317596436,-0.0573115237057209,-0.7228994965553284,0.13922558724880219,-0.6767810583114624,0.11074739694595337,0.13859117031097412,-0.2517772912979126,-0.8337645531354799,-0.09393161180069678,0.39087890232126693,-0.3784538868508516,-0.13967933823493542,-0.8183355089183223,0.791550287038197
1773063636102030080,2.981806993484497,0.7273169159889221,-1.1407300233840942,-0.3540515899658203,-0.7304282784461975,0.13118426501750946,-0.6702724695205688,0.021703362464904785,0.13979655504226685,0.03167694807052612,-0.8316187736517429,-0.10037038521718575,0.3934330200411078,-0.3788752337441738,-0.13156347071639504,-0.8283187116964326,0.7970810042984235
1773063636112086016,2.9918630123138428,0.5479260683059692,-1.2570585012435913,-0.39301785826683044,-0.7390277981758118,0.12430770695209503,-0.6621069312095642,0.0038593411445617676,-0.07381638139486313,0.05251830816268921,-0.8296366312898451,-0.10594846511663375,0.39714161291329164,-0.37783142361134253,-0.12463009560406794,-0.8402420814217992,0.7989685534848961
1773063636122141184,3.001918077468872,0.5401043891906738,-1.332531452178955,-0.4105875492095947,-0.7480438351631165,0.11766322702169418,-0.653135359287262,0.053707897663116455,-0.16421779990196228,-0.007676959037780762,-0.8274680921644265,-0.11153785073649695,0.4012376099681098,-0.3766487064545911,-0.11793643473781831,-0.8530295483870729,0.8006693141046783
1773063636132195840,3.0119729042053223,0.46684274077415466,-1.3751983642578125,-0.5322615504264832,-0.757449209690094,0.1108594685792923,-0.6434133648872375,0.07918083667755127,-0.0262647345662117,0.07162082195281982,-0.8253328421587961,-0.11710616154103438,0.40568393827778065,-0.37487630382013076,-0.1110878072518141,-0.866623070800812,0.8012678281141788
1773063636142252032,3.022028923034668,0.78880375623703,-1.297743320465088,-0.44934672117233276,-0.7666196227073669,0.10316676646471024,-0.6337594389915466,0.10377788543701172,0.07565098255872726,0.054154276847839355,-0.82317049872231,-0.12313335420886272,0.4098273602239936,-0.37318915725644686,-0.10335065449445922,-0.8799895036204012,0.8025938240775122
1773063636152306944,3.0320839881896973,1.1450529098510742,-1.1825109720230103,-0.28230181336402893,-0.7748425006866455,0.09409429877996445,-0.6251122951507568,0.12274289131164551,0.07248589396476746,-0.024011850357055664,-0.820660024337796,-0.1302919082125333,0.41287754836193413,-0.3729253594780053,-0.09423369896523122,-0.8919467281376171,0.8079704356068674
1773063636162363136,3.042140007019043,1.2617342472076416,-1.0894196033477783,-0.07583680003881454,-0.7820984125137329,0.08515773713588715,-0.6173088550567627,0.10851442813873291,0.07882846891880035,-0.043030500411987305,-0.8178282863404879,-0.13775523570639914,0.4151735254437155,-0.3739135245247917,-0.08526099805176907,-0.9026150064586284,0.8163129978741085
1773063636172418048,3.0521950721740723,1.4993230104446411,-1.0634727478027344,0.12447403371334076,-0.7886492013931274,0.07682916522026062,-0.6100243330001831,0.12606686353683472,0.08244206756353378,-0.12697511911392212,-0.814552595912088,-0.14540011757262117,0.4169492193266819,-0.376186398086193,-0.07690494856385435,-0.9124207979685072,0.8275450611116448
1773063636182474240,3.062251091003418,1.4627007246017456,-1.0995827913284302,0.3037306070327759,-0.795085072517395,0.06933528184890747,-0.6025216579437256,0.1422531008720398,0.040802642703056335,-0.09553736448287964,-0.8107468686853551,-0.15316373151052534,0.4186645966703217,-0.3794079024015574,-0.06939095547546913,-0.9223169429680603,0.8409089537417576
1773063636192528896,3.072305917739868,1.372829794883728,-1.0512195825576782,0.6229979395866394,-0.8012712597846985,0.06455384939908981,-0.5948085188865662,0.13551509380340576,0.06548155099153519,-0.019815504550933838,-0.8064791033865668,-0.1599854865579401,0.42071414823145964,-0.3834001714000378,-0.06459876865652922,-0.9322214720792178,0.8550423328603222
1773063636202585088,3.082361936569214,0.3913998007774353,-1.3115371465682983,0.46474674344062805,-0.8078789710998535,0.06353452056646347,-0.5859137177467346,0.09388977289199829,0.15211795270442963,-0.054665446281433105,-0.8020619179943864,-0.16493327946619019,0.42407564899371225,-0.3868507006490203,-0.06357734105292337,-0.9433246969738095,0.8663717292735569
1773063636212640000,3.092417001724243,-0.07899892330169678,-1.3640015125274658,0.189283087849617,-0.8155394792556763,0.06567318737506866,-0.5749629735946655,-0.03439033031463623,0.08636537194252014,0.06745564937591553,-0.7985108414371095,-0.16716011698003616,0.4296230938061157,-0.38712015766155006,-0.06572048787082742,-0.9567162772994598,0.86874526805673
1773063636222696192,3.102473020553589,0.018263977020978928,-1.1861510276794434,0.2019035518169403,-0.8227388262748718,0.06729692220687866,-0.5644217729568481,-0.07409650087356567,-0.15096086263656616,-0.08700639009475708,-0.795391499871182,-0.16917027969241877,0.4349374012283838,-0.386733963683577,-0.06734782564257961,-0.969509315450321,0.8696435155242673
1773063636232751104,3.112528085708618,-0.004351820331066847,-1.1266411542892456,0.19138087332248688,-0.8290566802024841,0.06902565807104111,-0.5548877716064453,-0.020918846130371094,-0.052179962396621704,-0.1274394392967224,-0.7924583331606745,-0.17094929970277697,0.43969585567275876,-0.3865922882326887,-0.06908059020777844,-0.9809727231731425,0.8708430549694496
1773063636242807040,3.122584104537964,0.15573425590991974,-1.094952940940857,0.04830228537321091,-0.835166335105896,0.06968716531991959,-0.5455646514892578,0.01996558904647827,0.11401340365409851,-0.10717576742172241,-0.7896939424004797,-0.17309287038880247,0.44413570475444525,-0.38621973337117194,-0.06974369176253019,-0.9921462735384583,0.8719820588532643
1773063636252861952,3.132638931274414,0.4017050266265869,-0.956882119178772,0.007448628544807434,-0.840752124786377,0.06833153963088989,-0.5370910167694092,0.013374805450439453,0.08105199784040451,-0.11079716682434082,-0.787092676054892,-0.17616709210501205,0.447682543089828,-0.38604497740348115,-0.06838482618120315,-1.0023192584223692,0.8745164535456796
1773063636262917888,3.1426949501037598,0.4864782392978668,-0.8741965889930725,-0.03942673280835152,-0.8456416726112366,0.06578602641820908,-0.5296814441680908,-0.027115285396575928,-0.005284927785396576,-0.11347651481628418,-0.7846504456233203,-0.17976496264240743,0.45038188703906185,-0.38621817490738747,-0.06583356887970268,-1.01121513009444,0.8783485374477047
1773063636272973056,3.152750015258789,0.42550843954086304,-0.8723180294036865,-0.16468633711338043,-0.8502946496009827,0.06250439584255219,-0.5225822925567627,-0.055009305477142334,-0.07448256015777588,-0.0922706127166748,-0.7824549471654019,-0.1834858869469927,0.4528153813233993,-0.3860770726126184,-0.0625451641610756,-1.0197181352502795,0.8817543631633796
1773063636283028992,3.1628060340881348,0.3180466890335083,-0.927206814289093,-0.2431875318288803,-0.8550999760627747,0.05874872952699661,-0.5151239037513733,-0.04260510206222534,-0.09030391275882721,-0.07714599370956421,-0.7804696733107314,-0.18717177700645748,0.4554171408951654,-0.38526494783415166,-0.05878257770747538,-1.0286039694577078,0.8838609459886346
1773063636293084160,3.172861099243164,0.2371923327445984,-1.014601230621338,-0.25825655460357666,-0.8602409362792969,0.05518011748790741,-0.5068932771682739,-0.010349273681640625,-0.041004717350006104,-0.08392703533172607,-0.7784626334828192,-0.19069822205305068,0.4584621504496301,-0.3839826229200156,-0.055208158724703305,-1.0383219032445217,0.8849244018433118
1773063636303139072,3.1829159259796143,0.20285460352897644,-1.1081655025482178,-0.2994588613510132,-0.8657473921775818,0.05168461799621582,-0.4978054165840149,0.002176225185394287,-0.005862478166818619,-0.06351965665817261,-0.7763282115338417,-0.1942331344830557,0.46192074996480964,-0.3823837128247842,-0.05170765753447173,-1.0489614661461621,0.8854278456396124
1773063636313195008,3.19297194480896,0.21845005452632904,-1.1768198013305664,-0.35426199436187744,-0.8715717792510986,0.047830019146203995,-0.48792925477027893,-0.019877195358276367,-0.007241640239953995,-0.04496866464614868,-0.7740839396641244,-0.19798251896228664,0.4656589864431936,-0.3804717681430207,-0.04784827499634971,-1.060439859670854,0.8856161247036608
1773063636323250176,3.2030270099639893,0.27330639958381653,-1.225894570350647,-0.4262392520904541,-0.8776034116744995,0.04316958412528038,-0.47743985056877136,-0.045782268047332764,-0.016710877418518066,-0.06351470947265625,-0.7717495011143722,-0.20217066901576655,0.46947533723225304,-0.3783157309240393,-0.04318300463011786,-1.072550554744138,0.8858929855499157
1773063636333306112,3.213083028793335,0.2954181134700775,-1.247042179107666,-0.4187702536582947,-0.8836482763290405,0.03801724314689636,-0.46660518646240234,-0.0391421914100647,-0.006065338850021362,-0.07479187846183777,-0.7693381737519877,-0.2066383923307364,0.4732842452655132,-0.3760603218101103,-0.03802640814956018,-1.0849660107965362,0.8863870174613481
1773063636343361024,3.2231380939483643,0.3509090542793274,-1.2651729583740234,-0.35025855898857117,-0.8896119594573975,0.03308732807636261,-0.45551708340644836,-0.02922654151916504,0.004128862172365189,-0.05514883995056152,-0.7667214038515687,-0.21117638684505022,0.47712262386093124,-0.37402778840361617,-0.033093368187986597,-1.097563017945276,0.8874890923746225
1773063636353416960,3.233193874359131,0.36368441581726074,-1.2479426860809326,-0.3459102213382721,-0.8954066038131714,0.028373483568429947,-0.4443444013595581,-0.07294666767120361,-0.02277350425720215,-0.035315632820129395,-0.7639494919758044,-0.21575128654839343,0.4809149397915274,-0.37222762835952483,-0.02837729187256176,-1.1101542305720182,0.8891792370964738
1773063636363471872,3.24324893951416,0.35375693440437317,-1.2726699113845825,-0.38764488697052,-0.9010226130485535,0.02350289560854435,-0.4331347644329071,-0.09299582242965698,-0.0613752119243145,-0.029801607131958008,-0.7612059103119061,-0.22033605100135822,0.48464898680321417,-0.37031451057417886,-0.023505060459567125,-1.1226956907639347,0.8907717952339558
1773063636373528064,3.253304958343506,0.33068186044692993,-1.312438726425171,-0.47524577379226685,-0.906711757183075,0.01829235441982746,-0.4213537871837616,-0.0367390513420105,-0.05625621974468231,0.0013098418712615967,-0.7583767635916553,-0.22509677798401823,0.48852281698267674,-0.36815955514074494,-0.018293374276418802,-1.135780958569876,0.8922204624140839
1773063636383582976,3.263360023498535,-0.3674783408641815,-1.7753112316131592,-0.9457802772521973,-0.9129037857055664,0.01177027728408575,-0.4080050587654114,-0.051848411560058594,-0.05714990571141243,0.011505424976348877,-0.7559679775585118,-0.22970283595303193,0.4931876745958532,-0.3640259808266378,-0.011770549074515604,-1.1504974659149823,0.8899035180226499
1773063636393639168,3.273416042327881,0.43990951776504517,-2.0571107864379883,0.8091110587120056,-0.9202709794044495,0.009634293615818024,-0.3911629319190979,-0.0005053281784057617,-0.09160450100898743,-0.0778922438621521,-0.7512236625957525,-0.23444794945591255,0.4994523956246381,-0.3622767567732802,-0.00963444259053317,-1.1688817302139278,0.8923186814212593
1773063636403694080,3.28347110748291,0.625365674495697,-0.9075824022293091,-0.2505950629711151,-0.925258219242096,0.011992501094937325,-0.3791484832763672,-0.20084041357040405,0.21222013235092163,0.09657096862792969,-0.7466111484219069,-0.23738940289860042,0.5040555850961076,-0.36351908520018994,-0.011992788404747162,-1.1818909912070812,0.8981665991477916
1773063636413750016,3.2935268878936768,0.7997457981109619,-1.3453961610794067,-1.018576741218567,-0.9293710589408875,0.0017568811308592558,-0.3691428005695343,-0.40769559144973755,-0.11058256030082703,-0.1419045329093933,-0.7444070470695752,-0.24419283011486967,0.5057652212273076,-0.3611503845103076,-0.0017568819774293365,-1.192709211310157,0.9022046873255735
1773063636423804928,3.303581953048706,0.7558966279029846,-1.2895992994308472,-0.45945435762405396,-0.9342035055160522,-0.007875442504882812,-0.3566536605358124,-0.07783567905426025,-0.08840751647949219,0.037683963775634766,-0.7413325757686734,-0.25139108194312665,0.5084050476665629,-0.3588215298395093,0.00787552405216004,-1.2061009598600074,0.9069912806450474
1773063636433861120,3.3136379718780518,0.5942986607551575,-1.3360575437545776,-0.2895321547985077,-0.9388126134872437,-0.013409605249762535,-0.3441670835018158,0.0036167502403259277,-0.13365459442138672,0.07695519924163818,-0.7377053047560349,-0.25711635398407,0.5116714185062198,-0.3575953028771115,0.013410006711365144,-1.2194118342460332,0.912097268316843
1773063636443916032,3.323693037033081,0.46656307578086853,-1.4476323127746582,-0.472975492477417,-0.9434846639633179,-0.01876324601471424,-0.33088457584381104,-0.06921064853668213,-0.1562855839729309,0.030240684747695923,-0.7340970489638737,-0.2625320029592351,0.5153975693494484,-0.3557299384342239,0.018764347171563913,-1.2334937722902213,0.9157782675862475
1773063636453971456,3.3337483406066895,0.563024640083313,-1.422091007232666,-0.5640854239463806,-0.9480573534965515,-0.02537265606224537,-0.31708577275276184,-0.1426560878753662,-0.01268274337053299,-0.004783123731613159,-0.7306310476427467,-0.2682838386366635,0.519115493108636,-0.3531587408033654,0.025375379577216414,-1.2480335294591487,0.9187669172677378
1773063636464027392,3.343804359436035,0.9056165814399719,-1.3416835069656372,-0.5291489958763123,-0.9522361159324646,-0.0329536609351635,-0.3035794198513031,-0.1554298996925354,0.034998320043087006,-0.07406032085418701,-0.72696810793772,-0.274885484581787,0.5221573085779618,-0.35115116932488233,0.03295962951558228,-1.2621760517737806,0.9240551291713374
1773063636474082304,3.3538591861724854,0.9928125143051147,-1.2993305921554565,-0.5269227027893066,-0.9559730291366577,-0.040821392089128494,-0.2906014919281006,-0.11269152164459229,-0.010753307491540909,-0.061449289321899414,-0.7230637421070891,-0.28210038514555136,0.5245175220631146,-0.3499708914206834,0.04083273661730687,-1.275687575784042,0.931816834507773
1773063636484138240,3.363915205001831,0.8496454954147339,-1.321851372718811,-0.6192542314529419,-0.9594467282295227,-0.04898986220359802,-0.2776004374027252,-0.0879165530204773,-0.08962097764015198,0.004925847053527832,-0.7192810933367119,-0.2892773354947255,0.526800152162631,-0.34847519802790516,0.049009478804416584,-1.289153459434912,0.939147429944654
1773063636494193408,3.3739702701568604,0.6866382360458374,-1.3513298034667969,-0.6553192138671875,-0.9627477526664734,-0.057282183319330215,-0.26426422595977783,-0.07233214378356934,-0.17179803550243378,0.03349030017852783,-0.7157204132619402,-0.29608675893502967,0.5293397058430408,-0.3462318117345584,0.057313556705515224,-1.3029047292374416,0.9448378422197907
1773063636504249344,3.384026288986206,0.5456414222717285,-1.3633604049682617,-0.6781933903694153,-0.9658619165420532,-0.06529929488897324,-0.25069281458854675,-0.04986989498138428,-0.15905068814754486,0.03702402114868164,-0.7123179201255698,-0.30241439755810623,0.5321645606340701,-0.34343802824329644,0.06534578983826667,-1.316846556434985,0.9490756006281417
