time,seconds_elapsed,rotationRateX,rotationRateY,rotationRateZ,gravityX,gravityY,gravityZ,accelerationX,accelerationY,accelerationZ,quaternionW,quaternionX,quaternionY,quaternionZ,pitch,roll,yaw
1773062425580222976,0.04501008987426758,-0.08264181017875671,-0.059743043035268784,-0.001868093153461814,0.08985070884227753,0.4429456293582916,-0.8920347690582275,-0.008841797709465027,0.005510181188583374,0.01772141456604004,0.2345938056846995,-0.09974663587238539,-0.2098409592912502,0.9439189963580258,-0.4588815294997789,0.10038698761182872,2.6778644590425404
1773062425590259968,0.055047035217285156,0.025010880082845688,-0.034787893295288086,0.04318167269229889,0.0895409882068634,0.44317111372947693,-0.8919538855552673,0.013043858110904694,0.007695585489273071,-0.002882540225982666,0.2344384280419505,-0.09958875367694268,-0.21001221766522063,0.9439361728123354,-0.4591330635926285,0.10005226093293726,2.678117959245199
1773062425600298240,0.06508517265319824,0.07640296220779419,-0.006158909760415554,0.03483053296804428,0.08951281011104584,0.4426474869251251,-0.8922167420387268,0.015208259224891663,0.004297703504562378,-0.024760186672210693,0.2342457224261723,-0.09945644950574747,-0.20976189907428183,0.9440537181266038,-0.4585490326867287,0.0999917161625288,2.6785158617937674
1773062425610335232,0.07512211799621582,0.09839197993278503,0.008566507138311863,0.030261080712080002,0.08968610316514969,0.44180798530578613,-0.8926153182983398,0.012242607772350311,0.009058713912963867,-0.027703285217285156,0.23414172814024573,-0.09940000101046136,-0.2093131202477531,0.9441849759147883,-0.45761301772161017,0.10013957059865458,2.678773434143489
1773062425620373248,0.0851602554321289,0.1052597314119339,0.012030480429530144,0.034264080226421356,0.0899617001414299,0.4408643841743469,-0.8930540084838867,-0.002956092357635498,0.0069505274295806885,-0.012432992458343506,0.23404008293242218,-0.09938075622575923,-0.20879763586745434,0.9443263510134839,-0.45656146429369326,0.10039621634985127,2.6790504468824725
1773062425630410240,0.09519720077514648,0.09699643403291702,0.015685003250837326,0.01975397951900959,0.09021762013435364,0.43992090225219727,-0.8934933543205261,0.0001601874828338623,0.005361080169677734,-0.007309257984161377,0.23397751374448694,-0.09936045608489394,-0.20828062882752377,0.9444581592545678,-0.4555105944321784,0.10063072321175516,2.679239309582903
1773062425640448000,0.10523509979248047,0.09021922200918198,0.002911151619628072,0.008960985578596592,0.09036599099636078,0.43906909227371216,-0.893897294998169,-0.009051911532878876,0.005037963390350342,0.0016548633575439453,0.2339624950567717,-0.0993098140399458,-0.20781945277426028,0.9445688283903121,-0.4545622943572153,0.10074986838071794,2.6793013132075156
1773062425650484992,0.11527204513549805,0.10471560806035995,-0.021940136328339577,0.016645802184939384,0.09034114331007004,0.43819987773895264,-0.8943261504173279,-0.017510943114757538,0.004823774099349976,0.010323524475097656,0.23396217467524344,-0.09917294419786252,-0.20736836483242646,0.9446823019957572,-0.45359506693590496,0.10067437000211304,2.6792890934886233
1773062425660523264,0.12531018257141113,0.0972992405295372,-0.033894799649715424,0.021217651665210724,0.09016440063714981,0.4372439384460449,-0.894811749458313,-0.0012666955590248108,0.011379718780517578,0.01759922504425049,0.23387854766988778,-0.09892917198431311,-0.2068988486809754,0.9448315382027059,-0.4525318527627299,0.10042457245783773,2.679415587612977
1773062425670561024,0.13534808158874512,0.07350681722164154,-0.04596557840704918,-0.003273043781518936,0.08985113352537155,0.4364676773548126,-0.8952221870422363,0.011314623057842255,0.015589207410812378,0.016056537628173828,0.2338451394568213,-0.09865361423804572,-0.20653418810131136,0.9449484896282534,-0.45166888968647223,0.10003241507033427,2.679404060304341
1773062425680598016,0.1453850269317627,0.05258849263191223,-0.049377620220184326,-0.005304769147187471,0.0894097164273262,0.43590033054351807,-0.8955427408218384,0.0022803395986557007,0.007169127464294434,0.01581251621246338,0.23385261463436208,-0.09835251899694951,-0.20628960982660455,0.9450314406623131,-0.4510383978607281,0.09950882695778981,2.679276457495889
1773062425690636032,0.15542316436767578,0.011034833267331123,-0.04733257740736008,0.007886665873229504,0.0889815092086792,0.43562066555023193,-0.895721435546875,-0.007255434989929199,0.0006433725357055664,0.0123291015625,0.23381163284361023,-0.098088566288357,-0.20619869483961947,0.9450888135458476,-0.4507276790844952,0.09901573741076752,2.6792568640073813
1773062425700673024,0.16546010971069336,-0.007419806905090809,-0.04716160148382187,0.006892507895827293,0.0885949358344078,0.43562108278274536,-0.8957595825195312,-0.0071740299463272095,-0.007505238056182861,0.00876617431640625,0.23371852995634362,-0.0978740928572244,-0.2062544153927077,0.9451218674415771,-0.45072816710182817,0.09858419387170986,2.6793596486891107
1773062425710711296,0.17549824714660645,-0.0064107803627848625,-0.03281502425670624,0.011796852573752403,0.08827707171440125,0.43567022681236267,-0.895767092704773,-0.011037088930606842,-0.01582464575767517,0.005752444267272949,0.23363972528985275,-0.09770416743978029,-0.20632586776044368,0.9451434618745991,-0.450782765311427,0.09823195004811752,2.6794494370516704
1773062425720748288,0.18553519248962402,-0.01457603182643652,-0.021613765507936478,0.018187906593084335,0.08810979127883911,0.4357413947582245,-0.8957489132881165,-0.013082325458526611,-0.016216248273849487,0.003140270709991455,0.2335351671777761,-0.09760742339183605,-0.20639363731738405,0.9451644614453975,-0.4508618179954369,0.0980489699605748,2.679630299028173
1773062425730786048,0.195573091506958,-0.012227611616253853,-0.014883291907608509,0.020734023302793503,0.08803484588861465,0.43586087226867676,-0.8956981301307678,-0.013587221503257751,-0.012978821992874146,0.007926583290100098,0.23340663946734042,-0.09755869488813357,-0.20647815773108283,0.9451827397640499,-0.45099456932205456,0.09797161894122457,2.67988466608942
1773062425740823040,0.20561003684997559,0.006632894277572632,-0.015060125850141048,0.03190012276172638,0.08803223818540573,0.43587344884872437,-0.8956922888755798,-0.012867443263530731,-0.009802281856536865,0.010743558406829834,0.23326717739501523,-0.09752870678756859,-0.20649942086025422,0.9452156205931485,-0.45100853901231647,0.09796937762338741,2.680179207693369
1773062425750861056,0.21564817428588867,0.007907572202384472,-0.02671065554022789,0.03695746511220932,0.08800778537988663,0.4357636868953705,-0.8957480788230896,-0.008555278182029724,-0.011050552129745483,0.0060538649559021,0.23307926157540176,-0.09745977934681803,-0.20646439387495483,0.945276742327842,-0.4508865851691695,0.09793627621709573,2.680570178567483
1773062425760898048,0.22568511962890625,0.007628206629306078,-0.027662470936775208,0.02024186961352825,0.08791147172451019,0.43567022681236267,-0.8958030343055725,-0.0008600801229476929,-0.008332580327987671,0.0012107491493225098,0.23291326768602874,-0.09736185713617437,-0.20644408818310103,0.9453322286092459,-0.4507827619545143,0.09782381289986801,2.6808973788587904
1773062425770936320,0.23572325706481934,0.008428087458014488,-0.036103226244449615,0.016092531383037567,0.08771193027496338,0.4355780780315399,-0.8958674073219299,-0.001301407814025879,-0.005707472562789917,0.005761146545410156,0.23280391653259028,-0.09722464724719393,-0.20643080493522883,0.9453761626122054,-0.450680382407947,0.09759621447060474,2.681079489627912
1773062425780973312,0.24576020240783691,-0.020486118271946907,-0.04285673424601555,0.010043960064649582,0.08743174374103546,0.4355754554271698,-0.8958960771560669,-0.006666973233222961,-0.0095653235912323,0.008521199226379395,0.2326891822656236,-0.09705843099272608,-0.2064742978283237,0.9454120054081577,-0.45067746298308087,0.0972833256356716,2.6812539195021405
1773062425791011072,0.2557981014251709,-0.03655305877327919,-0.03438761830329895,-0.00606150645762682,0.08709459006786346,0.43583083152770996,-0.8958047032356262,-0.004330918192863464,-0.010782003402709961,0.01106959581375122,0.23262000682719383,-0.0969100921949126,-0.2066545229602533,0.9454048392314219,-0.4509611799207908,0.09692035384331783,2.6813194517379673
1773062425801048064,0.2658350467681885,-0.03415727987885475,-0.031413402408361435,-0.01842043735086918,0.08674726635217667,0.436165988445282,-0.8956752419471741,-0.008973225951194763,-0.018151462078094482,0.018950998783111572,0.2326233577652388,-0.09678378225994326,-0.20687017521602216,0.9453698277161511,-0.4513335971105461,0.09655011281396478,2.6812294375779397
1773062425811086080,0.27587318420410156,-0.020397081971168518,-0.023507539182901382,-0.021701719611883163,0.08639289438724518,0.4364384412765503,-0.8955767750740051,-0.014279849827289581,-0.021506190299987793,0.012199699878692627,0.2326761943840106,-0.09665590806554518,-0.20704890369468623,0.9453306990039063,-0.45163638300234166,0.0961686349108085,2.681032327637735
1773062425821123072,0.28591012954711914,-0.004315848927944899,-0.013773152604699135,-0.0225233044475317,0.08614304661750793,0.4365607500076294,-0.895541250705719,-0.010337390005588531,-0.018851369619369507,0.002642691135406494,0.23275915806712236,-0.09656587264969002,-0.20713380044917276,0.9453009505579029,-0.45177232978260545,0.09589600119686975,2.6807963796676164
1773062425831161088,0.2959480285644531,0.011770620942115784,-0.014079416170716286,-0.019417524337768555,0.08591172844171524,0.4365301728248596,-0.8955783843994141,-0.005986198782920837,-0.01567751169204712,0.0001163482666015625,0.23284572516595523,-0.0964642925901008,-0.2071363386073074,0.9452894347040216,-0.4517383642696554,0.09563612945292657,2.6805564706893446
1773062425841198080,0.3059852123260498,0.013864398002624512,-0.010520635172724724,-0.012656825594604015,0.08574150502681732,0.43639400601387024,-0.8956610560417175,0.0009589269757270813,-0.01281002163887024,-0.0006402134895324707,0.23292064548945865,-0.09637586943164393,-0.207077694572542,0.9452928804491373,-0.4515870054194287,0.0954390279395028,2.680355752544285
1773062425851236096,0.3160231113433838,0.011881363578140736,-0.015174908563494682,-0.004926600493490696,0.08559663593769073,0.43629011511802673,-0.8957254886627197,0.001302175223827362,-0.007304519414901733,-0.0024068355560302734,0.232956956266217,-0.09629633285301037,-0.20703689747205073,0.9453008488023926,-0.45147154490235014,0.0952719388436514,2.6802428780045653
1773062425861273088,0.32606005668640137,0.01172476913779974,-0.018243402242660522,-0.0009667463600635529,0.0854257196187973,0.4361582100391388,-0.8958060145378113,-0.0016397088766098022,-0.001282721757888794,0.004006087779998779,0.23296419380629751,-0.09619334824298328,-0.20698749267099742,0.945320391541969,-0.4513249583532827,0.09507434480177479,2.6801852515924147
1773062425871310592,0.33609747886657715,0.007148482836782932,-0.031867865473032,-0.0010626199655234814,0.08518829196691513,0.43604937195777893,-0.8958816528320312,0.0018783584237098694,-0.004286646842956543,0.00774383544921875,0.23294367927349524,-0.09605415726741842,-0.2069608189659517,0.9453454596190748,-0.4512040019665231,0.09480373315335973,2.680170208806286
1773062425881347328,0.3461344242095947,0.004100761376321316,-0.03831591084599495,0.00581978727132082,0.08487953990697861,0.43599218130111694,-0.8959387540817261,-0.0015055090188980103,-0.003970116376876831,0.00992196798324585,0.23289840755403207,-0.09588105906829808,-0.20697208699957184,0.9453716867495318,-0.45114048112856414,0.09445618512143873,2.6801902708259133
1773062425891385344,0.3561723232269287,0.008854459039866924,-0.042303331196308136,0.00955021008849144,0.08450330793857574,0.4358901381492615,-0.8960239887237549,-0.004516735672950745,0.0031662583351135254,0.006207704544067383,0.23282273442395005,-0.09566105280588681,-0.2069709426583302,0.9454129108355417,-0.4510270830676018,0.09403108254479818,2.680258122527769
1773062425901422592,0.3662095069885254,-0.00130203808657825,-0.03865373879671097,0.010319330729544163,0.08416107296943665,0.435790091753006,-0.8961048722267151,0.0037753358483314514,7.721781730651855e-05,-0.002866685390472412,0.23274505910584695,-0.09545799981862509,-0.2069670137373735,0.9454533747687964,-0.4509159086338261,0.09364409036952377,2.6803384304912297
1773062425911460352,0.3762474060058594,-0.03181338682770729,-0.038665320724248886,0.007561494596302509,0.0838145911693573,0.4359166920185089,-0.8960757255554199,-0.0012798085808753967,-0.002109348773956299,0.0031161904335021973,0.23265959777114717,-0.0952831681321122,-0.20708269113486058,0.945466773099267,-0.4510565901152982,0.09326380732332527,2.680435021763495
1773062425921497344,0.38628435134887695,-0.038582876324653625,-0.03139915317296982,0.015295048244297504,0.08355672657489777,0.43621739745140076,-0.8959534764289856,-0.004882417619228363,-0.0014792382717132568,0.005038559436798096,0.23255432858116118,-0.09517311274469828,-0.20728079478542916,0.9454603871377216,-0.45139073863306983,0.09299113926509678,2.6805955738462792
1773062425931535360,0.39632248878479004,-0.040835022926330566,-0.026211313903331757,0.023257898166775703,0.08340515196323395,0.436535120010376,-0.8958128690719604,-0.0021368563175201416,0.0028722286224365234,0.0018767118453979492,0.2324128830558604,-0.09511087793186325,-0.2074788745471356,0.9454580042179082,-0.4517438448499492,0.09283791263458308,2.6808585850708475
1773062425941572352,0.4063594341278076,-0.03555823490023613,-0.022952936589717865,0.022187573835253716,0.08326516300439835,0.43686994910240173,-0.8956626653671265,-0.00010477006435394287,-0.0030778348445892334,0.0011619329452514648,0.23225697667848233,-0.09505365230911673,-0.20768600067422735,0.9454566008011387,-0.4521160481245277,0.09269843312858494,2.6811549782915316
1773062425951610368,0.4163973331451416,-0.037732042372226715,-0.025804782286286354,0.024940084666013718,0.08315260708332062,0.43718448281288147,-0.8955196142196655,-9.901821613311768e-05,-0.00710025429725647,0.008022665977478027,0.23209787419461497,-0.09500660184748021,-0.20787964101499845,0.9454577482928307,-0.4524657591622284,0.0925885505206512,2.681464612614939
1773062425961648384,0.4264354705810547,-0.04193264618515968,-0.028225062415003777,0.035873960703611374,0.08305424451828003,0.4375241696834564,-0.8953628540039062,-0.004425719380378723,-0.005196899175643921,0.00988006591796875,0.23190894738761322,-0.09496357710456886,-0.2080877138130572,0.9454627557784052,-0.45284347727024965,0.09249574594793077,2.681841100026486
1773062425971685376,0.43647241592407227,-0.05235084146261215,-0.03593757748603821,0.03665080666542053,0.08290336281061172,0.43793535232543945,-0.8951758146286011,-0.0021996423602104187,-0.003227710723876953,0.010105013847351074,0.2316763964450033,-0.09489458576294786,-0.20834376010887568,0.9454703246810005,-0.4533008015553868,0.09234785297492502,2.682296966963268
1773062425981723392,0.44651031494140625,-0.03367915377020836,-0.028022928163409233,0.028188608586788177,0.08278800547122955,0.43830031156539917,-0.8950077891349792,-0.0006957203149795532,-0.00572890043258667,0.009845495223999023,0.23146412987634157,-0.0948413068697409,-0.20856945749801128,0.9454778028835213,-0.4537067894222999,0.09223728685103201,2.682718328895924
1773062425991760384,0.45654749870300293,-0.0019590845331549644,-0.026862189173698425,0.024590011686086655,0.08266466110944748,0.43843188881874084,-0.8949548006057739,0.0015943646430969238,-0.002228856086730957,0.005886197090148926,0.2313041818291102,-0.09476257211083292,-0.2086687845045886,0.9455029824278192,-0.45385317250949064,0.0921060710613929,2.6830266523749913
1773062426001798400,0.4665853977203369,0.049696117639541626,-0.013946391642093658,0.014747767709195614,0.08255875110626221,0.4382045269012451,-0.8950759172439575,0.007956370711326599,-0.0014979839324951172,-0.0007370710372924805,0.2311906734947069,-0.09465228065548567,-0.20857371208819,0.9455627849686817,-0.4536002348130074,0.09197635237067857,2.6832401299111663
1773062426011835392,0.4766223430633545,0.09369447082281113,-0.005247175693511963,-0.00907633826136589,0.08249624818563461,0.43754956126213074,-0.8954020142555237,0.006126798689365387,-0.004199951887130737,-0.008833825588226318,0.2312048384223398,-0.09453181283195786,-0.20823721728635383,0.9456454423464536,-0.45287172773044587,0.09187382852670269,2.683193143978832
1773062426021873408,0.4866604804992676,0.11823096871376038,0.0030770665034651756,-0.026932034641504288,0.08241358399391174,0.4366035461425781,-0.8958712816238403,-0.004670046269893646,-0.006229400634765625,-0.008929133415222168,0.23133678852829878,-0.09438618689232285,-0.207739287389871,0.945737234165274,-0.4518199181221525,0.0917344715171039,2.6828916359807145
1773062426031910400,0.49669742584228516,0.1281163990497589,0.015827350318431854,-0.032170604914426804,0.0823870599269867,0.43552106618881226,-0.8964004516601562,-0.009495817124843597,-0.009739816188812256,0.00054168701171875,0.23155230121072,-0.09426786128626523,-0.2071553790103791,0.9458243232491956,-0.4506170506533991,0.09165128366664176,2.6824269134061045
1773062426041948416,0.5067353248596191,0.12399809062480927,0.012835021130740643,-0.02498113550245762,0.08238056302070618,0.4343923330307007,-0.8969485759735107,-0.007261544466018677,-0.0022176504135131836,0.0010440349578857422,0.23176349184775266,-0.09415200369863827,-0.20654567679947444,0.9459175198293208,-0.4493635349525254,0.09158840444782955,2.6819763144376894
1773062426051985408,0.5167725086212158,0.10256501287221909,0.01483385730534792,-0.030598673969507217,0.08238674700260162,0.4333776831626892,-0.8974387049674988,0.0009720325469970703,0.004244387149810791,0.00804966688156128,0.23197342982843513,-0.09405817472490936,-0.20599446325043938,0.94599554588889,-0.4482373478590665,0.09154549257540225,2.681531621754296
1773062426062023424,0.5268104076385498,0.07103105634450912,0.008892078883945942,-0.023857681080698967,0.08238809555768967,0.4326291084289551,-0.8977996706962585,-0.0021116137504577637,-0.002651721239089966,0.01245427131652832,0.23216752359925225,-0.09399577420306733,-0.20558443435265567,0.9460433421234193,-0.4474068756214632,0.09151038061224046,2.681119955827652
1773062426072060416,0.5368473529815674,0.059421319514513016,0.003839662531390786,-0.02317817509174347,0.08234678208827972,0.43210265040397644,-0.8980569243431091,-0.005427218973636627,-0.00514647364616394,0.013901710510253906,0.2323106554789581,-0.0939320586761106,-0.2053004916957273,0.946076180336166,-0.4468230253887398,0.09143869244633666,2.6808061975040385
1773062426082098432,0.5468854904174805,0.06060509383678436,0.008585415780544281,-0.01872563548386097,0.08232948184013367,0.4315909147262573,-0.8983045816421509,3.7454068660736084e-05,-0.009303927421569824,0.009083390235900879,0.23245392759098873,-0.09388242747492209,-0.20502143239595705,0.9461065196067097,-0.4462556521634112,0.09139452176015776,2.680498155754725
1773062426092135424,0.556922435760498,0.057463403791189194,0.007085923105478287,-0.012368537485599518,0.08233707398176193,0.43107232451438904,-0.8985528945922852,0.0007012560963630676,-0.005565732717514038,0.005822181701660156,0.23255930147340534,-0.09383609178052589,-0.2047397199707478,0.9461462242796485,-0.4456808666034614,0.09137779381032535,2.680276112975789
1773062426102173440,0.566960334777832,0.049090426415205,0.002703957725316286,-0.00862253550440073,0.08231821656227112,0.43061190843582153,-0.8987753391265869,0.003298848867416382,-0.0004513859748840332,0.003771066665649414,0.23263351714373048,-0.09377789772113387,-0.2044945876950608,0.9461867484641168,-0.4451706475972027,0.09133449449636986,2.680113682262498
1773062426112210176,0.5769972801208496,0.06229837238788605,0.002520731883123517,-0.007549281232059002,0.08229455351829529,0.4301181137561798,-0.8990139365196228,0.001399889588356018,-0.0009951591491699219,0.004696309566497803,0.2327036203554403,-0.0937116866687002,-0.2042330789764341,0.9462326204451034,-0.44462359264070944,0.09128428759983775,2.67995884727869
1773062426122248448,0.5870354175567627,0.0769106075167656,-0.01275595836341381,0.0061172619462013245,0.08225890249013901,0.4294712245464325,-0.8993263840675354,0.0023358166217803955,0.0018947422504425049,-0.0013083815574645996,0.23273575154127965,-0.09360975872938607,-0.20389707359508238,0.9463072264911493,-0.4439071700720463,0.09121343556135551,2.6798809346128927
1773062426132285440,0.5970723628997803,0.06595885008573532,-0.02187289111316204,0.03319694846868515,0.08218223601579666,0.42878633737564087,-0.8996601700782776,0.009553588926792145,0.01194852590560913,0.004411756992340088,0.23265568529105107,-0.09345779844602942,-0.20355726734571128,0.9464151308059398,-0.44314891188189715,0.09109527174922576,2.6800303779135413
1773062426142323456,0.6071105003356934,0.03539454564452171,-0.027268189936876297,0.029458139091730118,0.0821002870798111,0.42831701040267944,-0.8998911380767822,0.0153118297457695,0.010800421237945557,0.011188745498657227,0.23249352745347346,-0.09331595500103636,-0.2033385341298932,0.9465158964404399,-0.4426294851974596,0.09098169895346493,2.680352311893391
1773062426152361472,0.6171483993530273,-0.0083342045545578,-0.03841085359454155,0.025232501327991486,0.08194366842508316,0.42816340923309326,-0.899978518486023,0.007549121975898743,0.0037518739700317383,0.02177417278289795,0.23233999127715538,-0.09318286278818623,-0.2032921291504916,0.9465766980619325,-0.44245948285515757,0.09080032837345085,2.680639046808723
1773062426162398464,0.6271853446960449,-0.026169925928115845,-0.04053019732236862,0.01834157109260559,0.08166777342557907,0.42830201983451843,-0.899937629699707,-0.006869189441204071,-0.0014221370220184326,0.02812671661376953,0.2321813982664882,-0.09302983176090854,-0.20341247019590128,0.9466047374019633,-0.44261287200729094,0.09050037332171545,2.6809084513336967
1773062426172436480,0.637223482131958,-0.04031366482377052,-0.05702941119670868,0.01590517722070217,0.08130219578742981,0.4285814166069031,-0.8998377323150635,-0.01245453953742981,-0.004615992307662964,0.029049158096313477,0.23203623043475446,-0.09285436472840548,-0.20361535754608404,0.9466139531873788,-0.44292211433600936,0.09010739890238466,2.6811283408253073
1773062426182473472,0.6472604274749756,-0.05066723749041557,-0.05867897346615791,0.023868296295404434,0.08084794133901596,0.42899289727211,-0.8996825814247131,-0.005194865167140961,-0.000648200511932373,0.027688562870025635,0.2318713774836877,-0.09264859860195922,-0.20389938800357976,0.9466133784356769,-0.4433775718361584,0.08962201819938657,2.6813685997902996
1773062426192511232,0.6572983264923096,-0.04491507634520531,-0.05681289732456207,0.023559369146823883,0.08041583746671677,0.42943915724754333,-0.8995083570480347,0.00761210173368454,0.010136038064956665,0.03221404552459717,0.2316792726070096,-0.09245283592100995,-0.2042015759054142,0.9466144786610535,-0.44387165270102896,0.08916273383817186,2.681671556102969
1773062426202548480,0.6673355102539062,-0.012591488659381866,-0.051351819187402725,0.02450585551559925,0.08001461625099182,0.4296818971633911,-0.8994282484054565,0.010637834668159485,0.015767931938171387,0.03130996227264404,0.23149780333161177,-0.09224631297355729,-0.2043930039196158,0.9466377331804052,-0.4441404666916188,0.08872807045521763,2.6819589413773244
1773062426212586496,0.6773734092712402,0.03597182780504227,-0.04260799661278725,0.028353458270430565,0.07969950884580612,0.4295784831047058,-0.899505615234375,0.010373122990131378,0.01793128252029419,0.0307769775390625,0.23132440282158037,-0.09203633835070753,-0.20439302880015914,0.946700511423534,-0.4440259317159126,0.08837290146814032,2.682249515419496
1773062426222623232,0.6874103546142578,0.09662585705518723,-0.02823837846517563,0.01442326232790947,0.0794752910733223,0.4289736747741699,-0.8998140096664429,0.01447305828332901,0.022488147020339966,0.02086198329925537,0.2312072665273033,-0.09181417510004597,-0.2041155052073518,0.9468106094064375,-0.4433562804413787,0.08809552494624409,2.682442934236486
1773062426232661504,0.6974484920501709,0.14926078915596008,-0.032515015453100204,-0.0035305714700371027,0.07923965901136398,0.4278615713119507,-0.900364100933075,0.009474940598011017,0.022181153297424316,0.012836694717407227,0.2312074139917192,-0.09154098289606988,-0.20356370792886092,0.946955818504849,-0.44212553545316086,0.08778228203925312,2.682385808636915
1773062426242698496,0.7074854373931885,0.20724047720432281,-0.031263332813978195,-0.010088605806231499,0.07891640067100525,0.4262429177761078,-0.901159942150116,0.004945904016494751,0.012889772653579712,0.013464629650115967,0.23129014485687097,-0.09117123026517462,-0.2027507042979907,0.9471456977260426,-0.4403354374445203,0.08734918877344423,2.6821336721441
1773062426252736256,0.7175233364105225,0.2424919754266739,-0.03130074962973595,-0.01902817189693451,0.0785747766494751,0.4242018461227417,-0.9021522998809814,-0.0024029016494750977,0.0037461519241333008,0.016028642654418945,0.23143933457622912,-0.09074797136274187,-0.20171427956008048,0.9473711060443392,-0.4380803341855923,0.08687777746458944,2.6817374707822452
1773062426262773248,0.72756028175354,0.25800594687461853,-0.04036055505275726,-0.03499116003513336,0.07813815772533417,0.4219440519809723,-0.9032483696937561,-0.005597881972789764,0.0022655129432678223,0.01997816562652588,0.23164138366091117,-0.09025846693288715,-0.20057222705517933,0.9476109096244639,-0.43558853529970837,0.08629310915310573,2.6812084627621555
1773062426272811520,0.7375984191894531,0.27081233263015747,-0.03680510073900223,-0.053927965462207794,0.07756603509187698,0.41957634687423706,-0.9043998718261719,0.0004979297518730164,-0.0022179782390594482,0.01995474100112915,0.23193064087056925,-0.08970444256468871,-0.19938195772340067,0.9478438531366562,-0.4329785440980958,0.08555583701912803,2.6804652798536326
1773062426282848256,0.7476353645324707,0.2789243161678314,-0.019101472571492195,-0.07507346570491791,0.077044278383255,0.4171220064163208,-0.9055790901184082,0.003964625298976898,-0.006889462471008301,0.010010242462158203,0.2323395390403402,-0.08918869202575781,-0.19813087498960547,0.9480548686522023,-0.4302763734596531,0.08487297775747532,2.6794836943699436
1773062426292886528,0.7576735019683838,0.28856444358825684,0.0009896807605400681,-0.07426413148641586,0.07667030394077301,0.4146045446395874,-0.9067660570144653,0.006459571421146393,-0.01099434494972229,-0.0015285611152648926,0.23280097249069864,-0.08874886119698627,-0.1968263184840488,0.9482545347603185,-0.42750818987282757,0.08435292386950649,2.678426747467305
1773062426302923520,0.7677104473114014,0.2862456440925598,0.021026238799095154,-0.07536055147647858,0.07648159563541412,0.4120413661003113,-0.9079496264457703,0.015452608466148376,-0.01346653699874878,-0.00029927492141723633,0.23329445492301745,-0.08840148149051491,-0.19547474483194022,0.9484453215568859,-0.42469332034564145,0.08403711623880693,2.677346049299906
1773062426312961280,0.7777483463287354,0.2827419936656952,0.021690964698791504,-0.06889919191598892,0.07639597356319427,0.4094794690608978,-0.9091150760650635,0.013646148145198822,-0.018564552068710327,0.008953332901000977,0.23379252087441274,-0.08810613969011988,-0.1941127958637015,0.948629780917512,-0.42188343341157786,0.08383637183305527,2.676279476980685
1773062426322999552,0.7877864837646484,0.2591104209423065,0.012336344458162785,-0.07032318413257599,0.07630053907632828,0.4070306420326233,-0.9102221131324768,0.01311597228050232,-0.01721435785293579,0.014073431491851807,0.23425953317935427,-0.08781452601940133,-0.1928148265644596,0.9488063394925017,-0.41920086250689054,0.08363076169900924,2.6752765742791804
1773062426333036544,0.797823429107666,0.21606606245040894,0.00204202882014215,-0.07352443784475327,0.07607811689376831,0.40490007400512695,-0.9111904501914978,0.013902954757213593,-0.018425464630126953,0.025310933589935303,0.2347103380179597,-0.08749968363319541,-0.1916991742194852,0.9489501277126194,-0.4168695411107367,0.08329989400110731,2.6742796882618056
1773062426343074304,0.807861328125,0.18617793917655945,-0.007967461831867695,-0.07017631083726883,0.07577528059482574,0.40311872959136963,-0.9120051264762878,0.023650988936424255,-0.01600325107574463,0.03679156303405762,0.23513513387540863,-0.08718733124824016,-0.1907768157877287,0.9490595742017056,-0.4149222039479587,0.08289605519616161,2.673320021230751
1773062426353111296,0.8178982734680176,0.16692546010017395,-0.018151521682739258,-0.08303764462471008,0.07535006105899811,0.40156012773513794,-0.9127277135848999,0.028409697115421295,-0.01200324296951294,0.0373615026473999,0.23556002509115842,-0.08684435061387452,-0.1899847617813546,0.9491445718217654,-0.41321971621943804,0.08236802339708547,2.672333831099583
1773062426363149312,0.8279364109039307,0.14484119415283203,-0.03387855738401413,-0.10051943361759186,0.0747445747256279,0.4002227783203125,-0.9133646488189697,0.036995530128479004,-0.0112152099609375,0.03606057167053223,0.2360383155306726,-0.08645239546507087,-0.1893242126388518,0.9491935334471645,-0.4117599453181679,0.08165237057431018,2.6711962798419995
1773062426373186304,0.8379733562469482,0.13049712777137756,-0.03442476689815521,-0.1108759418129921,0.07398217916488647,0.3990332782268524,-0.9139469861984253,0.053413450717926025,-0.006973952054977417,0.03893172740936279,0.23656795821824422,-0.08601255385850713,-0.1887547257781346,0.949215027174711,-0.4104623027074095,0.08077188185535565,2.669917145975699
1773062426383224576,0.8480114936828613,0.13319650292396545,-0.045520298182964325,-0.11258967965841293,0.07315462827682495,0.3979151248931885,-0.9145009517669678,0.06434231251478195,-0.0046961307525634766,0.04734396934509277,0.23713059091285493,-0.08555634930176968,-0.18822762696195916,0.9492205391917765,-0.4092431755650249,0.07982407034156029,2.6685555060205126
1773062426393261312,0.8580484390258789,0.1471043974161148,-0.055289436131715775,-0.10795325040817261,0.07223059237003326,0.3967071771621704,-0.9150989651679993,0.06921836733818054,-0.004418998956680298,0.04728591442108154,0.23766421695973503,-0.08503351191527181,-0.18766940827506234,0.9492445670908389,-0.40792688787443565,0.07876868665262332,2.6672358137976224
1773062426403299328,0.8680863380432129,0.14865754544734955,-0.05822370573878288,-0.1009824275970459,0.07132019102573395,0.3954174816608429,-0.9157283902168274,0.06666504591703415,-0.0012066662311553955,0.05487328767776489,0.23816851765274108,-0.08450003025732615,-0.18707100674780522,0.9492839199182111,-0.4065223416031225,0.07772666051973466,2.66598286409025
1773062426413336320,0.8781232833862305,0.14498065412044525,-0.08909786492586136,-0.08117076754570007,0.07026293128728867,0.3941572904586792,-0.916353166103363,0.057102181017398834,-0.0010451078414916992,0.06567567586898804,0.23860512430522388,-0.08388395164492096,-0.18651244695130012,0.9493388288719343,-0.40515073559043707,0.07652695446547478,2.664842570330696
1773062426423374336,0.8881614208221436,0.1776302009820938,-0.08548049628734589,-0.05476180091500282,0.06917816400527954,0.3927404582500458,-0.9170438051223755,0.06183379888534546,0.005880147218704224,0.06178867816925049,0.2389106444910693,-0.08320657560057948,-0.18588912891565335,0.9494438640366344,-0.4036095988438867,0.0752934451074071,2.6639754021270505
1773062426433411328,0.8981983661651611,0.24034792184829712,-0.08668051660060883,-0.027504080906510353,0.0682186558842659,0.39085903763771057,-0.9179190993309021,0.060733363032341,0.013453096151351929,0.0638694167137146,0.23911047313345382,-0.08250637135123473,-0.18502203803694586,0.9496240458903821,-0.4015646766478022,0.0741824335769853,2.6633628004858725
1773062426443449600,0.9082365036010742,0.2953794598579407,-0.06972790509462357,-0.008474198170006275,0.06741810590028763,0.38839372992515564,-0.9190239906311035,0.05294322222471237,0.01600995659828186,0.06585931777954102,0.2392268686051629,-0.08178829680045378,-0.18384416067157608,0.9498854856336737,-0.3988878198762602,0.07322720591702471,2.6629658541047436
1773062426453486336,0.9182734489440918,0.32117587327957153,-0.07947706431150436,0.022689981386065483,0.06675559282302856,0.3855462968349457,-0.9202705025672913,0.04739540070295334,0.014966428279876709,0.07928234338760376,0.23926700403020973,-0.08107185129504793,-0.18246125969117408,0.9502034712547652,-0.39579980465224407,0.07241226659416555,2.662763683624092
1773062426463524352,0.9283113479614258,0.3520483076572418,-0.07390440255403519,0.0685163214802742,0.06621530652046204,0.3823968768119812,-0.9216225743293762,0.043815821409225464,0.0186193585395813,0.09970790147781372,0.23911891294890839,-0.08033958298014184,-0.1809261363530004,0.9505963672659615,-0.3923889432704778,0.07172320926157634,2.66298683080055
1773062426473562368,0.9383494853973389,0.39729586243629456,-0.07474063336849213,0.13271848857402802,0.06592616438865662,0.3788800537586212,-0.923094630241394,0.03537692874670029,0.022899121046066284,0.12328994274139404,0.23872791863705248,-0.07963747762481237,-0.17919422210566593,0.951081686737059,-0.3885858384676138,0.07129758850870424,2.663776085470886
1773062426483599360,0.9483864307403564,0.44179993867874146,-0.11429363489151001,0.23245839774608612,0.0657230094075203,0.3748410642147064,-0.9247565269470215,0.020321309566497803,0.02344384789466858,0.15331792831420898,0.23794435454436008,-0.0788363978387966,-0.17721894666788995,0.9517146225701048,-0.3842253475699524,0.0709513097113332,2.665410686134252
1773062426493637376,0.9584243297576904,0.4871235489845276,-0.13946649432182312,0.36077946424484253,0.06564553081989288,0.3703440725803375,-0.9265721440315247,0.016538307070732117,0.016542524099349976,0.19453173875808716,0.2366085149341957,-0.07793920826611031,-0.1750411542782465,0.9525243226430364,-0.3793794061631197,0.07072954220613988,2.6682307486416597
1773062426503674368,0.968461275100708,0.5730544328689575,-0.16157925128936768,0.5395146012306213,0.06590506434440613,0.3651447594165802,-0.9286150336265564,0.011014483869075775,0.008237779140472412,0.2396959662437439,0.23454633887808318,-0.07699226818796535,-0.17252445614991976,0.9535699227765236,-0.3737883102195965,0.07085255251462914,2.6726385451397348
1773062426513712384,0.9784994125366211,0.6806235313415527,-0.1787731647491455,0.8052445650100708,0.0667128935456276,0.35888245701789856,-0.9309955835342407,0.003675892949104309,0.0022930800914764404,0.2821918725967407,0.23145564113688702,-0.07600883415324317,-0.16948411690153334,0.9549482441129429,-0.3670703235826045,0.07153531262645754,2.679297879780135
1773062426523749376,0.9885363578796387,0.8451842665672302,-0.1995793730020523,1.1187100410461426,0.06838122010231018,0.35115066170692444,-0.9338186383247375,-0.0007695257663726807,-0.0032960474491119385,0.32230740785598755,0.2269385168511565,-0.07504048396799143,-0.16570942494382318,0.9567696975479386,-0.3587997450877856,0.07309704885996585,2.6890772583459457
1773062426533787392,0.9985744953155518,1.0774012804031372,-0.3949120044708252,1.2463356256484985,0.06988078355789185,0.34135866165161133,-0.9373317956924438,-0.02036602795124054,-0.004734545946121216,0.3427121043205261,0.22128935134036806,-0.07358330692251551,-0.1609956104905815,0.9590083452790047,-0.34836201798980754,0.07441520927728602,2.701135385212791
1773062426543824384,1.0086114406585693,1.2738254070281982,-0.4894651174545288,1.1836596727371216,0.06973222643136978,0.3293513059616089,-0.9416289925575256,-0.06884721666574478,-0.04207408428192139,0.37882381677627563,0.21544032005980832,-0.07107439423951487,-0.15535102498576803,0.9614571877579214,-0.3356164612028028,0.07391995281774393,2.713249071532027
1773062426553862400,1.0186493396759033,1.712486982345581,-0.5683410167694092,0.8554726839065552,0.06825326383113861,0.3149404525756836,-0.9466541409492493,-0.1519629955291748,-0.0638418197631836,0.42579537630081177,0.21049848854475225,-0.06785014104138554,-0.14855739004188626,0.963855590380334,-0.3203939063300161,0.07197492902313544,2.7231951079964354
1773062426563899392,1.028686285018921,2.7343387603759766,-0.32034799456596375,0.5764389038085938,0.06577280163764954,0.2921133041381836,-0.9541193842887878,-0.25989511609077454,0.023530006408691406,0.40271252393722534,0.20791023509577583,-0.06360558330607902,-0.1374577952534248,0.9663504175816352,-0.2964357715164084,0.06882672173141645,2.728034439387535
1773062426573937408,1.038724422454834,3.7548937797546387,-0.0012050301302224398,2.167917251586914,0.06884493678808212,0.2606222331523895,-0.9629830718040466,-0.3522616922855377,0.21619966626167297,0.18884366750717163,0.20200652917623005,-0.06083564370504841,-0.12168599230781374,0.9698891703659851,-0.2636666677002617,0.07136989665723147,2.7403758413398087
1773062426583974400,1.0487613677978516,4.829387187957764,0.1491333395242691,2.4522435665130615,0.0750575065612793,0.21693859994411469,-0.9732954502105713,0.0681767463684082,0.4979051351547241,0.3154890537261963,0.19169040075278646,-0.05814552328697482,-0.09985678251701344,0.9746294282730601,-0.21867728158993538,0.07696454646293377,2.7616426650278343
1773062426594012416,1.0587995052337646,5.560701370239258,0.08217774331569672,2.1593308448791504,0.08089577406644821,0.16384731233119965,-0.9831632375717163,-0.10152565687894821,0.41464388370513916,0.2550443410873413,0.18189094203619202,-0.05496351485731105,-0.07346698040481915,0.9790288124528701,-0.16458941862285187,0.08209618571922211,2.7809823882924527
1773062426604049408,1.0688364505767822,5.742514133453369,-0.08220987021923065,1.8318705558776855,0.08358533680438995,0.10584467649459839,-0.9908634424209595,-0.31495437026023865,0.2034357190132141,0.345981240272522,0.17363425035451438,-0.05048053692922608,-0.04494424445598135,0.9824881719842861,-0.10604331190341632,0.08415682194400413,2.796215863115429
1773062426614087424,1.0788743495941162,5.512211322784424,-0.1897091567516327,1.5380903482437134,0.08337823301553726,0.048129551112651825,-0.9953550100326538,-0.35030022263526917,0.08788728713989258,0.5097898244857788,0.16664346714709083,-0.045172211716430856,-0.016791705165980296,0.984838779452747,-0.04814815384378574,0.08357222331285018,2.808363807355293
1773062426624125440,1.0889124870300293,5.085716724395752,-0.03867224231362343,1.299106478691101,0.0825575739145279,-0.0060849604196846485,-0.9965677261352539,-0.4227827787399292,-0.03595300391316414,0.6445474624633789,0.16079461765779532,-0.04028567977851156,0.009654218728228643,0.9861181790370849,0.006084997782139589,0.08265317967252815,2.8180697559655954
1773062426634162432,1.0989494323730469,4.6543965339660645,-0.061320699751377106,1.226021409034729,0.08176838606595993,-0.055764179676771164,-0.9950900673866272,-0.4906429052352905,-0.14176084101200104,0.660190224647522,0.15554860714753702,-0.036087297239424304,0.033950871062809716,0.9865849320218772,0.055793119633428395,0.08198764355144111,2.8265507961684704
1773062426644200448,1.1089873313903809,4.250821113586426,-0.16928790509700775,1.416251301765442,0.07959972321987152,-0.10122586786746979,-0.9916739463806152,-0.4776404798030853,-0.1852121204137802,0.6140799522399902,0.1498629789267161,-0.03181394860294037,0.0561328863919539,0.986599277909854,0.10139953758281202,0.08009631229522372,2.83603380001398
1773062426654237184,1.1190242767333984,3.8423800468444824,-0.3006300926208496,1.728390097618103,0.0753241628408432,-0.14262427389621735,-0.9869065880775452,-0.3784247636795044,-0.15188561379909515,0.5527330040931702,0.1427588114856229,-0.02714886144032067,0.07622106689928834,0.9864447985483404,0.14311228838318701,0.07617581406410014,2.8486845086032533
1773062426664275456,1.1290624141693115,3.5260205268859863,-0.41660383343696594,1.9665849208831787,0.0687444806098938,-0.18026304244995117,-0.9812132716178894,-0.2720220685005188,-0.08417177200317383,0.4802519679069519,0.1341666482411496,-0.022012298202662293,0.09438662866733966,0.9862078933149948,0.1812538694214715,0.06994639811482135,2.8648078935979573
1773062426674312448,1.139099359512329,3.4106295108795166,-0.48435652256011963,2.0621378421783447,0.06028149276971817,-0.21549299359321594,-0.9746429920196533,-0.20751354098320007,-0.022681444883346558,0.3695099353790283,0.12472838604275797,-0.016482098314277945,0.1113860640991111,0.9857811411738484,0.21719665478489164,0.06177113283044133,2.883138491213106
1773062426684350464,1.1491374969482422,3.44911527633667,-0.5208487510681152,2.120356321334839,0.050440505146980286,-0.2500498592853546,-0.9669182300567627,-0.17338056862354279,0.018833428621292114,0.2223808765411377,0.11492243134765306,-0.01065029053485934,0.12816967809877589,0.9850137213621372,0.2527317595677139,0.05211901673063859,2.9026782605955597
1773062426694387456,1.1591744422912598,3.4797518253326416,-0.46522557735443115,2.23649263381958,0.03979464992880821,-0.2845260202884674,-0.9578419923782349,-0.148696631193161,0.043696582317352295,0.09797877073287964,0.10465384776206545,-0.004788628631332516,0.14510707589958574,0.983853919143501,0.28851199127995414,0.041522272659652866,2.9236143851970433
1773062426704425216,1.1692123413085938,3.4718081951141357,-0.40917348861694336,2.4413340091705322,0.028528651222586632,-0.3185907006263733,-0.9474629759788513,-0.13697285950183868,0.04687744379043579,-0.00012308359146118164,0.0935047425213035,0.0009062855984423556,0.16207310822504334,0.9823382245094141,0.3242423458288868,0.030101475469623454,2.946869055197506
1773062426714462208,1.1792492866516113,3.417649030685425,-0.30620941519737244,2.657827854156494,0.016507849097251892,-0.35173189640045166,-0.9359552264213562,-0.1424081176519394,0.02850496768951416,-0.0627172589302063,0.08119012176514728,0.0063902107044314675,0.17883387881092652,0.9805028405923515,0.3594205794371762,0.017635606437673108,2.973156521190888
1773062426724500480,1.1892874240875244,3.335958957672119,-0.18452292680740356,2.84311842918396,0.004021477419883013,-0.383545845746994,-0.9235130548477173,-0.17524035274982452,-0.0005331039428710938,-0.07854682207107544,0.0677367359187938,0.01146118130300387,0.19522320537740753,0.9783497574802074,0.39363272273431776,0.004354515573129778,3.0024735799904776
1773062426734537472,1.199324369430542,3.230553150177002,-0.08394917845726013,3.007366895675659,-0.008950202725827694,-0.4136941730976105,-0.9103718996047974,-0.22769835591316223,-0.030504435300827026,-0.08747661113739014,0.05329662599016845,0.016113535063053783,0.21107912304658105,0.9758818610727844,0.4265080111572136,-0.009831053134559871,3.0346023330223044
1773062426744575488,1.209362506866455,3.1590633392333984,0.01661790907382965,3.1441965103149414,-0.02246183156967163,-0.4421232342720032,-0.8966730237007141,-0.26301485300064087,-0.047287166118621826,-0.09931391477584839,0.03797768530670699,0.02037678092062168,0.22638083643066398,0.9730848195607201,0.4579644587678722,-0.025044955368560728,3.0694134884609388
1773062426754613504,1.219400405883789,3.2175426483154297,0.08268959820270538,3.230783700942993,-0.036655593663454056,-0.469548761844635,-0.8821452856063843,-0.27451688051223755,-0.05565875768661499,-0.14664804935455322,0.02199904776231282,0.024376262313928566,0.2415225554569664,0.9698395234617683,0.48877961172125106,-0.041528892614682206,3.1065917053012733
1773062426764650240,1.2294373512268066,3.3490259647369385,0.21580611169338226,3.2663803100585938,-0.05116652324795723,-0.4969084560871124,-0.8662932515144348,-0.2626152038574219,-0.055642783641815186,-0.20638436079025269,0.0055982370724405655,0.02797395044415147,0.2570424941436263,0.965978903383431,0.5200326395936941,-0.05899520654997385,-3.1374840705983518
1773062426774688512,1.2394754886627197,3.5070791244506836,0.4073607623577118,3.2892374992370605,-0.06528394669294357,-0.5244952440261841,-0.8489068150520325,-0.23873215913772583,-0.05460631847381592,-0.22967594861984253,-0.011183422023689184,0.03077474466076162,0.27312910892884884,0.9614200175996734,0.5521221687817188,-0.07675247917139326,-3.09657595222999
1773062426784725504,1.2495124340057373,3.7547295093536377,0.5992097854614258,3.298090696334839,-0.07887451350688934,-0.5526414513587952,-0.8296784162521362,-0.21984678506851196,-0.07154983282089233,-0.26927483081817627,-0.028326571186993322,0.032658062510691414,0.2899900784786269,0.9560527899114439,0.5855303517179845,-0.0947815195397472,-3.053763529054709
1773062426794763264,1.2595503330230713,4.032650470733643,0.8367736339569092,3.2599148750305176,-0.09168422222137451,-0.5818443298339844,-0.8081158399581909,-0.220495343208313,-0.12465286254882812,-0.3465472459793091,-0.045758073744267,0.03343263200994373,0.3079356208691531,0.9497179242458414,0.6209945693791511,-0.11297124291227272,-3.009021350593586
1773062426804800256,1.2695872783660889,4.2241716384887695,1.052032232284546,3.141023635864258,-0.10332776606082916,-0.6117589473724365,-0.7842667102813721,-0.24872300028800964,-0.1944696307182312,-0.41179341077804565,-0.0631729205032842,0.03291595781005195,0.3267769456383916,0.9424131307032515,0.6582822948208653,-0.13099632024940877,-2.9629261799962885
1773062426814838528,1.279625415802002,4.317943096160889,1.2182719707489014,3.0079030990600586,-0.11383065581321716,-0.6415097117424011,-0.7586223483085632,-0.28625479340553284,-0.2682040333747864,-0.43148690462112427,-0.08027050678997362,0.031191862947530253,0.3459998417802372,0.93427396327563,0.6964646911234141,-0.14893803724223786,-2.91602316594875
1773062426824875264,1.2896623611450195,4.392183780670166,1.3534761667251587,2.8929545879364014,-0.12366469204425812,-0.6705451011657715,-0.7314890623092651,-0.2857743799686432,-0.33130115270614624,-0.4224262833595276,-0.09697649203166213,0.028536431857188092,0.3652959457319409,0.9253864634679857,0.7349433374872912,-0.16747528739710882,-2.868164080640634
1773062426834913536,1.2997004985809326,4.507181167602539,1.504730224609375,2.773937463760376,-0.13285119831562042,-0.6989096999168396,-0.7027629613876343,-0.22904150187969208,-0.3855934739112854,-0.4189563989639282,-0.1133537900045856,0.024918119882381327,0.38470456104385475,0.9157141934021009,0.7738719490142539,-0.18683643998964944,-2.8189542954409124
1773062426844950528,1.3097374439239502,4.6234025955200195,1.6400865316390991,2.6570661067962646,-0.14141812920570374,-0.7266944646835327,-0.6722469925880432,-0.13711580634117126,-0.433171808719635,-0.4465731978416443,-0.12940220959385434,0.020317068376605664,0.4043064769198907,0.9051952752692825,0.8134978172710043,-0.2073430280190164,-2.76802778065007
1773062426854988288,1.3197753429412842,4.630338668823242,1.7740471363067627,2.50141978263855,-0.14936217665672302,-0.7534578442573547,-0.640306293964386,-0.02315370738506317,-0.4751187562942505,-0.4609968066215515,-0.14503447745157844,0.014779289887559126,0.42382595415098234,0.8939340231177162,0.8533054944164089,-0.22916880168238626,-2.7153720352655175
1773062426865026560,1.3298134803771973,4.51863956451416,1.8776190280914307,2.2961266040802,-0.15638838708400726,-0.7784513831138611,-0.6079112887382507,0.07330428063869476,-0.5160585045814514,-0.45632821321487427,-0.15997572112343758,0.008358790843936583,0.4426900599238198,0.8822490447063602,0.8921948787816851,-0.2517954288668472,-2.661922145243268
1773062426875063296,1.3398504257202148,4.344982624053955,1.975529432296753,2.073089361190796,-0.16226932406425476,-0.8012974262237549,-0.5758394002914429,0.13376590609550476,-0.5593134760856628,-0.41947609186172485,-0.17405896527621587,0.0011224012855861464,0.46052041279763184,0.8704154501201049,0.9294607406463169,-0.2746735006918489,-2.608494753993172
1773062426885101312,1.3498883247375488,4.107885837554932,2.053823232650757,1.8530347347259521,-0.166912242770195,-0.8218458294868469,-0.5447108149528503,0.1738550066947937,-0.5857623219490051,-0.36146289110183716,-0.18726085553405192,-0.006848833780777749,0.47707198218780883,0.858655320341546,0.9646434320174265,-0.29733951194979463,-2.5556311218329895
1773062426895138304,1.3599252700805664,3.868072986602783,2.0906031131744385,1.647425651550293,-0.17050354182720184,-0.840056300163269,-0.5150086283683777,0.19464294612407684,-0.5750132203102112,-0.30292344093322754,-0.1995774763562766,-0.015322183900582,0.4922000800151938,0.8471558487280838,0.9973869536271504,-0.3197115417183606,-2.5036929260497276
1773062426905176320,1.3699634075164795,3.7627131938934326,2.112638473510742,1.4568109512329102,-0.17316313087940216,-0.8565030694007874,-0.4862273335456848,0.20853301882743835,-0.5291170477867126,-0.24508064985275269,-0.21100940861332418,-0.024220823714783287,0.5062604854124502,0.8358162236950603,1.028456019933002,-0.3421308327112727,-2.4524402364154656
1773062426915213312,1.380000352859497,3.790074586868286,2.182981014251709,1.2587347030639648,-0.17477262020111084,-0.871975839138031,-0.4572886526584625,0.22448575496673584,-0.4507172107696533,-0.22744953632354736,-0.2216597922492493,-0.03376994432543814,0.5198223431810101,0.8243248322330926,1.0592239067764404,-0.3650620897235492,-2.400947039661169
1773062426925251328,1.390038251876831,3.904900074005127,2.2356059551239014,1.0526689291000366,-0.1751755028963089,-0.8870006799697876,-0.4272507131099701,0.2364395558834076,-0.36074090003967285,-0.252665638923645,-0.23149908202784353,-0.04415692239828151,0.5333149205241369,0.8124244170378251,1.0908088394849547,-0.3891026582315975,-2.348407137227098
1773062426935288320,1.4000754356384277,4.047078609466553,2.281444549560547,0.8526964783668518,-0.1743755042552948,-0.9017469882965088,-0.39553195238113403,0.2421397864818573,-0.2818925380706787,-0.2705293893814087,-0.24047716298691368,-0.055431228529352033,0.5469564875845733,0.7999604525870336,1.1237941588418219,-0.4152298819017689,-2.2938476476441942
1773062426945326336,1.4101133346557617,4.169654846191406,2.2998180389404297,0.6790893077850342,-0.17262053489685059,-0.9160506725311279,-0.3620130121707916,0.250440388917923,-0.21932530403137207,-0.2559831738471985,-0.24862202876611714,-0.06748630526935316,0.5607486892095919,0.7868886277697346,1.158119916937787,-0.44494461619662445,-2.2358493279247678
1773062426955363328,1.4201502799987793,4.247313022613525,2.339012861251831,0.5394184589385986,-0.17024026811122894,-0.9295663237571716,-0.32699379324913025,0.25903117656707764,-0.17156898975372314,-0.21898096799850464,-0.25603931169362676,-0.08015441395185796,0.5745244724267672,0.7732663953200541,1.1932346488315848,-0.48000902900690423,-2.172679988846737
1773062426965401344,1.4301884174346924,4.300539493560791,2.368699550628662,0.40973982214927673,-0.1673789918422699,-0.9420164823532104,-0.29084232449531555,0.2632957398891449,-0.14521801471710205,-0.18384337425231934,-0.2628844273054382,-0.09340817564273128,0.5880933223872749,0.7591527884426834,1.2285896740342948,-0.5222080168374907,-2.102302674784913
1773062426975439360,1.4402263164520264,4.331330299377441,2.3742215633392334,0.297947496175766,-0.16427554190158844,-0.9532219171524048,-0.2537355124950409,0.26122990250587463,-0.144098699092865,-0.16931438446044922,-0.26912710790458005,-0.10705387134838183,0.6013914787946557,0.7446062364898196,1.2637216500578845,-0.574565179721385,-2.0219728987591257
1773062426985476352,1.450263261795044,4.379284381866455,2.3612875938415527,0.1891012042760849,-0.16101910173892975,-0.9630875587463379,-0.21572022140026093,0.26221540570259094,-0.15570205450057983,-0.1527337282896042,-0.27477115100524097,-0.12103458939791976,0.6144025665414249,0.7296306767568062,1.298246138276541,-0.6412095676170972,-1.9275929277922335
1773062426995514368,1.460301399230957,4.3176398277282715,2.328490734100342,0.05106862634420395,-0.15758545696735382,-0.9714837074279785,-0.17716117203235626,0.2636035084724426,-0.15636956691741943,-0.14965157210826874,-0.2797251896405539,-0.13521775146211554,0.6270052430179135,0.7143768613425308,1.331410142428996,-0.7269854903934193,-1.814599876870542
1773062427005551360,1.4703383445739746,4.170717716217041,2.3096890449523926,-0.1290910392999649,-0.15350820124149323,-0.978289008140564,-0.13923251628875732,0.26271533966064453,-0.13549566268920898,-0.12404267489910126,-0.2839148972350379,-0.149577785012077,0.6387567842991199,0.6992914301927797,1.3620380656587099,-0.834125219355977,-1.6808596630216954
1773062427015589120,1.4803762435913086,4.02816104888916,2.2666163444519043,-0.30082282423973083,-0.148594468832016,-0.9835814237594604,-0.1024068221449852,0.2542920708656311,-0.10789495706558228,-0.044108085334300995,-0.2873511996123313,-0.16410492003907726,0.6495122510713569,0.6845674878729507,1.3893372702720643,-0.967375970662653,-1.521604181307997
1773062427025626368,1.4904134273529053,3.9691131114959717,2.194319725036621,-0.46275633573532104,-0.14291176199913025,-0.9875191450119019,-0.06620032340288162,0.25083720684051514,-0.0993034839630127,0.015205435454845428,-0.2899557680700166,-0.1787398595633771,0.6595088341532556,0.6700940006418552,1.4126387094521349,-1.1369989755776746,-1.3267808228944113
1773062427035664384,1.5004513263702393,3.9001998901367188,2.074747085571289,-0.6382051110267639,-0.13640065491199493,-0.990196168422699,-0.03010554052889347,0.24748463928699493,-0.11678314208984375,0.023269595578312874,-0.2915674739803665,-0.19343730883758586,0.6689762605840961,0.65577520213685,1.4306541043939465,-1.3535650428630894,-1.086118721477435
1773062427045701376,1.5104882717132568,3.778508186340332,1.9356343746185303,-0.8165493011474609,-0.1289076805114746,-0.991641640663147,0.005432846490293741,0.2336440086364746,-0.14358162879943848,0.025756120681762695,-0.29210072319782643,-0.20805126964971912,0.6778134643213914,0.6418416279793722,1.4414130030467933,-1.6129166521523568,-0.8041256892971096
1773062427055739392,1.52052640914917,3.662336587905884,1.829561471939087,-0.9965760707855225,-0.12027248740196228,-0.9919310212135315,0.04009348899126053,0.21361052989959717,-0.1547364592552185,0.030493617057800293,-0.29161479864324585,-0.2226048735738199,0.6859255171745687,0.6284219446909921,1.44367568215526,-1.8925667884743653,-0.5031703187213861
1773062427065776384,1.5305633544921875,3.508035659790039,1.7375622987747192,-1.1701278686523438,-0.11049973219633102,-0.9911376237869263,0.07373028248548508,0.18476426601409912,-0.15264594554901123,0.02949535846710205,-0.2902656018510426,-0.23716300576617602,0.6932667956142876,0.6155329279415737,1.4375633349907708,-2.159198525270842,-0.21623792473430448
1773062427075814144,1.5406012535095215,3.34696364402771,1.662279486656189,-1.3573782444000244,-0.09944316744804382,-0.989384651184082,0.10596740245819092,0.15187238156795502,-0.14972972869873047,0.008595585823059082,-0.28814122256824604,-0.25176573726722756,0.699712594687326,0.6033166345879997,1.424959678919198,-2.3879457297076305,0.03197982549188521
1773062427085851392,1.5506384372711182,3.1498043537139893,1.6161460876464844,-1.548715353012085,-0.08698611706495285,-0.9867869019508362,0.13669262826442719,0.12362246960401535,-0.14343148469924927,-0.030064240097999573,-0.28531629034650363,-0.26649429977927014,0.7052142253412806,0.591817720881525,1.4080553083486478,-2.5748639804511506,0.23775975039601788
1773062427095889408,1.5606763362884521,2.810368061065674,1.5380488634109497,-1.7077997922897339,-0.07321958988904953,-0.9835737347602844,0.16498926281929016,0.09671811759471893,-0.11771398782730103,-0.017955556511878967,-0.282005683757242,-0.28120184808809673,0.7095210713324902,0.581358843984796,1.3892946471188001,-2.7239199983939186,0.4051285250735421
1773062427105927168,1.5707142353057861,2.348203659057617,1.442310094833374,-1.8238472938537598,-0.05839414894580841,-0.9801459312438965,0.1894846111536026,0.0743701308965683,-0.08102667331695557,0.04261687397956848,-0.2784496823728901,-0.295481430942279,0.7123433369513611,0.5724715129064878,1.3711962745782185,-2.842654146499067,0.5412797961144173
1773062427115964416,1.5807514190673828,1.8347439765930176,1.3605903387069702,-1.8954260349273682,-0.0428890585899353,-0.9769179224967957,0.20926529169082642,0.06274072825908661,-0.050883591175079346,0.10416543483734131,-0.2749702216763353,-0.3090426574303832,0.7135301541621409,0.5654721507908899,1.3555224089992777,-2.9394414180366315,0.6545330644859175
1773062427126002432,1.5907893180847168,1.393424391746521,1.2845094203948975,-1.9470287561416626,-0.0269144456833601,-0.9740957617759705,0.22452838718891144,0.05840856954455376,-0.028284549713134766,0.1388596147298813,-0.2717219688890802,-0.3218736430018709,0.7132051266602936,0.5602704118193921,1.342687241372302,-3.022290885722722,0.7530585680223906
1773062427136039168,1.6008262634277344,1.0321846008300781,1.2174190282821655,-1.9713958501815796,-0.010611440055072308,-0.9716802835464478,0.2360616773366928,0.05739489197731018,-0.003020763397216797,0.11852207779884338,-0.2687075646564116,-0.33404764975426515,0.7116480923675788,0.5565658248900549,1.3322406288255635,-3.0966709138677806,0.8424302021979867
1773062427146077440,1.6108644008636475,0.767333447933197,1.1510554552078247,-1.9376410245895386,0.005686329212039709,-0.9695806503295898,0.24470674991607666,0.04895541071891785,0.03719222545623779,0.09559479355812073,-0.26592508432528356,-0.3455426297125477,0.7091922644670442,0.5540131979001006,1.3235117476518778,3.1183595147942524,0.9248632283768106
1773062427156114432,1.620901346206665,0.6193715333938599,1.1449741125106812,-1.8406778573989868,0.02126161940395832,-0.9676230549812317,0.251503050327301,0.037622056901454926,0.09849768877029419,0.07361602783203125,-0.26352236388477035,-0.35635229459589707,0.7062326562426265,0.5520910393740628,1.3156367883949742,3.057254966071462,0.9997893845633167
1773062427166152192,1.630939245223999,0.6573540568351746,1.1696137189865112,-1.7335705757141113,0.03568347543478012,-0.9655206203460693,0.2578691840171814,0.020377326756715775,0.1602380871772766,0.04927504062652588,-0.2615273783772145,-0.36670284968027794,0.7031810619441096,0.5501534497502941,1.307435980550558,3.0040876719068343,1.0667943839243446
1773062427176189440,1.6409764289855957,0.8962034583091736,1.1472361087799072,-1.600730538368225,0.048834655433893204,-0.9627934694290161,0.26578906178474426,-0.003973826766014099,0.2063848376274109,0.052783966064453125,-0.25957624790830536,-0.3768044404059563,0.7006518019810429,0.5474720324630701,1.297155906915046,2.959884667156329,1.1247324647953336
1773062427186227200,1.6510143280029297,1.2329944372177124,1.1351903676986694,-1.471771478652954,0.06058614328503609,-0.9590696692466736,0.2766130864620209,-0.0063106343150138855,0.22626632452011108,0.02169620990753174,-0.25733547988856537,-0.38670264787084785,0.6991191655002483,0.5435733097938248,1.2836982832090253,2.925969207659125,1.1719213489740372
1773062427196264192,1.6610512733459473,1.6541757583618164,1.0042084455490112,-1.3468546867370605,0.0711287409067154,-0.9540261626243591,0.2911616563796997,0.0087968111038208,0.21936112642288208,-0.02803906798362732,-0.2544088977464697,-0.3964183499708742,0.69888004382386,0.5382335926752161,1.2663936170454502,2.9019924881721435,1.208195376923752
1773062427206302464,1.6710894107818604,2.082711696624756,0.9163292050361633,-1.229640245437622,0.08055678009986877,-0.9474035501480103,0.3097365200519562,0.016504347324371338,0.19494712352752686,-0.08346396684646606,-0.2505389112160968,-0.4058850412253933,0.7000897080655469,0.5313773174708654,1.245023192790738,2.887148134541464,1.2339053686456327
1773062427216340224,1.6811273097991943,2.497313976287842,0.8288211822509766,-1.1645101308822632,0.08905912935733795,-0.938999354839325,0.332187682390213,0.014044515788555145,0.16022127866744995,-0.12305080890655518,-0.24572999906461568,-0.4152629656052801,0.7026026693394688,0.5229941912564027,1.2197091462691045,2.8796536517472093,1.2511574049917056
1773062427226377216,1.691164255142212,2.818864583969116,0.7346081733703613,-1.1340595483779907,0.09715960174798965,-0.9286975860595703,0.35788342356681824,-0.029441125690937042,0.11007893085479736,-0.12036517262458801,-0.23986361525260153,-0.42459157500349043,0.7061612444053684,0.51334553227745,1.1908851550701578,2.8764982306589117,1.26286420323818
1773062427236415488,1.701202392578125,3.0684332847595215,0.6734074950218201,-1.0882052183151245,0.10486698150634766,-0.9165753126144409,0.38586586713790894,-0.08004096150398254,0.0635785460472107,-0.1106584370136261,-0.2331740917481115,-0.4338420358705033,0.7104322751460087,0.5026896268167581,1.159429948928132,2.87623129799121,1.2707932877237569
1773062427246452224,1.7112393379211426,3.289891481399536,0.6593284010887146,-1.0590810775756836,0.11200273782014847,-0.9026119709014893,0.4156282842159271,-0.12018146365880966,0.03554660081863403,-0.1039218008518219,-0.22586808433325642,-0.4429966510235713,0.7152398981407607,0.49109002300747634,1.1257993480918778,2.878367281045949,1.275750977153174
1773062427256490240,1.7212772369384766,3.3915979862213135,0.662727415561676,-1.0873953104019165,0.11876966059207916,-0.8868874311447144,0.44645795226097107,-0.14985178411006927,0.02040177583694458,-0.13932901620864868,-0.2181268124983261,-0.45220341833259126,0.7202367954841757,0.47873982886204247,1.090563666088156,2.8815879885328317,1.279588407753932
1773062427266527488,1.7313144207000732,3.439694881439209,0.5952956676483154,-1.097893476486206,0.12550604343414307,-0.8696914911270142,0.4773731827735901,-0.17480719089508057,0.03354036808013916,-0.10399055480957031,-0.20998747924115818,-0.46135888210110143,0.7251445172199784,0.4660673073944779,1.0545769352307468,2.884501060310155,1.2835148274168644
1773062427276565248,1.7413523197174072,3.4670937061309814,0.45549991726875305,-1.0304844379425049,0.1321355700492859,-0.8512254953384399,0.5078927874565125,-0.17116759717464447,0.06136971712112427,-0.029941797256469727,-0.20136698061331715,-0.47003850079210685,0.730075474052823,0.45332644438177105,1.0183160743939568,2.8870706911267408,1.2866570354375966
1773062427286602240,1.7513892650604248,3.4361939430236816,0.34319016337394714,-0.9599785208702087,0.13846613466739655,-0.8317478895187378,0.5376077890396118,-0.13889342546463013,0.05940920114517212,-0.06713366508483887,-0.19236399069459628,-0.47798526686218523,0.7350741236106771,0.4406722803672011,0.9822487741495345,2.889511667614443,1.288440845620476
1773062427296640512,1.761427402496338,3.375433921813965,0.3131353259086609,-0.9338715672492981,0.14449883997440338,-0.8115280866622925,0.5661643147468567,-0.13467219471931458,0.01950550079345703,-0.1557181477546692,-0.1832545708514692,-0.4854081372543896,0.7399061390560845,0.4281769982085918,0.9467625901972662,2.8917031698418705,1.2897125363027617
1773062427306678272,1.7714653015136719,3.251239061355591,0.3323580026626587,-0.9167239665985107,0.1500735878944397,-0.7908041477203369,0.5933855772018433,-0.16733130812644958,-0.03596276044845581,-0.1974354386329651,-0.1743283465574772,-0.4925185892762951,0.7443911849526303,0.4158325915423018,0.9121216799106178,2.893876345765439,1.2910196744611349
1773062427316715264,1.7815022468566895,3.0111160278320312,0.3579861521720886,-0.8896436095237732,0.15512873232364655,-0.7705608606338501,0.6181995272636414,-0.20774106681346893,-0.08199334144592285,-0.19251000881195068,-0.16601045019878616,-0.49925869829247715,0.7482249047782158,0.4041542351360491,0.8797206344404324,2.895732915719888,1.2929825137933613
1773062427326753280,1.7915403842926025,3.2684075832366943,0.4646308422088623,-0.8498493432998657,0.15920406579971313,-0.74931800365448,0.6427880525588989,-0.24002988636493683,-0.11365801095962524,-0.0742456316947937,-0.1578843369480074,-0.5059084554440605,0.7519645258103385,0.39201845576071553,0.8470315733383369,2.898801166675322,1.2943287175936082
1773062427336790272,1.8015773296356201,3.3070271015167236,0.5203186273574829,-0.7080075144767761,0.1617506742477417,-0.7263265252113342,0.6680470705032349,-0.2503889203071594,-0.11223554611206055,-0.1858082413673401,-0.14980367425052243,-0.5123836024868748,0.755967314340896,0.3788607092702203,0.8129623344017622,2.904039702997943,1.2939706185313413
1773062427346828544,1.8116154670715332,3.3133602142333984,0.5199173092842102,-0.442402184009552,0.16239672899246216,-0.702777624130249,0.6926262378692627,-0.22326400876045227,0.026813209056854248,-0.21421736478805542,-0.14213251014733924,-0.5180018162130432,0.7602547278359003,0.3653563919859605,0.7792944308190781,2.91128760905668,1.2911245635432842
1773062427356865280,1.8216524124145508,3.135056972503662,0.6032342910766602,-0.09871221333742142,0.1603342890739441,-0.6794673800468445,0.715972900390625,-0.1769358366727829,0.21976584196090698,-0.185089111328125,-0.13532947387544014,-0.5222846351907898,0.7649870749825456,0.3517094463069156,0.7470364466923161,2.9212882876070183,1.2847287138499206
1773062427366903296,1.8316903114318848,2.8836779594421387,0.6503781080245972,0.16029991209506989,0.15550047159194946,-0.6575846672058105,0.7371582388877869,-0.12698177993297577,0.36789649724960327,-0.21222525835037231,-0.12989080177462906,-0.5251961048796966,0.7699014004607505,0.3384513752815775,0.7176082574307716,2.933694734475045,1.2755165893701212
1773062427376940288,1.8417272567749023,2.5448646545410156,0.7512388825416565,0.2589700222015381,0.14880767464637756,-0.6375194787979126,0.7559266090393066,-0.11484162509441376,0.4295575022697449,-0.2333132028579712,-0.12579561714179127,-0.5272755051408258,0.7745604252104439,0.32590200816465775,0.691274335372585,2.9472232796553635,1.2655504050338038
1773062427386978304,1.8517653942108154,2.3522679805755615,0.7414975762367249,0.30399981141090393,0.1412326693534851,-0.619308590888977,0.7723405361175537,-0.114850252866745,0.4125367999076843,-0.19362056255340576,-0.12275444987376728,-0.5288913612557012,0.7787452738332394,0.31426261164100405,0.667861777097578,2.9607277605081253,1.256098758412537
1773062427397015296,1.861802339553833,2.4044995307922363,0.6961725950241089,0.3415489196777344,0.13363631069660187,-0.6011533737182617,0.7878808975219727,-0.08332806825637817,0.32289403676986694,-0.1157616376876831,-0.11975041154736818,-0.5301753392922016,0.7828502838130624,0.30285226040871555,0.6449436223276528,2.973576840500572,1.2468277017039442
1773062427407053312,1.871840238571167,2.2906060218811035,0.7021524906158447,0.3561233580112457,0.1259728968143463,-0.5827298760414124,0.8028431534767151,-0.042278409004211426,0.14954805374145508,-0.21579158306121826,-0.1167279080882703,-0.5312404219357865,0.7868959179891707,0.2914672067529461,0.6220838233623187,2.9859531921202613,1.237774262546768
1773062427417091328,1.88187837600708,1.994896650314331,0.6444172859191895,0.40555188059806824,0.11834295094013214,-0.565720796585083,0.8160605430603027,-0.024730294942855835,0.02221810817718506,-0.16226720809936523,-0.11419524966979414,-0.5319702559202323,0.7905933887832386,0.2809433126946435,0.6013071203014759,2.9975792162214847,1.229297833316857
1773062427427128320,1.8919153213500977,1.6709420680999756,0.6011446118354797,0.46152618527412415,0.11077754944562912,-0.5511507391929626,0.8270192742347717,-0.013884268701076508,-0.012142598628997803,-0.036934494972229004,-0.11238655000644902,-0.5321295811303386,0.7939444213380499,0.2717711170842696,0.5837427242057196,3.008437269181451,1.2209988146408932
1773062427437166336,1.9019534587860107,1.5520437955856323,0.5323848724365234,0.412666916847229,0.1035599336028099,-0.5382186770439148,0.836418628692627,-0.001097165048122406,-0.004948437213897705,-0.03760576248168945,-0.11098980680689555,-0.5320446840953017,0.7969553135628924,0.2635753862300863,0.5683221218757756,3.018406057720929,1.2133124935825927
1773062427447203328,1.9119904041290283,1.3253624439239502,0.43449318408966064,0.28646183013916016,0.09770528972148895,-0.5264511704444885,0.8445727229118347,-0.010013014078140259,0.01129913330078125,-0.07437002658843994,-0.1094905759132871,-0.5320177114205719,0.7995270632482046,0.2563698907717008,0.5544210746143875,3.0264185799716103,1.2070764995600858
1773062427457241344,1.9220283031463623,1.3712929487228394,0.4450937807559967,0.1379459947347641,0.0928216204047203,-0.5153841376304626,0.8519176840782166,-0.025042042136192322,0.026645004749298096,-0.013401329517364502,-0.10801756903390158,-0.532489846851246,0.8015069675043852,0.24974681698861625,0.5414558545516691,3.033064676225771,1.202957653328089
1773062427467278336,1.9320652484893799,1.444620966911316,0.44466632604599,0.14419057965278625,0.08838347345590591,-0.5032556653022766,0.8596056699752808,-0.04253081977367401,-0.05898487567901611,0.11225700378417969,-0.10612258010877272,-0.5332359412130093,0.803406655998719,0.24276556251778905,0.5273622147172796,3.039134067641907,1.199600548633257
1773062427477316352,1.942103385925293,1.2076809406280518,0.549676239490509,0.09928875416517258,0.08341169357299805,-0.4917774796485901,0.8667160868644714,-0.010520488023757935,-0.19418123364448547,0.11955070495605469,-0.10470819064517038,-0.5340125575433132,0.8051016213980586,0.23596183070591656,0.514129970460883,3.0456493552800987,1.1965563774279904
1773062427487353344,1.9521403312683105,0.994342029094696,0.5747948884963989,-0.049180880188941956,0.07833641022443771,-0.4822988212108612,0.8724972009658813,0.03402931988239288,-0.2769632637500763,0.11276280879974365,-0.10410828141801401,-0.5351320951785509,0.8061527467087302,0.23002802850048826,0.5032770253518927,3.0520486147508197,1.195079444897613
1773062427497391360,1.9621784687042236,0.9676955938339233,0.5143828392028809,-0.19487057626247406,0.0741058737039566,-0.47365957498550415,0.8775848746299744,0.06911313533782959,-0.3008155822753906,0.10216689109802246,-0.10357541000912228,-0.5367742817473844,0.806638592022137,0.22467704642011638,0.4934414338171187,3.057349539735186,1.1955424832878823
1773062427507428352,1.9722154140472412,1.0505470037460327,0.3422185182571411,-0.2685471773147583,0.07137968391180038,-0.4646141827106476,0.8826314806938171,0.12112518399953842,-0.28958189487457275,0.11414879560470581,-0.10236041970278204,-0.5387330093466293,0.8068968282544817,0.2195598522747877,0.4831988487702989,3.060896825291976,1.1972749648272565
1773062427517466368,1.9822533130645752,1.3371800184249878,0.16008678078651428,-0.2999139130115509,0.07050038874149323,-0.4539942145347595,0.8882113099098206,0.16651439666748047,-0.25572264194488525,0.12173759937286377,-0.09987247518575287,-0.5407425415413843,0.8072813468710595,0.21428937094402162,0.4712430690292876,3.062385278585349,1.1994066760879645
1773062427527504384,1.9922914505004883,1.6776409149169922,-0.04535344988107681,-0.3229561150074005,0.07136673480272293,-0.44013577699661255,0.8950903415679932,0.18379069864749908,-0.2008705735206604,0.054875850677490234,-0.09564453304334805,-0.5428324483236477,0.8080087279567774,0.20810286119229893,0.45574986911985976,3.0620296429850673,1.2015768025587688
1773062427537541376,2.002328395843506,1.754925012588501,-0.12287434190511703,-0.28038281202316284,0.07360514998435974,-0.42432835698127747,0.902511715888977,0.16311967372894287,-0.14410722255706787,0.029922187328338623,-0.09019973024142111,-0.5447515909708571,0.8090127028185673,0.20151442311008086,0.43822001780210945,3.0602168588569505,1.2033660306047083
1773062427547579392,2.01236629486084,1.7074581384658813,-0.058296412229537964,-0.3130917549133301,0.07565165311098099,-0.40822920203208923,0.9097394943237305,0.1332259178161621,-0.17734214663505554,0.08653748035430908,-0.08475774430165332,-0.5466106233200032,0.809991707920784,0.19479844168068194,0.42051343579887734,3.0586260512119714,1.2049881093524026
1773062427557616128,2.0224032402038574,1.3628820180892944,-0.03917265310883522,-0.3525780439376831,0.07738864421844482,-0.39378848671913147,0.9159374237060547,0.10353479534387589,-0.33635976910591125,0.055513203144073486,-0.08000925869186316,-0.5485741481976997,0.810577020281712,0.18875841803295876,0.40474947943193973,3.0573016581628925,1.2072340420167271
1773062427567654400,2.0324413776397705,1.0100659132003784,-0.12379726022481918,-0.3345201909542084,0.07944536209106445,-0.3826475143432617,0.9204725623130798,0.12485457956790924,-0.42457300424575806,0.10922122001647949,-0.07612467973107312,-0.5503897902289542,0.8107449412832255,0.1843064346217641,0.3926602021406757,3.055496694452707,1.2099401271303416
1773062427577691392,2.042478322982788,0.6398347020149231,-0.32385778427124023,-0.25080227851867676,0.08255233615636826,-0.37472495436668396,0.9234537482261658,0.17941057682037354,-0.3983311057090759,0.13341593742370605,-0.07268467615839709,-0.5517025978593475,0.810771926452868,0.18163203168236958,0.38410009450433064,3.0524344465217426,1.212337960140684
1773062427587729408,2.052516460418701,0.20906895399093628,-0.5903477668762207,-0.0792827233672142,0.0874841958284378,-0.37065938115119934,0.9246395826339722,0.2086278796195984,-0.28690290451049805,0.15658307075500488,-0.06947743448900116,-0.5521372536723884,0.8108416839345057,0.18125438490908877,0.37971887197312204,3.0472590952285152,1.2137843639163617
1773062427597766400,2.0625534057617188,-0.13141171634197235,-0.7639250755310059,0.19795380532741547,0.09363320469856262,-0.3704759478569031,0.9241107106208801,0.18268820643424988,-0.16912060976028442,0.22353339195251465,-0.06666976403689306,-0.5512916535687866,0.8112538876747083,0.18302962712530935,0.3795213935336441,3.0406147747113645,1.213155571556865
1773062427607804416,2.0725913047790527,-0.275884211063385,-0.8565886616706848,0.4466190040111542,0.09998974204063416,-0.3727642893791199,0.9225232005119324,0.12484851479530334,-0.05532103776931763,0.1867450475692749,-0.0642301301638484,-0.5491357854643945,0.8122262583890014,0.1860455524961274,0.3819862449205082,3.0336268838496068,1.209887160726932
1773062427617842432,2.082629442214966,-0.28874897956848145,-0.9060913920402527,0.5902003049850464,0.10619569569826126,-0.37610384821891785,0.9204719662666321,0.04054807871580124,0.05898043513298035,0.1110832691192627,-0.06194575570135287,-0.546055058075542,0.8136706030576517,0.18954368647281664,0.38558779336798993,3.0267295630518367,1.204579551491265
1773062427627879424,2.0926663875579834,-0.00022159377112984657,-0.9906483292579651,0.7269818186759949,0.11243665963411331,-0.3782532811164856,0.91884845495224,-0.04052198678255081,0.15736708045005798,0.07530742883682251,-0.059134927731397585,-0.5424249703182655,0.8155975517905727,0.19255866890504428,0.3879086544953545,3.0198310608313776,1.1977304591576918
1773062427637917184,2.1027042865753174,0.22394533455371857,-1.1662615537643433,0.9637519121170044,0.11916190385818481,-0.37813064455986023,0.9180513024330139,-0.08428027480840683,0.24608099460601807,-0.00029587745666503906,-0.05521918855108837,-0.5379709091015146,0.8182988228885886,0.19474426304554301,0.38777617037772816,3.012515572841689,1.1885347258471894
1773062427647954176,2.112741231918335,0.5245807766914368,-1.3477802276611328,1.173173189163208,0.12670640647411346,-0.3762182295322418,0.9178264141082764,-0.10387925803661346,0.3663000166416168,-0.03888964653015137,-0.0501415101074057,-0.5323995686898233,0.8218661114564401,0.19639913283524274,0.38571124224940223,3.004409228633188,1.1764751340124182
1773062427657992448,2.122779369354248,1.0724743604660034,-1.443772554397583,1.1009938716888428,0.13525627553462982,-0.3703937530517578,0.9189745187759399,-0.20016716420650482,0.4546070098876953,-0.09864675998687744,-0.043378795040539646,-0.5263968819087099,0.8260711679861185,0.1965477281457795,0.37943288226615723,2.9954600704569203,1.1627998740979313
1773062427668029184,2.1328163146972656,1.3202627897262573,-1.3530693054199219,0.8171752691268921,0.14476566016674042,-0.3604333698749542,0.9214828610420227,-0.3993890881538391,0.4561060070991516,-0.2644241452217102,-0.03523434927309445,-0.5212367197331846,0.8300925875062516,0.19497974983197588,0.36873244262308624,2.9857655234036886,1.150517410253819
1773062427678067456,2.1428544521331787,1.2025477886199951,-1.094838261604309,0.5205499529838562,0.15392789244651794,-0.34965071082115173,0.9241488575935364,-0.6159792542457581,0.32145243883132935,-0.26641857624053955,-0.027371708638564182,-0.5174549791498875,0.8332555202480062,0.19281207932140196,0.35719825815120787,2.976546017806125,1.141301572115638
1773062427688104448,2.1528913974761963,1.266816258430481,-0.39173975586891174,0.43866416811943054,0.15945833921432495,-0.3391261100769043,0.9271285533905029,-0.7506142854690552,0.041579633951187134,-0.13357961177825928,-0.021466728910336158,-0.5149388610173364,0.8357046363506743,0.1896710869469913,0.34598781373922516,2.971267459110434,1.1342864936654162
1773062427698142208,2.1629292964935303,1.3316820859909058,0.2574860453605652,0.671222448348999,0.1580004245042801,-0.32762593030929565,0.9315024614334106,-0.7356677055358887,-0.25071263313293457,-0.03614741563796997,-0.018393270557374147,-0.5127426057300948,0.8383592569878688,0.18414772074031546,0.33378971064585583,2.9735729083710325,1.1261838967353373
1773062427708179200,2.172966241836548,0.920064389705658,0.49738121032714844,0.8214260339736938,0.15187816321849823,-0.3180820345878601,0.9358186721801758,-0.5928877592086792,-0.3925960063934326,-0.11756628751754761,-0.017790670081406328,-0.5099875823329599,0.8413215878260629,0.1782528889073583,0.3237057783669086,2.980701028380573,1.1162200479966813
1773062427718217472,2.183004379272461,0.5127017498016357,0.7203512787818909,0.7070436477661133,0.1436740905046463,-0.31260159611701965,0.9389559626579285,-0.4444248080253601,-0.37329626083374023,-0.07123434543609619,-0.0192566246802248,-0.5072947625698523,0.8438779634911074,0.17364123256459363,0.3179306509828193,2.9897556303800834,1.1069129695354525
1773062427728255232,2.193042278289795,0.2390851378440857,0.8407290577888489,0.5193107724189758,0.13433679938316345,-0.3099439740180969,0.9412162899971008,-0.30824124813079834,-0.3204728364944458,0.03613954782485962,-0.022177399127225942,-0.5054300700540155,0.8456645873701513,0.16999986348070015,0.315134107741016,2.9998233237458622,1.0999736838882903
1773062427738292480,2.2030794620513916,0.03850249946117401,0.7728996872901917,0.44441044330596924,0.12511377036571503,-0.3093193471431732,0.9426916837692261,-0.14606411755084991,-0.3051062524318695,0.10485446453094482,-0.025727608293457032,-0.5041286337212667,0.846876703067693,0.167308480761237,0.31447720487573244,3.0096440707067496,1.0948327609626238
1773062427748330240,2.2131173610687256,-0.09010075032711029,0.49855735898017883,0.3511686623096466,0.11774788051843643,-0.31011131405830383,0.9433804750442505,0.04629938304424286,-0.25887370109558105,0.16785621643066406,-0.02888497963496567,-0.5029193729498538,0.847798530822381,0.16575734855360358,0.3153101069014369,3.017419982730843,1.0905833249060681
1773062427758367232,2.223154306411743,-0.20585943758487701,0.1806248128414154,0.21991729736328125,0.11364094913005829,-0.31184783577919006,0.9433113932609558,0.17890052497386932,-0.16331079602241516,0.18817341327667236,-0.030947053949935924,-0.5019904072115995,0.8483285547603556,0.16548870776347543,0.31713723879623584,3.021700192529066,1.0878429748154885
1773062427768405504,2.2331924438476562,-0.18903225660324097,-0.2342219054698944,0.2425893098115921,0.11319742351770401,-0.3141283392906189,0.942608118057251,0.2093123495578766,-0.07681712508201599,0.15399539470672607,-0.031561549087878484,-0.5010127087501335,0.8486991989222682,0.16643285066112568,0.31953836672883534,3.0220754102349927,1.0858396898865204
1773062427778442496,2.243229389190674,-0.0786266103386879,-0.4592799246311188,0.32879382371902466,0.11576896905899048,-0.31566038727760315,0.9417837262153625,0.2164454162120819,-0.008024394512176514,0.08067739009857178,-0.030548351668743246,-0.49943235129976277,0.8493875365994271,0.16785431118630667,0.32115254710430713,3.0192810413360167,1.0829204431946735
1773062427788480256,2.253267288208008,-0.16166850924491882,-0.3048834204673767,0.24064427614212036,0.11859160661697388,-0.3170800805091858,0.9409549832344055,0.15893524885177612,0.02752929925918579,-0.07244002819061279,-0.029384290710554567,-0.49781560472096836,0.8500924109656076,0.1692899218548838,0.32264909904302636,3.016220443294727,1.0799595287257058
1773062427798517248,2.2633042335510254,-0.24218066036701202,-0.0013240736443549395,0.07660181820392609,0.11959432065486908,-0.31926992535591125,0.9400869011878967,0.031803347170352936,0.05216491222381592,-0.1219109296798706,-0.029367759155754434,-0.49697844373873645,0.8503269290307608,0.17056948210588593,0.32495900251642246,3.0150561183305515,1.0785922485866493
1773062427808555264,2.2733423709869385,-0.18308404088020325,0.25834986567497253,-0.04916729778051376,0.11827989667654037,-0.32130029797554016,0.9395615458488464,-0.06537767499685287,0.06124475598335266,-0.10772871971130371,-0.03049053127864032,-0.4970226196415206,0.8501466290087581,0.17114184922601616,0.3271022735700909,3.0163630274070434,1.078777510505882
1773062427818593280,2.2833802700042725,-0.13136935234069824,0.4136001467704773,-0.16915974020957947,0.11537715047597885,-0.3226938545703888,0.9394446611404419,-0.08183837682008743,0.04263412952423096,-0.16590064764022827,-0.032270348179225784,-0.4977502694538259,0.8496864114460566,0.17098584862300267,0.32857422213213516,3.0193903990181554,1.0801160057887855
1773062427828630528,2.293417453765869,-0.13277071714401245,0.433611124753952,-0.28681766986846924,0.11206746846437454,-0.32356885075569153,0.9395444989204407,-0.050589822232723236,0.020910799503326416,-0.14892572164535522,-0.03420938296186661,-0.4990849621306866,0.848932538701674,0.17046234676796387,0.32949881215119126,3.022875034138886,1.0827056025415112
1773062427838668288,2.303455352783203,-0.27591413259506226,0.3037215769290924,-0.2584105432033539,0.10938268154859543,-0.3251592516899109,0.9393118619918823,0.011482179164886475,0.015650004148483276,0.0009651780128479004,-0.036103264305777726,-0.500585020426293,0.8479802927171393,0.1704130020929426,0.33118011514997936,3.0256649880792668,1.0859471232081752
1773062427848705280,2.3134922981262207,-0.45366281270980835,-0.004220793955028057,-0.07761172205209732,0.10847964882850647,-0.32843953371047974,0.938274621963501,0.10222894698381424,0.05269801616668701,0.1487002968788147,-0.037544807884583156,-0.5013891122185972,0.8471990808017937,0.17161870777146426,0.3346509873711808,3.026487617310182,1.0882283247665427
1773062427858743552,2.323530435562134,-0.3974539637565613,-0.27876606583595276,0.1361711323261261,0.1097949668765068,-0.3327057659626007,0.9366171956062317,0.1824718713760376,0.1450226902961731,0.20478594303131104,-0.03806575394155657,-0.501057756330928,0.8469059652565526,0.17390330030382448,0.3391713534525378,3.0249002073199547,1.0884928512735486
1773062427868782080,2.333569049835205,-0.13355280458927155,-0.47650790214538574,0.27461370825767517,0.1126650869846344,-0.33541589975357056,0.9353089928627014,0.2045498788356781,0.27183252573013306,0.23227834701538086,-0.03728911971363713,-0.4997553402610139,0.8472892587465295,0.1759405172611113,0.34204666395810324,3.0217126369557388,1.086542403808578
1773062427878819840,2.343606948852539,0.05533061549067497,-0.4749048352241516,0.25456660985946655,0.11639468371868134,-0.33612969517707825,0.93459552526474,0.15508967638015747,0.35645443201065063,0.14897668361663818,-0.03553256874414802,-0.49815890474010444,0.848018558018993,0.17731213733699333,0.3428044622467405,3.0176904428213507,1.083738216761892
1773062427888856832,2.3536438941955566,0.32436317205429077,-0.29220107197761536,0.25327789783477783,0.11912845075130463,-0.3347039520740509,0.9347628951072693,0.05639339238405228,0.3363214135169983,0.11347013711929321,-0.03367643650098205,-0.49679733786097957,0.8488662158625797,0.17743858255071798,0.3412910573823159,3.0148335346552386,1.080875518406666
1773062427898895104,2.3636820316314697,0.6932036876678467,-0.2807750105857849,0.32844269275665283,0.12074840813875198,-0.3303613066673279,0.9360988140106201,0.027917951345443726,0.26987549662590027,0.11695587635040283,-0.0315174586583992,-0.495412918970918,0.8500679000087994,0.17594653153626977,0.3366863516601146,3.0133099131487513,1.0771720501172235
1773062427908932096,2.3737189769744873,1.0503476858139038,-0.4101465940475464,0.3848934471607208,0.1227254718542099,-0.32250353693962097,0.9385784864425659,0.07145784795284271,0.21750783920288086,0.15926069021224976,-0.028211770246384934,-0.49371858626000215,0.8517811974368266,0.1729588380549255,0.32837314127455414,3.0115735475084957,1.0721857018201904
1773062427918969856,2.3837568759918213,1.1310772895812988,-0.668440580368042,0.41149353981018066,0.12652839720249176,-0.3125840127468109,0.9414253234863281,0.11292776465415955,0.1644212007522583,0.1214103102684021,-0.023522010882747156,-0.49169051620575793,0.8537874935713107,0.16951109202205372,0.3179121340550986,3.00799236144474,1.066459056083192
1773062427929008128,2.3937950134277344,1.1195818185806274,-0.8225460052490234,0.4420517086982727,0.13241028785705566,-0.3025262653827667,0.9438989162445068,0.11781857907772064,0.11098271608352661,0.09275257587432861,-0.017855706164971227,-0.48932972875857184,0.8558655719775344,0.1665282569597321,0.3073420003291748,3.0022219549669944,1.0603782296817847
1773062427939044864,2.403831958770752,1.0949769020080566,-0.746354341506958,0.36065298318862915,0.13872449100017548,-0.29253140091896057,0.9461400508880615,0.059883907437324524,0.03066006302833557,0.0008203983306884766,-0.012046412669531189,-0.486961120578116,0.8578688114242171,0.16366087906968654,0.2968729658263199,2.9960084767188913,1.0543795569628147
1773062427949082880,2.413869857788086,0.853459894657135,-0.48406994342803955,0.10278494656085968,0.14400140941143036,-0.28344500064849854,0.9481151103973389,-0.09297603368759155,-0.12823709845542908,-0.18131530284881592,-0.007117084796304075,-0.48546886688304514,0.8592889643207056,0.16090905806085648,0.28738454051691004,2.9908628403640325,1.0503706770882972
1773062427959120128,2.4239070415496826,0.3700105845928192,-0.11116161942481995,-0.14726589620113373,0.14693962037563324,-0.27746137976646423,0.9494335055351257,-0.28365835547447205,-0.34656208753585815,-0.24464523792266846,-0.004280273849337373,-0.4853722807473845,0.8597269985287925,0.15894948404211848,0.28115072745515235,2.988045299360456,1.0496846201753887
1773062427969157888,2.4339449405670166,-0.3592391014099121,0.19855788350105286,-0.2152734398841858,0.14701470732688904,-0.27704286575317383,0.9495440721511841,-0.37665948271751404,-0.5212512016296387,-0.14113342761993408,-0.004301527830503965,-0.4862450937165718,0.859265824042802,0.15877489132917308,0.28071514234437334,2.9879856605818054,1.0516578460264998
1773062427979194880,2.443981885910034,-0.9388737082481384,0.40909168124198914,-0.14054514467716217,0.14453372359275818,-0.28319913148880005,0.9481077194213867,-0.3375879228115082,-0.5489389300346375,0.05976581573486328,-0.00715927361488282,-0.4872729736432153,0.858265050285846,0.16091886685579687,0.28712815289755483,2.990312943639307,1.054634628916091
1773062427989232896,2.4540200233459473,-1.2344462871551514,0.36729392409324646,-0.027640167623758316,0.14090803265571594,-0.293500155210495,0.9455171823501587,-0.23990705609321594,-0.42662313580513,0.1953977346420288,-0.011522700737960623,-0.4878965196496286,0.8571555233673908,0.16464713030166261,0.29788620814159134,2.9936539784017224,1.0571738913365265
1773062427999270912,2.4640579223632812,-1.305802345275879,0.2643779218196869,3.975816071033478e-06,0.13800470530986786,-0.3057098388671875,0.9420698881149292,-0.14873167872428894,-0.22114557027816772,0.17508679628372192,-0.016002854736916025,-0.4880957107978803,0.8560359388439912,0.1694367992126674,0.31068386062749626,2.996136296584671,1.059228897191728
1773062428009307904,2.474094867706299,-1.0159428119659424,0.21829617023468018,-0.04336373880505562,0.13576892018318176,-0.3168778419494629,0.9386985898017883,-0.09543997049331665,-0.01649615168571472,0.20452028512954712,-0.019936181313609348,-0.4882804563675981,0.8549453184722725,0.17393447821044583,0.32243586154484255,2.997953472860226,1.0612332296653928
1773062428019345920,2.484133005142212,-0.5708809494972229,0.15830260515213013,-0.07950177043676376,0.13421630859375,-0.3242313861846924,0.9364081025123596,-0.072235107421875,0.11828351020812988,0.11429691314697266,-0.022620199738330685,-0.48863900371548846,0.8540702338924789,0.1768737176419172,0.33019909949062143,2.9992312402386663,1.0631078577915185
1773062428029382912,2.4941699504852295,-0.278993159532547,0.16107788681983948,-0.10133808851242065,0.13306744396686554,-0.32803404331207275,0.9352467656135559,-0.06115280091762543,0.16645878553390503,-0.08307403326034546,-0.024223836034723112,-0.48911537382835824,0.853457394857785,0.17829685068651915,0.33422169661665435,3.0002606888373147,1.0646875557839954
1773062428039421184,2.5042080879211426,0.042369674891233444,0.1989608108997345,-0.07335865497589111,0.13166150450706482,-0.3291493058204651,0.9350540041923523,-0.04468642175197601,0.15701493620872498,-0.1271468997001648,-0.025245746983426576,-0.48965891111119664,0.8530891846916021,0.1784254729018559,0.3354025254018079,3.0017059970632594,1.0658588488193372
1773062428049457920,2.51424503326416,0.3927721679210663,0.18128834664821625,-0.02140730619430542,0.12998227775096893,-0.3269077241420746,0.9360748529434204,-0.013695016503334045,0.0919528603553772,-0.13256216049194336,-0.02546599672758914,-0.4900477935130618,0.8531650397134368,0.17695791038497596,0.33302965238781823,3.003616107080973,1.0659742298944672
1773062428059495936,2.524282932281494,0.4316445589065552,0.18170833587646484,-0.010896608233451843,0.12834978103637695,-0.3228185772895813,0.9377179145812988,0.029242992401123047,-0.005199611186981201,-0.24892079830169678,-0.025154495112295523,-0.4903280024952632,0.8534854421978841,0.17466652565833177,0.328706001914878,3.0055633131419524,1.0655122635508365
1773062428069532928,2.5343198776245117,0.17973481118679047,0.13008828461170197,0.05837407335639,0.12677647173404694,-0.31983935832977295,0.9389522075653076,0.06328706443309784,-0.0699770450592041,-0.18886029720306396,-0.02507397457503517,-0.4904266536793004,0.8537902510033343,0.17290281562067536,0.32555994450286196,3.007385179339312,1.064857013960813
1773062428079570944,2.544358015060425,-0.21129775047302246,0.013774718157947063,0.16248610615730286,0.12571974098682404,-0.3200612962245941,0.9390183687210083,0.12043504416942596,-0.028373152017593384,0.0669020414352417,-0.025510616122705877,-0.4900179583343535,0.8540442532974416,0.17274278767786477,0.32579417994937915,3.0084998922879866,1.06371222946388
1773062428089607936,2.5543949604034424,-0.572575569152832,-0.08548635244369507,0.2425636202096939,0.12538708746433258,-0.32414206862449646,0.9376621842384338,0.156839519739151,0.0343470573425293,0.256170392036438,-0.02653234829646698,-0.48903726713500806,0.8542093733864273,0.17454236730447084,0.3301046887530258,3.0086581963337093,1.0620855371169509
1773062428099645952,2.5644328594207764,-0.575037956237793,-0.17289981245994568,0.22487996518611908,0.12581737339496613,-0.3301989734172821,0.9354885816574097,0.16432853043079376,0.07772701978683472,0.3513615131378174,-0.027690694769496906,-0.48781817911011244,0.8542702876153744,0.1774514058050673,0.3365143663652799,3.007901150007033,1.0604408867614084
1773062428109683968,2.5744709968566895,-0.03442878648638725,-0.3048192262649536,0.19514763355255127,0.12732015550136566,-0.33349931240081787,0.9341135621070862,0.15006940066814423,0.09802559018135071,0.41393959522247314,-0.02766509513686664,-0.4866731821553726,0.8545209154634333,0.17938215090707674,0.3400129697357028,3.006126909237295,1.058712874264517
1773062428119720960,2.584507942199707,0.4530940055847168,-0.49298834800720215,0.17637234926223755,0.1304415464401245,-0.331646591424942,0.9343420267105103,0.1310025155544281,0.08999320864677429,0.22657686471939087,-0.02557716125397502,-0.4855525472143941,0.8552249616491012,0.17937296359013724,0.3380484055001003,3.0028812768601587,1.056442992110625
1773062428129758976,2.59454607963562,0.9734519720077515,-0.661336362361908,0.22562165558338165,0.13525743782520294,-0.32532262802124023,0.9358795285224915,0.12870433926582336,0.11786416172981262,0.11468803882598877,-0.021544667622804266,-0.48426618759760937,0.8564029550533896,0.17775273199335528,0.3313529062018843,2.9980620539920713,1.0533181449520614
1773062428139795968,2.6045830249786377,1.3198118209838867,-0.6966139078140259,0.2656228840351105,0.14089971780776978,-0.314544677734375,0.9387272000312805,0.10710136592388153,0.1813659965991974,0.07872879505157471,-0.015941819741157836,-0.4826606989692406,0.8581388251894441,0.17430495918778732,0.31997695512645885,2.9926082759053565,1.0487884883292473
1773062428149833984,2.6146209239959717,1.1390652656555176,-0.6485800743103027,0.12516190111637115,0.1466861516237259,-0.30302461981773376,0.9416261315345764,0.023251011967658997,0.1877444088459015,-0.14029526710510254,-0.010157943630156383,-0.48127411665767456,0.859760591998383,0.17053997788582814,0.30786490013946965,2.9870551155821135,1.0446617464290495
1773062428159870976,2.6246578693389893,0.6833826899528503,-0.4638737440109253,-0.04269009083509445,0.15191471576690674,-0.29434075951576233,0.9435495138168335,-0.12823304533958435,0.07031118869781494,-0.21274495124816895,-0.005522500687238977,-0.4806673415106587,0.860658858749716,0.1679131024697784,0.29876565784131953,2.9819591610834775,1.042748085404164
1773062428169908992,2.6346960067749023,-0.034831322729587555,-0.24661491811275482,-0.22168301045894623,0.15565694868564606,-0.29090720415115356,0.944004237651825,-0.23024189472198486,-0.13963481783866882,-0.13954555988311768,-0.0030545271745876135,-0.4809227790429169,0.8606482477151142,0.16729785238204106,0.2951749000235447,2.9781730302635094,1.0434838338377423
1773062428179947008,2.6447339057922363,-0.8346613049507141,-0.016523664817214012,-0.42552801966667175,0.1578269600868225,-0.29449835419654846,0.9425292015075684,-0.25101238489151,-0.34128957986831665,-0.020959436893463135,-0.0032748330021110123,-0.48221908990555645,0.8594936626895958,0.16948349351594147,0.2989305478480556,2.975681458178328,1.047615326456049
1773062428189984000,2.654771089553833,-1.4927006959915161,0.11646580696105957,-0.49308815598487854,0.15873563289642334,-0.30498364567756653,0.9390358924865723,-0.19936974346637726,-0.42640069127082825,0.10884642601013184,-0.005982804783101934,-0.48425466526662697,0.8573303695878399,0.17448888356365855,0.30992125115022207,2.974134638942507,1.0545498338368755
1773062428200022016,2.664808988571167,-1.867793321609497,0.12451574206352234,-0.4487031102180481,0.15892332792282104,-0.32015448808670044,0.933940589427948,-0.06012262403964996,-0.3257959187030792,0.24321424961090088,-0.01028310433151795,-0.4863604254109561,0.854648361168949,0.18145000908491626,0.3258925622221705,2.9730428287152013,1.062517037952038
1773062428210059008,2.6748459339141846,-1.8387435674667358,-0.14125573635101318,-0.3604808449745178,0.1602507382631302,-0.3371158540248871,0.9277243614196777,0.10010996460914612,-0.08135643601417542,0.37423175573349,-0.014517454343742933,-0.48797499259023375,0.8519052641991085,0.18954427413333827,0.34385172299230254,2.9705452366542153,1.0701362431900834
1773062428220097024,2.6848840713500977,-1.305817723274231,-0.4534531831741333,-0.1928757280111313,0.16402670741081238,-0.3515152037143707,0.9217008352279663,0.21548989415168762,0.14720001816749573,0.1533876657485962,-0.01688549072152414,-0.4887897682460681,0.849667578184374,0.197140806453459,0.35918911554270605,2.965475526755154,1.076131380364604
1773062428230134016,2.6949210166931152,-1.1071051359176636,-0.47192835807800293,-0.06569834053516388,0.1689320057630539,-0.36202386021614075,0.9167335033416748,0.2687358260154724,0.35723263025283813,-0.5402994155883789,-0.01753338231372193,-0.4886639412768428,0.8482772651667749,0.20328729700381837,0.37043809811458334,2.9593610021754073,1.0795060140441652
1773062428240172032,2.704958915710449,-0.761618435382843,-0.1795681118965149,-0.2801720201969147,0.1727728545665741,-0.37090951204299927,0.9124557971954346,0.1626153290271759,0.5734394788742065,-0.9584000706672668,-0.018312504023569164,-0.48890414463148335,0.8468769868579905,0.20841480479927565,0.3799882117339561,2.9544588283998525,1.0832156461848919
1773062428250208768,2.714995861053467,0.30455201864242554,0.37363994121551514,-0.3391037881374359,0.17305472493171692,-0.3724896013736725,0.911758303642273,-0.1038866639137268,0.5118176937103271,-0.4251709580421448,-0.018991225499260602,-0.4904176961008107,0.8457952601284949,0.20918912277325466,0.38169023805951136,2.9540205727397253,1.0872543268608317
1773062428260247040,2.72503399848938,1.1343662738800049,0.3759595453739166,-0.05004693940281868,0.16996248066425323,-0.3655022978782654,0.915161669254303,-0.11391696333885193,0.15958496928215027,-0.04760795831680298,-0.018782024311855734,-0.4918099228597176,0.8459928079961146,0.20510098762212842,0.37417237540456444,2.957966216088674,1.0880275858187727
1773062428270284032,2.7350709438323975,0.789456307888031,-0.07338947802782059,0.17886772751808167,0.16810791194438934,-0.3559599816799164,0.9192565083503723,0.11941349506378174,-0.12099933624267578,0.009622454643249512,-0.01698264636431713,-0.4917013737232177,0.8472650123568669,0.20020843055295762,0.3639411288639824,2.960717516016972,1.0850457565929
1773062428280322048,2.7451090812683105,0.11442429572343826,-0.4094562828540802,0.06536420434713364,0.1702125519514084,-0.35230758786201477,0.9202755689620972,0.2342979460954666,-0.18164321780204773,-0.13818633556365967,-0.0149006392288743,-0.490924182835152,0.8480160611709404,0.1990984798670805,0.36003563703400515,2.958701264164256,1.082908205489147
1773062428290360064,2.7551469802856445,0.1393006145954132,-0.2712177336215973,0.09201446175575256,0.17334426939487457,-0.35163822770118713,0.9199469685554504,0.06992660462856293,-0.17768916487693787,0.07448363304138184,-0.013213717153558522,-0.49031314631574974,0.8482726537849803,0.19962950308761365,0.35932050541985466,2.9553478411696816,1.0821126830422425
1773062428300396800,2.765183925628662,0.13000734150409698,-0.05562366545200348,0.3181424140930176,0.1740761399269104,-0.35060063004493713,0.9202046394348145,-0.1166725903749466,-0.23530632257461548,0.01843971014022827,-0.012375006408393901,-0.48928381305882257,0.8489426734491666,0.19936024535615243,0.35821235497487985,2.9546308280600457,1.079633285113101
1773062428310435072,2.775222063064575,-0.08911436051130295,0.17664526402950287,0.26677030324935913,0.17246021330356598,-0.3509189486503601,0.9203879833221436,-0.165532648563385,-0.17825597524642944,-0.004433035850524902,-0.012865594950659412,-0.48800890650221496,0.8497301322729802,0.19909962398861447,0.3585522815667858,2.9563628219944,1.0762928163824392
1773062428320472064,2.7852590084075928,-0.012887942604720592,0.1546880155801773,0.1145075187087059,0.17019540071487427,-0.351955384016037,0.9204134941101074,-0.18830758333206177,-0.06261065602302551,0.07404756546020508,-0.013985221979807373,-0.4873894595712199,0.8500930835689967,0.1989916729736847,0.35965933904085573,2.9587460700621153,1.0744967257148086
1773062428330509824,2.7952969074249268,0.17978857457637787,0.08445834368467331,0.13046704232692719,0.1685677319765091,-0.35135191679000854,0.9209433197975159,-0.1259651929140091,0.025149524211883545,0.11512839794158936,-0.01444958591226722,-0.48702365955120214,0.8504584781563109,0.19829147710908307,0.3590146923523179,2.960558508595644,1.0730856211559876
1773062428340547072,2.8053340911865234,0.30624499917030334,-0.007028031628578901,0.11402002722024918,0.16784276068210602,-0.34941866993904114,0.9218109250068665,-0.005077272653579712,0.07860571146011353,0.045993030071258545,-0.014133068433707105,-0.4865118643428814,0.8510062605247897,0.19721761635876656,0.3569505864509325,2.9614863213919342,1.0712619619436237
1773062428350585088,2.8153719902038574,0.4050629138946533,-0.08056776225566864,0.06406950950622559,0.1678546518087387,-0.3460920751094818,0.9230626821517944,0.026862725615501404,0.06885519623756409,0.07434314489364624,-0.013155939200554462,-0.486124653474962,0.8515950738719564,0.19569231104087037,0.3534025392702394,2.961712867156804,1.0696088360708171
1773062428360621824,2.825408935546875,0.36915135383605957,-0.0980314388871193,0.014665210619568825,0.16864469647407532,-0.3425847291946411,0.9242266416549683,-0.018437162041664124,0.0028325021266937256,0.07600235939025879,-0.011826135534977387,-0.48587827068065353,0.8520772478310695,0.19428555336758344,0.34966673011082344,2.9611071598484564,1.068445678183033
1773062428370660096,2.835447072982788,0.2845059633255005,-0.13150790333747864,-0.04085184633731842,0.16970646381378174,-0.33960387110710144,0.9251320958137512,-0.06464968621730804,-0.03327518701553345,0.0968865156173706,-0.01056663915396244,-0.48584191570050395,0.8523635872987146,0.19319010883680282,0.3464956955677839,2.9601694372503298,1.067961888716665
1773062428380697856,2.845484972000122,0.2845151722431183,-0.14069141447544098,-0.1150929182767868,0.17120739817619324,-0.3367249369621277,0.9259074926376343,-0.10451120138168335,-0.0531676709651947,0.09693503379821777,-0.009201746637007036,-0.48606410811088735,0.8524643296602671,0.19225417990628674,0.34343654856600647,2.958750170970505,1.0682151028107836
1773062428390734848,2.8555219173431396,0.18774786591529846,-0.19566944241523743,-0.1720006763935089,0.173322394490242,-0.33433324098587036,0.9263807535171509,-0.12000812590122223,-0.08252173662185669,0.09560751914978027,-0.007751243261622328,-0.48652503738376784,0.8523401663878958,0.19170214735701568,0.34089765720547677,2.9566347344945534,1.0692839514576458
1773062428400773120,2.8655600547790527,0.13308653235435486,-0.2550647258758545,-0.1907057911157608,0.17593249678611755,-0.3324953019618988,0.9265497922897339,-0.09477102756500244,-0.10823953151702881,0.17319685220718384,-0.0062584817784443955,-0.4871094617591348,0.8520559027945085,0.19153565200941275,0.3389481773732667,2.9539473284921445,1.0708828808409963
1773062428410810112,2.8755970001220703,0.028533222153782845,-0.4056268036365509,-0.21445026993751526,0.17972776293754578,-0.33144861459732056,0.926196277141571,-0.05719973146915436,-0.11087310314178467,0.1703154444694519,-0.004443407673803401,-0.4876312088751028,0.8516536441708871,0.19204703550355265,0.3378385565038289,2.949925378696691,1.0727973276127034
1773062428420847872,2.8856348991394043,0.1710786074399948,-0.38589826226234436,-0.22138021886348724,0.1842023879289627,-0.3300994634628296,0.9257988333702087,-0.053098902106285095,-0.11464843153953552,0.21305596828460693,-0.002266944838406762,-0.48821428662766747,0.8512028168220795,0.19260154728843007,0.33640894878550687,2.9451916254480084,1.0749550634452167
1773062428430885120,2.895672082901001,0.028959017246961594,-0.4972708523273468,-0.21232280135154724,0.18896038830280304,-0.32867470383644104,0.9253469705581665,-0.08481915295124054,-0.12510642409324646,0.2007516622543335,7.748805615838914e-05,-0.48868473410988095,0.8508000472730453,0.19320076403244812,0.3348999753129654,2.9401572154094877,1.076901817647441
1773062428440922880,2.905709981918335,0.10210016369819641,-0.4124795198440552,-0.281341016292572,0.19415554404258728,-0.3278692364692688,0.9245565533638,-0.09924593567848206,-0.11465081572532654,0.15886294841766357,0.002413024834791374,-0.4893075952439378,0.850209595888768,0.19420543977207178,0.33404725032536187,2.9346018374494065,1.0794599736969352
1773062428450959872,2.9157469272613525,0.18714182078838348,-0.4467719793319702,-0.18003755807876587,0.19871178269386292,-0.3257337510585785,0.9243438243865967,-0.10728111863136292,-0.12185230851173401,0.18909013271331787,0.004825179441037803,-0.4899094552166249,0.849800345757262,0.19443481313728675,0.3317876907011253,2.929839380063995,1.081504697390263
1773062428460998144,2.9257850646972656,-0.18803362548351288,-0.5537664890289307,-0.2219710350036621,0.20394888520240784,-0.32519930601119995,0.9233906269073486,-0.05802908539772034,-0.07912808656692505,-0.019429445266723633,0.007180932535269875,-0.49020002326611833,0.8493522587523438,0.1955840364550778,0.3312224756321978,2.9242130883937936,1.083363696858152
1773062428471035904,2.9358229637145996,0.16044314205646515,-0.2676236629486084,-0.2593194842338562,0.2086123675107956,-0.32469603419303894,0.9225255250930786,-0.017267152667045593,-0.00971558690071106,0.052449941635131836,0.009188380613040713,-0.4908768761598639,0.8487064683834641,0.19660316637254846,0.3306903282277225,2.91920120057099,1.0860046022522363
1773062428481072896,2.945859909057617,0.256244421005249,-0.7117145657539368,-0.15010696649551392,0.2132861167192459,-0.32196491956710815,0.9224139451980591,0.0753338634967804,-0.023951798677444458,0.028406918048858643,0.011843181023039419,-0.4913206806233844,0.8484167379998653,0.19660297351338124,0.3278041771036846,2.9143601411704996,1.0875636994268632
1773062428491111168,2.9558980464935303,0.31607764959335327,-0.4449358880519867,-0.08090125769376755,0.22062867879867554,-0.3216070532798767,0.9208105206489563,0.18906980752944946,-0.03221374750137329,-0.13867545127868652,0.015154205199858337,-0.4912322137871223,0.8479953800834059,0.19840645900119036,0.32742622079394734,2.9064233717037076,1.0891224430312378
1773062428501147904,2.965934991836548,0.2354455590248108,-0.16159763932228088,-0.014908128418028355,0.2214091420173645,-0.31885555386543274,0.9215797781944275,0.246043860912323,0.006737023591995239,0.4962822198867798,0.016201936383710456,-0.49131878078738456,0.8481720047917595,0.1973515898946459,0.3245217717776809,2.9058117137064614,1.088843901341462
1773062428511185920,2.975972890853882,-0.42172589898109436,-1.605970859527588,-0.08375723659992218,0.22999714314937592,-0.31917351484298706,0.919363796710968,0.5584244728088379,0.20377129316329956,-0.32359957695007324,0.020068553495757806,-0.49041693129538033,0.8480407594025826,0.19978841288041116,0.3248572631404233,2.896454095645312,1.088981030551936
1773062428521223168,2.9860100746154785,0.6088403463363647,-1.6915758848190308,-0.11198300868272781,0.247067391872406,-0.31716904044151306,0.9156206846237183,0.4978055953979492,0.06579583883285522,0.0011119842529296875,0.028363302667112362,-0.48905164647473975,0.8477256719560844,0.20343331907639547,0.32274292385931713,2.87803369879543,1.0896670065634728
1773062428531260928,2.9960479736328125,0.5871049761772156,-0.9477111101150513,0.09226839244365692,0.2587544918060303,-0.3111077845096588,0.9144712686538696,-0.09341034293174744,-0.2690465748310089,0.44572752714157104,0.0353298352998647,-0.4879203895985568,0.8480385169701988,0.20375494440886496,0.3163584431079544,2.8658455949021566,1.0884555208625355
1773062428541297920,3.00608491897583,-0.30981209874153137,-0.5421677231788635,0.3535163700580597,0.26416441798210144,-0.31237292289733887,0.9124912023544312,-0.5106549263000488,-0.19185373187065125,-0.13711589574813843,0.03780657215634822,-0.48608776071893334,0.8485070991516276,0.20573047947264556,0.317689927594205,2.8597983065969124,1.0859055116151652
1773062428551335936,3.016123056411743,-0.18021896481513977,-0.21306627988815308,0.2671111822128296,0.2670820355415344,-0.3140929639339447,0.9110499620437622,-0.5685499906539917,0.06996768712997437,0.049398839473724365,0.039091108269936205,-0.48421483625328277,0.8491530991707128,0.20723587252489287,0.3195011312939806,2.856424230808283,1.0827410965643054
1773062428561373952,3.026160955429077,0.5219247341156006,-0.3044305741786957,0.09871257841587067,0.26882204413414,-0.3128279447555542,0.9109737873077393,-0.4495624303817749,0.07524862885475159,-0.019601166248321533,0.0403952664091521,-0.4833452327394952,0.8496259666398736,0.20707798424758145,0.3181689599383448,2.854643693439716,1.0808117047981538
1773062428571410944,3.0361979007720947,0.29522719979286194,-0.5027177929878235,0.02512197755277157,0.27191805839538574,-0.3109498918056488,0.9106979966163635,-0.21556735038757324,0.020910829305648804,-0.00228118896484375,0.042444532826193114,-0.48251113873302026,0.8500188146256206,0.20700119593257452,0.31619231829094363,2.8514372356470314,1.07915979462812
1773062428581448960,3.046236038208008,-0.16555045545101166,-0.6002422571182251,0.09966012835502625,0.2769402861595154,-0.3088377118110657,0.9099031090736389,-0.018532663583755493,-0.050964564085006714,0.1697174310684204,0.0454181839980254,-0.4816047850278663,0.8502990003129882,0.20732998072071007,0.3139707721608491,2.846138480314107,1.0777875049155636
1773062428591485952,3.0562729835510254,0.31653550267219543,-0.5888897180557251,0.16237837076187134,0.282507985830307,-0.3084236979484558,0.9083308577537537,-0.023535728454589844,-0.15501633286476135,0.2212013602256775,0.048235299659207725,-0.48053363162292356,0.8504427487612218,0.20858609985616874,0.31353550694597154,2.840057760793745,1.0766502458822502
1773062428601523968,3.0663108825683594,-0.08652704954147339,-0.6255322694778442,0.28827038407325745,0.28667691349983215,-0.30951395630836487,0.9066516160964966,-0.12371310591697693,-0.15438368916511536,0.11646527051925659,0.05019923279330784,-0.4788708044824927,0.8508869334448376,0.21012888531642845,0.3146818416298348,2.835346873513349,1.0741797986999064
1773062428611560960,3.076348066329956,-0.48722171783447266,-0.38071346282958984,0.17675557732582092,0.290605753660202,-0.31177011132240295,0.9046260118484497,-0.21037495136260986,0.02661380171775818,-0.1011132001876831,0.05174814140501116,-0.4772734772059196,0.8511891916588828,0.2121538609896873,0.31705543559265786,2.8307616130261155,1.0721489694466004
1773062428621598976,3.08638596534729,0.303963840007782,-0.3394085168838501,0.04064048454165459,0.29394856095314026,-0.31269946694374084,0.9032240509986877,-0.27498185634613037,0.19421494007110596,-0.11796081066131592,0.053155739701694744,-0.4765913813563694,0.8511596048399175,0.2134538497205728,0.31803368087073225,2.826959500410497,1.0717404182519088
1773062428631635968,3.0964229106903076,0.4205285608768463,-0.4868179261684418,0.1382083147764206,0.29691317677497864,-0.3109204173088074,0.9028681516647339,-0.19878393411636353,0.16739627718925476,-0.14697837829589844,0.05514641191566257,-0.4756922223989725,0.8515579812802035,0.21336531284166907,0.31616131028167066,2.8238775383270833,1.069931644096433
1773062428641673984,3.1064610481262207,0.1452164351940155,-0.4259920120239258,0.17140476405620575,0.30059146881103516,-0.30790165066719055,0.9026859998703003,-0.030327677726745605,0.0839788019657135,-0.22858291864395142,0.05787718064945441,-0.4743599116341262,0.8522474193809046,0.21285536783171652,0.31298674309883845,2.8201450893772706,1.0669401487081085
1773062428651712000,3.1164989471435547,0.40685710310935974,-0.4259334206581116,0.1864662617444992,0.30413705110549927,-0.30533072352409363,0.902371346950531,-0.01005437970161438,0.00018543004989624023,-0.17457282543182373,0.06040717430481885,-0.47313383696323297,0.8528364638172499,0.2125214425019978,0.31028570946085765,2.8165080038164465,1.0642908393607347
1773062428661748992,3.1265358924865723,0.06215398758649826,-0.6151309013366699,0.17934775352478027,0.30811506509780884,-0.30524736642837524,0.9010486602783203,-0.04108631610870361,-0.03722083568572998,-0.11508393287658691,0.06255205012672338,-0.4716943555280773,0.8532460194795153,0.21345442483497676,0.31019819554180805,2.8121057801378724,1.0619928314221347
1773062428671787008,3.1365740299224854,-0.053415484726428986,-0.47792643308639526,0.2114553600549698,0.31231939792633057,-0.30500528216362,0.8996824622154236,-0.07000979781150818,-0.005480587482452393,0.11975729465484619,0.06483930454974633,-0.47026343265826315,0.8536354869933798,0.21437041738198348,0.3099439770410036,2.8074643934212054,1.0597380696848255
1773062428681824000,3.146610975265503,0.19644011557102203,-0.44818544387817383,0.2651829123497009,0.3162200152873993,-0.3047885596752167,0.8983924984931946,-0.1683165729045868,-0.027212172746658325,0.0774223804473877,0.0670179943615056,-0.4687170576131768,0.8541080607092842,0.2152031672662611,0.3097164242300353,2.803151230838481,1.0571425006867194
1773062428691861760,3.156648874282837,0.22770828008651733,-0.25477710366249084,0.30690398812294006,0.3183652460575104,-0.30489230155944824,0.8975991606712341,-0.25200480222702026,-0.04117700457572937,0.002684652805328369,0.06835916592666451,-0.4670850858720906,0.8547696149251439,0.21570221195467856,0.30982534243399795,2.800749934280097,1.0539561415176664
1773062428701899008,3.1666860580444336,-0.07549615204334259,-0.18687155842781067,0.4253012239933014,0.318813294172287,-0.30444905161857605,0.8975904583930969,-0.29348376393318176,0.006078749895095825,-0.06871789693832397,0.06914845296034185,-0.4651864232765816,0.8558018561587444,0.21546044520964416,0.30935997305973534,2.8003035649219825,1.0495083943775267
1773062428711937024,3.1767239570617676,0.1513684242963791,-0.05052384361624718,0.3332330882549286,0.31917449831962585,-0.305523544549942,0.8970968127250671,-0.24194979667663574,0.1304442286491394,-0.19497907161712646,0.06948742421934564,-0.4634194827812502,0.8566159016777547,0.21592361775412064,0.31048822870116455,2.7997726051200864,1.045806637728287
1773062428721974016,3.186760902404785,0.21457748115062714,-0.1601744443178177,0.42549747228622437,0.31871694326400757,-0.30550509691238403,0.8972657918930054,-0.18288323283195496,0.10855993628501892,-0.14625883102416992,0.06972588150715046,-0.4616774377430747,0.8576052973871356,0.21565096850494678,0.31046883826236665,2.8002848038246637,1.041607755427078
1773062428732012032,3.1967990398406982,0.03884800150990486,-0.11750207841396332,0.48049309849739075,0.3184838593006134,-0.30536848306655884,0.8973953127861023,-0.0797295868396759,0.003458082675933838,-0.22005760669708252,0.07021518680089106,-0.45944717726837075,0.8588398809461089,0.21534212618520968,0.310325361822492,2.8005609695837728,1.0363040797562815
1773062428742050048,3.2068369388580322,0.1600748747587204,-0.0426332987844944,0.4206935167312622,0.3180284798145294,-0.3059729039669037,0.8973507881164551,-0.07344534993171692,-0.0021478235721588135,-0.10885286331176758,0.07413641024024188,-0.44226773484005427,0.8677987384006062,0.21407566359981728,0.31096016929645676,2.8009961151382687,0.9965607367020993
1773062428752086784,3.21687388420105,0.06547193229198456,-0.02077593468129635,0.41752490401268005,0.31690147519111633,-0.3064820170402527,0.8975755572319031,-0.17838221788406372,0.020593374967575073,-0.0333026647567749,0.07397084594615448,-0.4403745003296704,0.8688256961846529,0.21387015590315717,0.311494991441181,2.8021909790963333,0.9920408990679528
1773062428762125056,3.226912021636963,-0.141763374209404,0.20059587061405182,0.35494673252105713,0.31509315967559814,-0.30812445282936096,0.8976501226425171,-0.23298561573028564,0.07435980439186096,-0.01482236385345459,0.07315554735422322,-0.4387786688359816,0.8696541423726092,0.21406363165012193,0.3132209427313392,2.804009413711665,0.9883568893829892
1773062428772162048,3.2369489669799805,-0.0761587917804718,0.34382227063179016,0.45310258865356445,0.311106413602829,-0.3097973167896271,0.8984646201133728,-0.2651316821575165,0.10798457264900208,0.08496439456939697,0.0712840188510273,-0.43741758670856834,0.8705734647038681,0.21374364916475028,0.31497986978594433,2.808249526586888,0.9846272277908679
1773062428782199808,3.2469868659973145,-0.35172438621520996,0.34451401233673096,0.34885409474372864,0.3071058392524719,-0.31385505199432373,0.8984324336051941,-0.2452009618282318,0.13612070679664612,-0.23433953523635864,0.06886651573403085,-0.4359880558575173,0.8712810312042456,0.2145719960175302,0.31925054519920953,2.8122200002775566,0.9814325340015458
1773062428792237056,3.257024049758911,0.08370273560285568,0.6871280670166016,0.28826451301574707,0.30111536383628845,-0.3156730830669403,0.8998221755027771,-0.18238675594329834,0.2115776538848877,-0.15095138549804688,0.0658800251144607,-0.43531468669077905,0.8720161790330111,0.21388948214077,0.32116593454549963,2.818667694806333,0.9787762530007071
1773062428802274816,3.267061948776245,0.2691183090209961,0.50104159116745,0.35220038890838623,0.2947271168231964,-0.31496432423591614,0.9021826982498169,-0.08778738975524902,0.22882843017578125,-0.22823238372802734,0.06334528795269244,-0.4344556136287493,0.8731206450775396,0.2118869502224892,0.32041904930520504,2.825839931252199,0.9748753791768083
1773062428812311808,3.2770988941192627,0.3991745710372925,0.48485568165779114,0.22888003289699554,0.28941309452056885,-0.3130057752132416,0.904581606388092,0.03321877121925354,0.2469199299812317,-0.16965711116790771,0.0615937063270292,-0.43356646379314173,0.8742487807803597,0.2095603175375398,0.31835618965952744,2.831942879182383,0.970873791560254
1773062428822350080,3.287137031555176,0.36940276622772217,0.5185956358909607,0.21749460697174072,0.28414320945739746,-0.3098520338535309,0.9073336124420166,-0.02988603711128235,0.18405860662460327,-0.024734795093536377,0.060050711255531124,-0.4330274883197443,0.8753022358613303,0.20670531358043656,0.31503739805809566,2.8381039945472684,0.9673940082981748
1773062428832387840,3.2971749305725098,0.22575028240680695,0.6032109260559082,0.3122168481349945,0.2782023251056671,-0.3078106641769409,0.9098655581474304,-0.11624565720558167,0.08271309733390808,0.018127858638763428,0.057970280329379856,-0.4323677696988543,0.8763508952252016,0.20422164110039823,0.3128911263736279,2.8448580277035935,0.9638066439336889
1773062428842424832,3.3072118759155273,0.06527344137430191,0.6923190355300903,0.37639743089675903,0.2713194489479065,-0.30748432874679565,0.9120522737503052,-0.1550321877002716,0.005024582147598267,-0.008350372314453125,0.05512742116660391,-0.43143235324769225,0.8774350547471241,0.20232370416071746,0.3125481316808504,2.8524472421008578,0.9598361429664843
1773062428852463104,3.3172500133514404,-0.2578447163105011,0.7631657719612122,0.34448131918907166,0.26344358921051025,-0.3093240261077881,0.9137372374534607,-0.17553779482841492,-0.03184717893600464,-0.12345421314239502,0.051308407492958424,-0.4306067949694383,0.8783202153744903,0.2012429654700856,0.3144821204868313,2.8608907699310877,0.9564456165868427
1773062428862499840,3.327286958694458,-0.05144980549812317,0.8585913181304932,0.337880402803421,0.2549203932285309,-0.3119823634624481,0.9152501821517944,-0.1032785177230835,0.009385287761688232,-0.12365460395812988,0.04695528853840228,-0.4300084207960769,0.8790437115218908,0.20042501967038243,0.31727882914204564,2.8699518970623474,0.953624817207231
1773062428872536576,3.3373236656188965,0.06233082339167595,0.6719050407409668,0.43045374751091003,0.24655398726463318,-0.31262898445129395,0.9173192977905273,0.0488409698009491,0.08454051613807678,-0.06821322441101074,0.043215259647306624,-0.4290527990509461,0.8800984830144801,0.19867790227403823,0.3179594919506551,2.8790214136916115,0.9495402894310442
1773062428882573568,3.347360610961914,0.11148425191640854,0.6314058899879456,0.33563005924224854,0.2395258992910385,-0.3129172921180725,0.9190812706947327,0.13484852015972137,0.16183999180793762,-0.08677530288696289,0.040196601338221054,-0.4279528532747918,0.8811339287294583,0.1970879695045292,0.31826302980317783,2.8866491059273156,0.9453919192509463
1773062428892611840,3.357398748397827,0.20735511183738708,0.6973710656166077,0.3402053713798523,0.23226478695869446,-0.3120734989643097,0.9212291240692139,0.04411764442920685,0.16087418794631958,0.04436224699020386,0.03726419060512657,-0.4271335746580158,0.8821402716318331,0.19492765907042642,0.3173747533164042,2.89461509925134,0.9415795392998813
1773062428902648576,3.3674356937408447,0.028687285259366035,0.7621092796325684,0.3928629755973816,0.2244097888469696,-0.311842679977417,0.9232518672943115,-0.060683056712150574,0.07626226544380188,0.043163299560546875,0.033952460943340174,-0.4261625699175187,0.8831825419241636,0.1929279569905985,0.31713179735134167,2.903152061866474,0.9374548438987879
1773062428912686592,3.3774735927581787,-0.010736019350588322,0.820930004119873,0.39257827401161194,0.21577772498130798,-0.3126971423625946,0.9250189661979675,-0.08459794521331787,0.019255399703979492,0.13540565967559814,0.030033064433327438,-0.42521441517779257,0.8841392348021181,0.1912810316618552,0.3180312511637776,2.9124222710968812,0.9334702927311879
1773062428922724608,3.387511730194092,-0.05862254276871681,0.7955195903778076,0.45508864521980286,0.20687854290008545,-0.31386661529541016,0.926654577255249,-0.08534233272075653,-0.03011220693588257,0.08126455545425415,0.025952601792560887,-0.4241077556062502,0.885132703778527,0.18973427520162114,0.3192627218182986,2.921941515370746,0.9291544354506653
1773062428932761600,3.3975486755371094,-0.19921986758708954,0.7492812275886536,0.43471866846084595,0.19828075170516968,-0.3160480558872223,0.9277923107147217,-0.016914770007133484,0.00588265061378479,-0.012142777442932129,0.021812223081145863,-0.42284354308252187,0.8860583967459223,0.1887541395949822,0.3215611391214361,2.931047499808202,0.924783600555293
