time,seconds_elapsed,rotationRateX,rotationRateY,rotationRateZ,gravityX,gravityY,gravityZ,accelerationX,accelerationY,accelerationZ,quaternionW,quaternionX,quaternionY,quaternionZ,pitch,roll,yaw
1773063088562949888,0.018373727798461914,0.013299811631441116,0.09076333045959473,-0.019729435443878174,-0.09941519051790237,-0.9514341354370117,0.2913578152656555,-0.026912331581115723,0.07699888944625854,0.01926523447036743,-0.01834076364056495,-0.10809223409914277,-0.7962380128860055,-0.5949660401406165,1.2578613951331665,-2.8127668768879426,-0.5100880537259883
1773063088573005824,0.028429746627807617,0.25861507654190063,0.0771719366312027,-0.05750192329287529,-0.09929083287715912,-0.9510337114334106,0.2927049994468689,-0.07176019996404648,0.06936562061309814,-0.005824446678161621,-0.01802736824120503,-0.10768355246529182,-0.7967162347460299,-0.5944093710454464,1.2565632156583522,-2.8145552126157134,-0.5072805266288072
1773063088583060736,0.03848457336425781,0.34478509426116943,0.09230908006429672,-0.09196269512176514,-0.0988105833530426,-0.9502027034759521,0.29555225372314453,-0.023686975240707397,0.048713505268096924,0.02770516276359558,-0.017765031794883864,-0.10717141182642331,-0.7976781383981296,-0.593218531843421,1.2538857487136439,-2.8189496370142386,-0.501810823544529
1773063088593116672,0.048540592193603516,0.39833515882492065,0.13312894105911255,-0.11352124810218811,-0.0981447696685791,-0.9491940140724182,0.2989962100982666,0.008911378681659698,0.030935227870941162,0.042205601930618286,-0.017416440232209868,-0.10643488237216622,-0.7988552518905975,-0.5917759041797043,1.2506647224222127,-2.8244262680626147,-0.49482050322172605
1773063088603171840,0.05859565734863281,0.4028705060482025,0.1264159083366394,-0.08790110796689987,-0.09755577147006989,-0.9480667114257812,0.30274128913879395,-0.004876472055912018,0.014473021030426025,0.031059950590133667,-0.016975810754921935,-0.10565955751722175,-0.8001291816260448,-0.590204326313297,1.2471016575077205,-2.8298578549695725,-0.48769079190133835
1773063088613227776,0.06865167617797852,0.3180679380893707,0.07996141165494919,-0.03626810014247894,-0.09727231413125992,-0.9470047950744629,0.3061371147632599,-0.003008447587490082,0.009855806827545166,0.03668209910392761,-0.016552580776986292,-0.10513173042672924,-0.8012589288223522,-0.588776195124404,1.2437793778210895,-2.8339402020943893,-0.48228805307124584
1773063088623283968,0.07870769500732422,0.17208702862262726,0.05716528743505478,0.0021418724209070206,-0.0973266139626503,-0.9462572932243347,0.3084236681461334,0.015142783522605896,-0.0038619041442871094,0.05095139145851135,-0.01620090772393073,-0.10489107459363106,-0.802003554188382,-0.5878144802861548,1.241460223202248,-2.835921168348925,-0.47948882447305635
1773063088633338880,0.08876276016235352,0.044088251888751984,0.04271166771650314,0.013635070994496346,-0.09755491465330124,-0.9459191560745239,0.30938637256622314,0.02379392832517624,-0.0263555645942688,0.04766926169395447,-0.01592319501918314,-0.10478655038299038,-0.8023172504415711,-0.5874123132908032,1.2404163225654827,-2.8361431006155406,-0.47873146120287813
1773063088643394816,0.09881854057312012,-0.03361799567937851,0.01326909102499485,0.027545293793082237,-0.0978533998131752,-0.9458873271942139,0.3093900978565216,0.0257556214928627,-0.029576659202575684,0.02641013264656067,-0.015737872034885556,-0.10478688764615252,-0.802318360457845,-0.5874158858630325,1.2403183368829183,-2.8352692662632135,-0.4793409140533591
1773063088653450752,0.10887455940246582,-0.08264017105102539,-0.01554323360323906,0.019104856997728348,-0.09806046634912491,-0.9460461735725403,0.30883827805519104,0.02883134037256241,-0.005034267902374268,0.004485756158828735,-0.0157151683599431,-0.10488516148520766,-0.8021335587017789,-0.5876512712131124,1.2408081875288595,-2.834146444394541,-0.4805653611025345
1773063088663505920,0.11892962455749512,-0.12692640721797943,-0.01976114697754383,0.012368658557534218,-0.09815116226673126,-0.9463585615158081,0.3078502416610718,0.021765664219856262,0.0075157880783081055,-0.009098410606384277,-0.015795977513671244,-0.10498932683527176,-0.8018119265526252,-0.5880691660844284,1.2417735684897122,-2.832953540486381,-0.4820101734873185
1773063088673561856,0.12898564338684082,-0.14012914896011353,-0.028923798352479935,0.018837885931134224,-0.09823144227266312,-0.9467543363571167,0.3066047132015228,0.0028334930539131165,-0.0003585219383239746,-0.02141803503036499,-0.01591343019770345,-0.10511275758516953,-0.8014073041237928,-0.588595174675271,1.2430006912675722,-2.8315408268058158,-0.4837515616656291
1773063088683616768,0.13904070854187012,-0.1351543664932251,-0.042156245559453964,0.022203588858246803,-0.09830782562494278,-0.9471626877784729,0.3053171634674072,-0.004444845020771027,-0.0004844069480895996,-0.020191431045532227,-0.016074539908275447,-0.10528837004491332,-0.8009824823937588,-0.5891375944807339,1.2442714242043633,-2.830089300438346,-0.4856697391181524
1773063088693672960,0.14909672737121582,-0.11714863777160645,-0.038530781865119934,0.04119119048118591,-0.0984664037823677,-0.9475186467170715,0.3041590452194214,0.004899509251117706,-2.1576881408691406e-05,-0.0032099783420562744,-0.016221362015153826,-0.10552450581150705,-0.8005898452462358,-0.5896247316565424,1.2453829410928066,-2.828506895472216,-0.4877868874647402
1773063088703728896,0.15915274620056152,-0.08563971519470215,-0.017180485650897026,0.04406474158167839,-0.09880613535642624,-0.947788417339325,0.3032066524028778,0.01770567148923874,0.0038645267486572266,-0.000746995210647583,-0.01625854298286327,-0.10578171069447793,-0.8002584283816908,-0.5900273531157888,1.2462278821869817,-2.826573521977024,-0.49013152414006
1773063088713783808,0.16920757293701172,-0.03444114699959755,0.010622701607644558,0.01945393718779087,-0.09892895072698593,-0.9478732943534851,0.30290135741233826,0.01946118474006653,-0.005404293537139893,-0.00036537647247314453,-0.016273122291614914,-0.10587943019142863,-0.8001501299774693,-0.5901563365542568,1.246494149650879,-2.825910219984581,-0.4909526904133379
1773063088723839744,0.17926359176635742,0.03234640508890152,0.030189476907253265,-0.011470689438283443,-0.09877870976924896,-0.947839617729187,0.30305615067481995,0.013283714652061462,-0.009084939956665039,-0.0008558928966522217,-0.016271303067549026,-0.10576316323464122,-0.8002138666618696,-0.590090885177714,1.246388438602586,-2.8265090368048438,-0.4901857304340998
1773063088733895680,0.18931961059570312,0.06613969057798386,0.02389518916606903,-0.0159442201256752,-0.0984564870595932,-0.9476948976516724,0.30361267924308777,0.006537534296512604,-0.008893847465515137,-0.0008172988891601562,-0.016277475828271024,-0.10554631252009479,-0.8004163419287921,-0.5898548113854297,1.2459347462929542,-2.828009239392644,-0.4883887612994872
1773063088743950848,0.19937467575073242,0.06319689750671387,0.004442661069333553,-0.010444526560604572,-0.09819135069847107,-0.9475271701812744,0.304221510887146,0.006135076284408569,-0.006894826889038086,0.002739548683166504,-0.016297969541937254,-0.10540137738530869,-0.8006255723066182,-0.5895961623700935,1.245409651430088,-2.8293856586306467,-0.48684090364324095
1773063088754006784,0.20943069458007812,0.03567385673522949,-0.004075446631759405,-0.01818578690290451,-0.09803888201713562,-0.9474407434463501,0.3045400381088257,0.004960261285305023,-0.016045093536376953,0.004542022943496704,-0.01632225282528483,-0.10533229660471403,-0.8007341135617779,-0.5894604756440367,1.245139350579378,-2.830144989965876,-0.48602116595362943
1773063088764061952,0.21948575973510742,0.00624379888176918,-0.014636212028563023,-0.028789695352315903,-0.09782753139734268,-0.9474524855613708,0.30457183718681335,0.006290063261985779,-0.018841028213500977,0.0059902966022491455,-0.016407344647612444,-0.10527193086975925,-0.8007519861728326,-0.5894446771650347,1.2451759667377675,-2.8308043693864415,-0.48539699677566495
1773063088774117632,0.22954154014587402,-0.02141266129910946,-0.01613369584083557,-0.029242150485515594,-0.09746108949184418,-0.9475205540657043,0.30447694659233093,0.011798247694969177,-0.017399489879608154,0.00544428825378418,-0.01657965726133847,-0.10518834981670754,-0.8007333374569495,-0.58947999364827,1.24538885658998,-2.831804897211993,-0.48452073683845365
1773063088784173824,0.23959755897521973,-0.024535484611988068,-0.005698629654943943,-0.019718419760465622,-0.09699799120426178,-0.9476379752159119,0.30425867438316345,0.01176239550113678,-0.010354399681091309,0.007890284061431885,-0.01678905347712953,-0.10506309000920408,-0.8006816338781201,-0.5895665274126123,1.2457564748007508,-2.8329776469322923,-0.4834634579525583
1773063088794228736,0.24965262413024902,-0.02304944023489952,0.002174011431634426,-0.009351110085844994,-0.09665923565626144,-0.9477571845054626,0.3039952516555786,0.009058535099029541,-0.004253804683685303,0.004522174596786499,-0.016930472078501957,-0.10494676744218455,-0.8006146372665492,-0.5896742005226256,1.2461299075257253,-2.8337386003595495,-0.48273331572304234
1773063088804284928,0.2597086429595947,-0.006599627435207367,0.009153091348707676,-0.000648432644084096,-0.09649840742349625,-0.9478379487991333,0.3037945032119751,0.009782709181308746,0.0070421695709228516,0.0029376447200775146,-0.016983222209544967,-0.10486565199370529,-0.8005625848915205,-0.5897577921003742,1.2463832042913183,-2.8340286183678423,-0.4823988949879743
1773063088814340864,0.26976466178894043,0.028741151094436646,0.03684747964143753,-0.00270763598382473,-0.09649750590324402,-0.9478301405906677,0.3038201332092285,0.011322945356369019,0.007110297679901123,0.0020270943641662598,-0.01692218052811222,-0.10478414777757113,-0.8005812553639329,-0.589748876362716,1.2463586901161505,-2.8340556354173905,-0.4821676966410496
1773063088824395776,0.2798197269439697,0.08794961124658585,0.080785371363163,-0.010918693616986275,-0.09656479209661484,-0.9476621747016907,0.3043217957019806,0.013175509870052338,0.005142033100128174,-0.003098011016845703,-0.0166899778575465,-0.10456777354943399,-0.8007661860116803,-0.5895426761388769,1.2458320989628533,-2.834330435736358,-0.4812548275908079
1773063088834451968,0.28987574577331543,0.14499761164188385,0.08365335315465927,-0.03330293670296669,-0.09657251089811325,-0.9473305940628052,0.30534982681274414,0.012847527861595154,0.013691067695617676,-0.00806283950805664,-0.016372702496816337,-0.10422903746526252,-0.8011312106789693,-0.5891154595540706,1.244795205418402,-2.835278314201011,-0.47937798118750946
1773063088844506624,0.2999305725097656,0.19320429861545563,0.08831228315830231,-0.06198251619935036,-0.09630853682756424,-0.9468612670898438,0.3068850636482239,0.008463695645332336,0.01247406005859375,-0.006073355674743652,-0.016108617072015885,-0.10377412422611725,-0.8016691745976884,-0.5884708883155599,1.2433328996347655,-2.837500138877038,-0.4761426396468477
1773063088854562816,0.30998659133911133,0.21778197586536407,0.09207696467638016,-0.055883366614580154,-0.09587723761796951,-0.9463013410568237,0.30874156951904297,-0.003060750663280487,0.0068176984786987305,-0.013651847839355469,-0.015867330196856794,-0.10323374479059183,-0.8023176325894484,-0.587688235993907,1.241596577497962,-2.840492550469554,-0.47205034931993883
1773063088864618752,0.32004261016845703,0.2094918191432953,0.08667074888944626,-0.03635920211672783,-0.09560171514749527,-0.9456849098205566,0.31070974469184875,-0.003824561834335327,0.00617063045501709,-0.01555892825126648,-0.015576223237654362,-0.10276488919317088,-0.8029908115468268,-0.5868582322629043,1.2396950661121224,-2.843097486033466,-0.46837904301344435
1773063088874673920,0.33009767532348633,0.17416733503341675,0.05818072706460953,-0.03337659686803818,-0.09541857242584229,-0.9451332688331604,0.3124391734600067,0.0019889846444129944,0.0041084885597229,-0.009262621402740479,-0.015321219060356986,-0.1024026801004906,-0.8035753073252302,-0.5861276280226612,1.2380022335880017,-2.845190142523433,-0.4654219153986975
1773063088884729856,0.34015369415283203,0.14185892045497894,0.05621744692325592,-0.04610757157206535,-0.09513141214847565,-0.9446971416473389,0.3138427734375,0.01123858243227005,-0.008137941360473633,-0.002532958984375,-0.015169098158276285,-0.1020651736642575,-0.8040547761905867,-0.5855326556337196,1.2366698294141676,-2.8472777069971915,-0.4626487520344035
1773063088894785792,0.35020971298217773,0.14801843464374542,0.07544776797294617,-0.05552084743976593,-0.09475521743297577,-0.9443296790122986,0.31506073474884033,0.017683088779449463,-0.016333281993865967,-0.0012789666652679443,-0.015026113060213826,-0.10164830865279674,-0.8044861665678421,-0.585016229747964,1.235551184586954,-2.8494458835740266,-0.4596910453071326
1773063088904840704,0.36026453971862793,0.21754078567028046,0.1217082068324089,-0.06780627369880676,-0.09436241537332535,-0.9438714981079102,0.31654828786849976,0.020250476896762848,-0.013343095779418945,0.002406209707260132,-0.014773104109331508,-0.1010868998115857,-0.8050189910807175,-0.5843866735182275,1.2341612216045845,-2.851881702386581,-0.45610270826772303
1773063088914896640,0.37032055854797363,0.3049063980579376,0.15705925226211548,-0.012650362215936184,-0.09420207887887955,-0.9431450963020325,0.31875237822532654,0.014215506613254547,-0.0018315911293029785,0.0009649693965911865,-0.014275952209377033,-0.10044365538420505,-0.8057836331364663,-0.5834551580658498,1.2319690094152058,-2.8542383751717657,-0.4521348544393829
1773063088924952832,0.38037657737731934,0.27612748742103577,-0.058985158801078796,0.295947402715683,-0.09637674689292908,-0.9421247243881226,0.32111114263534546,0.040163375437259674,0.03003072738647461,0.009562104940414429,-0.013186104499894687,-0.10098776309245312,-0.8064471722235653,-0.5824692972306629,1.2289123346284547,-2.850011846267574,-0.4556189215016266
1773063088935007744,0.39043164253234863,0.12778843939304352,-0.11261799186468124,0.4453791677951813,-0.09958504140377045,-0.9409902095794678,0.32345083355903625,0.10607001930475235,0.04526865482330322,0.06116226315498352,-0.012427781437032284,-0.10287680399530251,-0.8069335647783026,-0.5814810593250357,1.2255444207887558,-2.8429194572666603,-0.46438843055029716
1773063088945063936,0.40048766136169434,-0.4332520067691803,-0.104912668466568,0.29804351925849915,-0.10300007462501526,-0.9414572715759277,0.32101237773895264,0.04715290665626526,-0.022882819175720215,0.07026872038841248,-0.011734283075488194,-0.10464003519055191,-0.8059507794142352,-0.5825427227650959,1.2269270996545134,-2.8311096836624388,-0.47771864855263096
1773063088955118848,0.41054272651672363,-0.6442387104034424,-0.17395074665546417,0.05681205540895462,-0.10415104031562805,-0.9429722428321838,0.31615835428237915,0.014566704630851746,-0.14044755697250366,0.044620513916015625,-0.012057137500861107,-0.10566461243881092,-0.8043097426487488,-0.5846157192695434,1.2314494210234639,-2.8233620653204383,-0.48734146597963335
1773063088965175040,0.42059874534606934,-0.5185556411743164,-0.26452749967575073,0.19801738858222961,-0.10418497025966644,-0.9448144435882568,0.3105982542037964,0.12113748490810394,-0.042474985122680664,0.006891369819641113,-0.013119338336208331,-0.10668430310977624,-0.8024447605736598,-0.5869657414238771,1.2370276741680952,-2.8179534043687973,-0.49566631007164375
1773063088975230976,0.43065476417541504,-0.27867692708969116,-0.16375643014907837,0.5006539225578308,-0.10709480196237564,-0.9456343054771423,0.3070935606956482,0.22019295394420624,0.07035970687866211,0.0626116693019867,-0.013084765229221494,-0.10880851747654376,-0.8010664729561989,-0.5884573136229218,1.239539459248698,-2.8060437047225166,-0.5105471241816671
1773063088985285632,0.44070959091186523,-0.06424747407436371,-0.04591768980026245,0.447215735912323,-0.11136449873447418,-0.9456284642219543,0.30558985471725464,0.22641578316688538,0.044963061809539795,0.046995073556900024,-0.01214830126350914,-0.1110213494291508,-0.8002931846285073,-0.58911598925699,1.239521462355719,-2.792125523802136,-0.5263031412771615
1773063088995341824,0.45076560974121094,-0.04902315139770508,-0.06605001538991928,0.4779241681098938,-0.11546135693788528,-0.9452289938926697,0.30530497431755066,0.17214776575565338,-0.06725281476974487,0.05196431279182434,-0.011026909518448662,-0.11294101158382398,-0.7999355089092803,-0.5892588907123424,1.2382954734243288,-2.7800337483522997,-0.5395622837902115
1773063089005396736,0.46082067489624023,-0.22628262639045715,-0.2508411705493927,0.7501631379127502,-0.12074267864227295,-0.9449212551116943,0.3042120039463043,0.25556933879852295,-0.08580988645553589,0.07568606734275818,-0.009919962862402987,-0.11581202128159224,-0.7991830732023149,-0.5897419254952869,1.237353853674703,-2.763758913191712,-0.5583908298036684
1773063089015452928,0.47087669372558594,-0.38627174496650696,-0.418580025434494,1.03377103805542,-0.1282779723405838,-0.9447460770606995,0.3016611635684967,0.3482791781425476,-0.11917287111282349,0.0977376401424408,-0.008792907993127472,-0.12042700244255787,-0.7977016499887402,-0.5908401177807495,1.236819127018808,-2.739519926277,-0.5876612285017266
1773063089025508864,0.48093271255493164,-0.4308232367038727,-0.5318173766136169,1.1381070613861084,-0.1372222751379013,-0.9445441961288452,0.2983388900756836,0.390472412109375,-0.16155004501342773,0.05746552348136902,-0.007706465601358636,-0.12620093864179371,-0.7957655249283306,-0.5922592848135189,1.2362037143613307,-2.7104915814729793,-0.6234521900019612
1773063089035563776,0.49098753929138184,-0.4045390188694,-0.6223497986793518,1.237809658050537,-0.1467219889163971,-0.9440992474555969,0.2952103614807129,0.425027072429657,-0.1691209077835083,0.005723446607589722,-0.006766793071185804,-0.13263706445120063,-0.7937333243269715,-0.5935899301417655,1.2348515424462398,-2.680341286123762,-0.66154706060413
1773063089045619712,0.5010435581207275,-0.38177669048309326,-0.7094327211380005,1.3981982469558716,-0.1572096049785614,-0.9432660937309265,0.29246243834495544,0.4729902446269989,-0.145891010761261,-0.016827702522277832,-0.005806151104720329,-0.1398910164894355,-0.7916196851522467,-0.5947563290154073,1.2323332399814246,-2.6483677000309562,-0.70264054299651
1773063089055675648,0.5110995769500732,-0.29550978541374207,-0.8375309705734253,1.6718738079071045,-0.16934706270694733,-0.9417487978935242,0.2905696928501129,0.4681446850299835,-0.18340373039245605,-0.010204702615737915,-0.004554208053350928,-0.14821136981602948,-0.7895050601499779,-0.5955622699845591,1.2277929342735467,-2.6139084211746195,-0.7473856392090691
1773063089065730816,0.5211546421051025,-0.17941221594810486,-0.981990396976471,2.081970453262329,-0.18452034890651703,-0.9391100406646729,0.2898697555065155,0.4826618432998657,-0.17876404523849487,-0.011488467454910278,-0.00273599048945821,-0.15844841676468513,-0.7872921759792325,-0.5958670863502734,1.2200310228479496,-2.5747215677576607,-0.7988913895255141
1773063089075786752,0.5312106609344482,-0.05155065655708313,-1.025216817855835,2.235234260559082,-0.20202110707759857,-0.9352282881736755,0.2907501459121704,0.5341897010803223,-0.18353086709976196,-0.07509768009185791,-0.0002990229740839045,-0.17001624170170532,-0.7851557513526677,-0.5955039009504891,1.20890335789,-2.534346818141822,-0.8527217156537852
1773063089085842944,0.541266679763794,0.09282117336988449,-1.1329877376556396,2.424506902694702,-0.2206290364265442,-0.9302382469177246,0.29322290420532227,0.4946311116218567,-0.2113022804260254,-0.14829492568969727,0.0024168302030198614,-0.18238694064287927,-0.7831643891779947,-0.5944600168027722,1.1950615313987285,-2.4965396348913136,-0.9048577721850269
1773063089095897856,0.5513217449188232,0.22927334904670715,-1.2674413919448853,2.7066962718963623,-0.2409503161907196,-0.9238028526306152,0.2975423336029053,0.4989764094352722,-0.20818579196929932,-0.17194721102714539,0.0055016145654062385,-0.19603967904826272,-0.781242348675773,-0.5926201588356711,1.1778969386402953,-2.4609034974498143,-0.9563070785794414
1773063089105954048,0.561377763748169,0.2632973790168762,-1.2891517877578735,2.9817166328430176,-0.26339468359947205,-0.915816068649292,0.3031570017337799,0.48695120215415955,-0.233933687210083,-0.21100926399230957,0.009181937543216027,-0.21101860072986284,-0.7791339070110073,-0.5902009637818003,1.1575352339705935,-2.4262626202210185,-1.0080176389858346
1773063089116008704,0.5714325904846191,0.30258509516716003,-1.3335611820220947,3.2042078971862793,-0.2877541780471802,-0.9063928127288818,0.30927300453186035,0.4382363259792328,-0.24950635433197021,-0.26015493273735046,0.013563509590045162,-0.22695999856970878,-0.776611651298011,-0.5875198659027796,1.1346652108087774,-2.3922221796607417,-1.0597233092637552
1773063089126064896,0.5814886093139648,0.3864664137363434,-1.3947685956954956,3.3609607219696045,-0.3132131099700928,-0.8953850865364075,0.3165169656276703,0.40172937512397766,-0.27017271518707275,-0.26214995980262756,0.018320850681162352,-0.24376030642992064,-0.7738471379307704,-0.584299443307759,1.1092953024974253,-2.3614409143861317,-1.1091331055996705
1773063089136120832,0.5915446281433105,0.49180057644844055,-1.4901268482208252,3.3554575443267822,-0.33892035484313965,-0.8828498125076294,0.3251298666000366,0.38404056429862976,-0.25463199615478516,-0.27007612586021423,0.023310049897448976,-0.2609955765861373,-0.7710034009698594,-0.5804238008165117,1.0818958921545945,-2.3354302592743603,-1.1543564506649386
1773063089146175744,0.6015996932983398,0.4217709004878998,-1.6086848974227905,3.5562808513641357,-0.36414119601249695,-0.8692246079444885,0.3344401717185974,0.36525505781173706,-0.260109007358551,-0.24702247977256775,0.027863010913711593,-0.27885996105214156,-0.7677611641126793,-0.5761976467699089,1.0536318329558112,-2.3137038920358854,-1.1971541222815045
1773063089156231936,0.6116557121276855,0.6718149185180664,-1.5439354181289673,3.6767942905426025,-0.3901292085647583,-0.853615403175354,0.3451663553714752,0.3669816553592682,-0.24697047472000122,-0.20971408486366272,0.03295963728246932,-0.29736989007834136,-0.7642998965474607,-0.5712533889316274,1.022886958537103,-2.295121192030319,-1.2373725888200542
1773063089166287872,0.6217117309570312,0.9682900309562683,-1.4664065837860107,3.6941113471984863,-0.41612401604652405,-0.8357601165771484,0.35825350880622864,0.32541054487228394,-0.19233113527297974,-0.24279025197029114,0.03898056869632474,-0.31566840424855325,-0.7612359761918777,-0.5651138679820817,0.9895156927220654,-2.2816015054686494,-1.2713090702257273
1773063089176342784,0.6317665576934814,1.2082905769348145,-1.3968706130981445,3.7210323810577393,-0.4416281580924988,-0.8157710433006287,0.37347322702407837,0.2715842127799988,-0.13611799478530884,-0.1840200424194336,0.04576549489622905,-0.333612431888175,-0.7585771934336384,-0.557825196437788,0.9540611067847024,-2.2727732565110585,-1.2993666088446458
1773063089186398720,0.6418225765228271,1.3483057022094727,-1.4075795412063599,3.833465814590454,-0.46679070591926575,-0.7935888171195984,0.3902866542339325,0.22799062728881836,-0.07663536071777344,-0.1329013705253601,0.0531530157692972,-0.3515656970972014,-0.7560058745323986,-0.5495740018324342,0.9166847292992362,-2.267168856165351,-1.3238384396319394
1773063089196453888,0.6518776416778564,1.430822491645813,-1.4679034948349,3.954061508178711,-0.49154096841812134,-0.7692566514015198,0.40820571780204773,0.18740275502204895,-0.029693663120269775,-0.09228771924972534,0.060845344767679804,-0.36988710870200514,-0.7531841600201234,-0.5405507137475904,0.8776769291224258,-2.2638371669083766,-1.3467189088618226
1773063089206509824,0.6619336605072021,1.4203243255615234,-1.4177335500717163,4.06442928314209,-0.5159951448440552,-0.7429065704345703,0.4264262616634369,0.10960769653320312,-0.02285599708557129,-0.10011687874794006,0.06889711361993468,-0.3885248715395111,-0.749841021088216,-0.5310745908892459,0.8374020031329515,-2.2614379003458174,-1.3692290113277565
1773063089216565760,0.6719896793365479,1.3007453680038452,-1.3917940855026245,4.071066856384277,-0.5397913455963135,-0.7153491377830505,0.4437355697154999,0.0165826678276062,-0.02229130268096924,-0.2282204031944275,0.07717060370510359,-0.40701559367805956,-0.7457922622231945,-0.5217058838103991,0.7971236365518356,-2.2588386545875765,-1.3919271082090854
1773063089226620928,0.6820447444915771,1.259863257408142,-1.4773035049438477,3.9874608516693115,-0.5616827011108398,-0.6872236728668213,0.4606912434101105,-0.06177622079849243,-0.06804066896438599,-0.3065468668937683,0.08497362188542765,-0.4252565512272598,-0.7412843478962272,-0.5122830797487963,0.7576603226366785,-2.257732578898022,-1.4139889742510632
1773063089236676864,0.6921007633209229,1.1983814239501953,-1.586466670036316,3.9923269748687744,-0.5814116597175598,-0.6585729122161865,0.47774699330329895,-0.07457894086837769,-0.07598519325256348,-0.4051152467727661,0.09210976355232244,-0.4434193011787699,-0.7363781801850013,-0.5026353445473212,0.7189207564848838,-2.2586306959088454,-1.4355380574725287
1773063089246732800,0.7021565437316895,1.3185869455337524,-1.5316168069839478,4.190105438232422,-0.599796712398529,-0.6283674240112305,0.4953770935535431,-0.020381510257720947,-0.02475452423095703,-0.5483555793762207,0.09924913345483898,-0.46168529837288474,-0.7311191680571867,-0.4924034131307458,0.6794527663456369,-2.2611365991053156,-1.4564332850590993
1773063089256787712,0.7122116088867188,0.9326668381690979,-1.519416093826294,3.391934871673584,-0.6159250736236572,-0.5977737307548523,0.5131303071975708,0.116016685962677,0.03565526008605957,-0.6002885699272156,0.10584218557281987,-0.4796922413400292,-0.7255759861384051,-0.4819048006878467,0.6407211925816286,-2.2653998805376725,-1.476695256008213
1773063089266843904,0.7222676277160645,1.6977299451828003,-2.103950262069702,3.7146382331848145,-0.6269062161445618,-0.5693777203559875,0.5317871570587158,0.21209609508514404,-0.11661159992218018,-0.5907624363899231,0.11072580708009885,-0.49599558271336885,-0.721028402893102,-0.47100554015024365,0.6057486978309321,-2.274286474885062,-1.4925188691939573
1773063089276898816,0.7323226928710938,2.004112482070923,-2.0021517276763916,3.9709012508392334,-0.6370230913162231,-0.5346458554267883,0.5552975535392761,0.20399391651153564,-0.00327223539352417,-0.3254086971282959,0.1168236183561154,-0.5139590528290097,-0.716585571665282,-0.4568407272372535,0.5640885990557905,-2.287758297531405,-1.5065149215409004
1773063089286954752,0.7423787117004395,2.3171656131744385,-1.6794679164886475,3.4928836822509766,-0.6462088227272034,-0.4981369376182556,0.5781641602516174,-0.11523526906967163,0.12597507238388062,-0.2848902940750122,0.1244267816537138,-0.5302898724570085,-0.712653312253065,-0.4420813324422853,0.5214488173028267,-2.3006765120372443,-1.5168968857198992
1773063089297010944,0.7524347305297852,2.757549285888672,-1.6455817222595215,2.9416685104370117,-0.6517903804779053,-0.46226975321769714,0.6012289524078369,-0.22406411170959473,0.11681070923805237,-0.09303492307662964,0.1323237302273218,-0.5436684095480168,-0.7106610571764376,-0.4264692883990347,0.4805531733056182,-2.3158646803593332,-1.5199170341229973
1773063089307065600,0.7624895572662354,3.0703046321868896,-1.481900930404663,2.927724599838257,-0.6551185250282288,-0.4251251518726349,0.6245703101158142,-0.21650922298431396,0.20199593901634216,0.01449817419052124,0.14092358972725286,-0.5553448704213059,-0.7098431070110388,-0.4097014730188496,0.43910014537403286,-2.3323274563640823,-1.5183230765485372
1773063089317121792,0.772545576095581,3.2489733695983887,-1.310308814048767,3.003439426422119,-0.6583464741706848,-0.38523417711257935,0.6466643214225769,-0.22532051801681519,0.23101359605789185,0.03956925868988037,0.15089840737896465,-0.5664205319879856,-0.7088722961422863,-0.39229780774629414,0.39546157845636515,-2.3472429530728065,-1.5160014781607476
1773063089327177728,0.7826015949249268,3.1769206523895264,-1.2336593866348267,2.912594795227051,-0.6608630418777466,-0.34417614340782166,0.6669356226921082,-0.1915845274925232,0.09907418489456177,-0.011845171451568604,0.16141113716468108,-0.576887700684526,-0.7075792431751119,-0.37480490750615664,0.35136118135042804,-2.3607678822097884,-1.5138442216227377
1773063089337232896,0.792656660079956,2.660998582839966,-1.2226721048355103,2.7389347553253174,-0.6617781519889832,-0.305368036031723,0.6846901774406433,-0.11190366744995117,0.005456447601318359,-0.04743713140487671,0.17087841801067638,-0.5867402789825198,-0.7057484820133164,-0.3584070988505432,0.31032489694184934,-2.373209230446026,-1.5134677097643483
1773063089347289088,0.8027129173278809,1.969508171081543,-1.2516899108886719,2.4760146141052246,-0.6607258915901184,-0.27190783619880676,0.6996482610702515,-0.03898119926452637,0.11826705932617188,0.01269310712814331,0.17796722977921745,-0.5961671827813935,-0.7031421139986896,-0.34424354607213836,0.27537499804405297,-2.384798201164526,-1.5165653692196788
1773063089357344256,0.8127679824829102,1.5179023742675781,-1.1412032842636108,2.1768851280212402,-0.6581424474716187,-0.24427606165409088,0.7121643424034119,-0.03588837385177612,0.3283519446849823,0.10321968793869019,0.18284448653916413,-0.6048521013909948,-0.7001686305150304,-0.33239407616905775,0.24677307245496874,-2.3955972954341105,-1.5219618809294833
1773063089367400192,0.8228240013122559,1.2980566024780273,-0.9283818006515503,1.983790397644043,-0.6555430889129639,-0.22051329910755157,0.7222448587417603,-0.11411041021347046,0.4871300458908081,0.15173298120498657,0.18689999022023657,-0.612544574908624,-0.6970735819233955,-0.32240674346645976,0.2223406903225312,-2.404568942191583,-1.528045198211686
1773063089377456128,0.8328800201416016,1.2480429410934448,-0.7724562883377075,1.8244513273239136,-0.6533535122871399,-0.19870340824127197,0.7305107712745667,-0.19500458240509033,0.540042519569397,0.1680639386177063,0.19090674872569702,-0.6193575974585385,-0.6940112120003699,-0.3135269892511116,0.200034763430369,-2.4118917842844168,-1.5338575342649599
1773063089387511296,0.8429350852966309,1.07761812210083,-0.6134194731712341,1.6362848281860352,-0.6515146493911743,-0.17864355444908142,0.737302303314209,-0.20747870206832886,0.4906553328037262,0.1895468831062317,0.19486954958168906,-0.6253308004648201,-0.6910951813779267,-0.3055725412757516,0.17960766040619286,-2.417886421715797,-1.5391077339179133
1773063089397567232,0.8529911041259766,0.6824011206626892,-0.4646991193294525,1.3831089735031128,-0.6500861048698425,-0.16212975978851318,0.7423627376556396,-0.1914515495300293,0.4471333622932434,0.2660755515098572,0.1981007964987593,-0.630523846668196,-0.6882013216960762,-0.29929055636520324,0.16284858823964757,-2.4223670509552946,-1.544718709421163
1773063089407623168,0.8630471229553223,0.3773096799850464,-0.34195828437805176,1.1317230463027954,-0.6490581631660461,-0.15010178089141846,0.745783805847168,-0.16884362697601318,0.4154825806617737,0.31497687101364136,0.20022420091770618,-0.6349352394928038,-0.6853824872067353,-0.2949889920356718,0.15067121445023285,-2.4254289231379684,-1.5508920534330701
1773063089417678080,0.8731019496917725,0.2605142593383789,-0.24287745356559753,0.9334422945976257,-0.6483504176139832,-0.14104685187339783,0.7481626272201538,-0.14097142219543457,0.3816932439804077,0.3078675866127014,0.20172951921668417,-0.638588633608362,-0.6828512863607659,-0.2919312083367941,0.14151875256359908,-2.4275456161104616,-1.5566934222246662
1773063089427734016,0.8831579685211182,0.14910465478897095,-0.07343810051679611,0.7705050706863403,-0.6482873558998108,-0.13394178450107574,0.7495216131210327,-0.12783551216125488,0.4018861651420593,0.32027190923690796,0.20307470961388638,-0.6415371598028936,-0.6805812885188509,-0.28982704846645246,0.13434555046847205,-2.428491819139991,-1.5618549293258737
1773063089437789184,0.8932130336761475,0.0448819063603878,0.15772299468517303,0.6006098985671997,-0.6494882702827454,-0.12876711785793304,0.7493892908096313,-0.15449738502502441,0.43708616495132446,0.3562473654747009,0.2045081022127693,-0.6437239272239784,-0.6784645445619837,-0.28893228936114296,0.12912563968789,-2.427488579638089,-1.566485147296506
1773063089447845120,0.9032690525054932,-0.0720263421535492,0.4042017459869385,0.4294898211956024,-0.6522583365440369,-0.12549464404582977,0.7475360631942749,-0.17411190271377563,0.4238802492618561,0.3853832483291626,0.20617244759940714,-0.645078546042622,-0.6764922046122326,-0.28935255006538413,0.1258264006786152,-2.424155173369512,-1.5704964133544788
1773063089457901312,0.9133250713348389,-0.22245915234088898,0.6288670301437378,0.2794018089771271,-0.6565670967102051,-0.12429390102624893,0.7439562082290649,-0.1500583291053772,0.42336615920066833,0.40149062871932983,0.20795713132926663,-0.6456709798796291,-0.6746014210735423,-0.29116279326673355,0.12461617978208347,-2.418511161271461,-1.5741559582807116
1773063089467956224,0.9233801364898682,-0.34031441807746887,0.8407002091407776,0.17597714066505432,-0.6623513698577881,-0.12491808086633682,0.738705575466156,-0.08560383319854736,0.4544774293899536,0.4272184371948242,0.20986784328048236,-0.6456422168139321,-0.672680386127273,-0.29428326182143333,0.12524526121514315,-2.4106381983977982,-1.5777639811326356
1773063089478012160,0.9334359169006348,-0.44906988739967346,1.029914379119873,0.06970930099487305,-0.6693904399871826,-0.12704969942569733,0.7319663763046265,-0.013028323650360107,0.46417737007141113,0.46418535709381104,0.2118996001563264,-0.6450906516199549,-0.6707020432798846,-0.29852198036962957,0.12739400710595064,-2.4008186353585708,-1.5813970716521561
1773063089488068096,0.9434919357299805,-0.4826696813106537,1.2554649114608765,-0.043763723224401474,-0.6777044534683228,-0.13049739599227905,0.7236620187759399,0.026413679122924805,0.43071413040161133,0.508805513381958,0.2141832109877485,-0.6439085659479089,-0.6687396923797571,-0.3037999708743189,0.13087064285938596,-2.388977587437209,-1.584741352458546
1773063089498123264,0.9535470008850098,-0.35973289608955383,1.4576754570007324,-0.09703822433948517,-0.6873884201049805,-0.1341637223958969,0.7137905955314636,0.039652884006500244,0.3640526533126831,0.5060274600982666,0.21721033991289745,-0.642025938836672,-0.6668568032546116,-0.30971646316334905,0.13456950074678814,-2.375035115473415,-1.5871884411003077
1773063089508179200,0.9636030197143555,-0.17668265104293823,1.5668336153030396,-0.13033440709114075,-0.6980355381965637,-0.13676758110523224,0.7028801441192627,0.05919599533081055,0.2883331775665283,0.4815526008605957,0.22127792335089286,-0.6395676905149281,-0.6651264805486728,-0.3155880943165901,0.13719758700883633,-2.359652658738326,-1.5882465359123479
1773063089518234368,0.9736580848693848,-0.02579246275126934,1.6658002138137817,-0.1522137075662613,-0.7092171907424927,-0.13854512572288513,0.6912428736686707,0.1063576340675354,0.25550371408462524,0.4921984076499939,0.2261547535316292,-0.6365443413273248,-0.6636510695648689,-0.32129849214147044,0.13899221454114827,-2.343360640162657,-1.5878039953970042
1773063089528290304,0.9837141036987305,0.11563816666603088,1.7963662147521973,-0.13614259660243988,-0.7209146618843079,-0.13953620195388794,0.6788310408592224,0.14747416973114014,0.22255930304527283,0.44107240438461304,0.2317099125456457,-0.6332171670717025,-0.6621567309020193,-0.3269479672370902,0.13999302260467078,-2.3261383307908634,-1.586670189728768
1773063089538346240,0.9937701225280762,0.6241920590400696,1.4581273794174194,-0.030927211046218872,-0.7319725155830383,-0.13766475021839142,0.6672811508178711,0.17725467681884766,0.1385955810546875,0.07627946138381958,0.23824128249378165,-0.6297485001243024,-0.6611031612603132,-0.33105947002421415,0.1381033218791164,-2.309994589844174,-1.5832826258510035
1773063089548401152,1.0038249492645264,0.7507119178771973,1.2650777101516724,0.05683566629886627,-0.7408890724182129,-0.1327901929616928,0.658369243144989,0.24244552850723267,0.024788513779640198,-0.06878489255905151,0.2449502992117759,-0.6267188506765206,-0.6606119119017768,-0.3328884397692172,0.13318358033637565,-2.297288717459243,-1.578043027628116
1773063089558457088,1.013880968093872,0.7414653897285461,1.0897738933563232,0.07187473773956299,-0.748871922492981,-0.12731952965259552,0.6503698825836182,0.2627726197242737,0.06443801522254944,-0.2196142077445984,0.25141221869855973,-0.6240041235124184,-0.6601543719016787,-0.3340764431973001,0.12766604087967875,-2.2859137191428243,-1.5727889766678567
1773063089568513280,1.0239369869232178,0.43354541063308716,0.7285037636756897,0.05955628305673599,-0.7547857761383057,-0.1228562593460083,0.644364058971405,0.3026677370071411,0.044639669358730316,-0.356689989566803,0.2564221680200515,-0.6219016366229221,-0.6598639193345192,-0.33476219645079985,0.12316743473424688,-2.2774371552164108,-1.5684331702996623
1773063089578568192,1.033992052078247,-0.23322685062885284,0.5563843250274658,0.18830086290836334,-0.7589821219444275,-0.12129649519920349,0.6397138237953186,0.33915168046951294,0.03705267608165741,-0.24840205907821655,0.2590364193560057,-0.6210729420874688,-0.6588818624557685,-0.3362192410565395,0.1215959200037903,-2.271129177726253,-1.5683280546551077
1773063089588624128,1.0440480709075928,-0.9501897692680359,0.3102424144744873,0.39848631620407104,-0.7621641755104065,-0.12281422317028046,0.6356275677680969,0.32010185718536377,0.023693151772022247,-0.3051527142524719,0.2591523541494373,-0.6220678437066426,-0.6563881232286689,-0.3391552203128418,0.12312508073088813,-2.2659144713433825,-1.5748160998880858
1773063089598680320,1.0541040897369385,-1.8007270097732544,-0.05483967438340187,0.49996301531791687,-0.7635883688926697,-0.1280089020729065,0.6328878402709961,0.28659844398498535,-0.07859514653682709,-0.35525399446487427,0.25608957895751866,-0.6251244367977826,-0.6524288178913398,-0.3434739543195005,0.12836110594256125,-2.262873257636848,-1.5884523269211663
1773063089608734976,1.0641589164733887,-2.4863290786743164,-0.4832610785961151,0.467568039894104,-0.7624697685241699,-0.1380356103181839,0.632128119468689,0.2542605996131897,-0.07786096632480621,-0.32376331090927124,0.24919466767028048,-0.6299600213199804,-0.6474677050334436,-0.3490529024518865,0.13847775990117298,-2.263003401895234,-1.608541644479446
1773063089618791168,1.0742149353027344,-2.6618361473083496,-0.6538606286048889,0.42297032475471497,-0.7593992352485657,-0.15128272771835327,0.6327928900718689,0.23249781131744385,0.021018415689468384,-0.2745315432548523,0.23976735703340016,-0.6356370915460158,-0.642154126508374,-0.3551271932017365,0.1518658139476523,-2.2655036553044825,-1.6318359830811495
1773063089628846080,1.0842700004577637,-2.3054087162017822,-0.6426990628242493,0.4476540982723236,-0.75589919090271,-0.1639479100704193,0.6338275074958801,0.1690310835838318,0.120933398604393,-0.3171160817146301,0.23039278215360248,-0.6411639591457228,-0.6370420073404025,-0.3605625750761051,0.16469140202597016,-2.268580698322603,-1.6542136380411394
1773063089638902272,1.0943260192871094,-1.7895146608352661,-0.5836504101753235,0.5116183757781982,-0.7528201341629028,-0.17337986826896667,0.6349814534187317,0.09074127674102783,0.17571446299552917,-0.3372061252593994,0.22268833282765682,-0.6461427791058935,-0.6324478094866075,-0.36458089996885923,0.17426048157946356,-2.271487347860485,-1.6733662190063194
1773063089648958208,1.104382038116455,-1.4071848392486572,-0.6043388843536377,0.47655150294303894,-0.7499474883079529,-0.17965731024742126,0.6366332173347473,0.020684242248535156,0.16029390692710876,-0.3040221929550171,0.21659834181884194,-0.6505782899855691,-0.6285415740215989,-0.36710830613273193,0.1806380795492573,-2.274653606852343,-1.6890321673446815
1773063089659013376,1.1144371032714844,-1.3749165534973145,-0.6248571276664734,0.3161412179470062,-0.746703028678894,-0.18544228374958038,0.6387844681739807,-0.04611307382583618,0.05963358283042908,-0.2067318558692932,0.21088822155408676,-0.6544526088771627,-0.6253670938980588,-0.36896326701488913,0.18652192843068327,-2.2784592868662217,-1.70233447832845
1773063089669069312,1.12449312210083,-1.5742229223251343,-0.5420453548431396,0.19655942916870117,-0.7433838844299316,-0.19302882254123688,0.6404058933258057,-0.10437893867492676,-0.06269313395023346,-0.05198138952255249,0.20465205858947488,-0.6578686729697106,-0.6224241037950635,-0.37136831419224137,0.19424809322511896,-2.281914040334177,-1.7154217183531253
1773063089679125248,1.1345491409301758,-1.6892814636230469,-0.4990513026714325,0.16984964907169342,-0.7404454946517944,-0.20227362215518951,0.6409569382667542,-0.1369653344154358,-0.1462523639202118,0.04886239767074585,0.19794909318259618,-0.6610443403903634,-0.6192728444128208,-0.3746166799778739,0.20367897485764613,-2.284298685493704,-1.729358387978764
1773063089689180160,1.144603967666626,-1.578477382659912,-0.4049695134162903,0.285592257976532,-0.7379332780838013,-0.2113180011510849,0.6409364938735962,-0.12113672494888306,-0.17056375741958618,0.10053402185440063,0.19142355558200885,-0.6642060401087847,-0.6158722110934624,-0.3780064791120417,0.21292322397507132,-2.2859650428744027,-1.7436572583062515
1773063089699236096,1.1546599864959717,-1.1363743543624878,-0.2895166873931885,0.46310296654701233,-0.736521303653717,-0.21737278997898102,0.640535295009613,-0.07765716314315796,-0.13113795220851898,0.08149528503417969,0.18647324997350698,-0.6673426615488437,-0.6123082777620652,-0.3807362350359472,0.21912208780697592,-2.28660331827858,-1.7569059412624566
1773063089709291264,1.164715051651001,-0.5258548259735107,-0.20024433732032776,0.4879297614097595,-0.7360380291938782,-0.21915431320667267,0.6404836773872375,-0.0371401309967041,-0.08625033497810364,0.018924832344055176,0.18385647718622128,-0.670076423271043,-0.60929421149984,-0.3820404744440923,0.2209476334453277,-2.2868884534562124,-1.766693366028394
1773063089719347200,1.1747710704803467,0.08381582051515579,-0.15666824579238892,0.40560394525527954,-0.7358795404434204,-0.21721771359443665,0.6413252949714661,-0.007635653018951416,-0.04286840558052063,-0.017332255840301514,0.18345032384597493,-0.6719887679326668,-0.6075308552001579,-0.381685004162038,0.21896322489625042,-2.287645428770219,-1.7714015158039418
1773063089729403136,1.1848270893096924,0.5140990018844604,-0.09960602968931198,0.3214304745197296,-0.7357980608940125,-0.21252180635929108,0.6429898738861084,0.036335110664367676,-0.006716519594192505,-0.011642158031463623,0.18479333103311324,-0.6730578979009559,-0.6070321212316621,-0.3799428550638273,0.21415500559958114,-2.288984438014227,-1.7714187068855072
1773063089739458048,1.1948819160461426,0.6934007406234741,0.028492862358689308,0.24322009086608887,-0.7361464500427246,-0.20641154050827026,0.6445795297622681,0.09172201156616211,0.01537148654460907,0.059995055198669434,0.18731724582459808,-0.6734112325644276,-0.6072948794038434,-0.3776539413673308,0.20790608911833905,-2.289973515616897,-1.7685228600288392
1773063089749513984,1.2049379348754883,0.5451896786689758,0.14017970860004425,0.15128085017204285,-0.7371311187744141,-0.20079538226127625,0.6452279090881348,0.11222267150878906,0.02287788689136505,0.08548498153686523,0.19013361979763851,-0.673235978280397,-0.6077559208602761,-0.37581285025237054,0.2021697722132549,-2.2898092746270575,-1.7649055434141083
1773063089759570176,1.214993953704834,0.14909549057483673,0.19956356287002563,0.10395614802837372,-0.7384679913520813,-0.19757172465324402,0.6446940898895264,0.0969122052192688,0.05009552836418152,0.10574841499328613,0.19208531981855007,-0.6729524935469807,-0.6078502914349595,-0.37517487755054757,0.19888019950561545,-2.288501319744615,-1.7629848235894727
1773063089769625088,1.2250490188598633,-0.20811671018600464,0.24730712175369263,0.09774911403656006,-0.7401546239852905,-0.19711163640022278,0.6428980231285095,0.0756344199180603,0.05618150532245636,0.10446208715438843,0.192830747976217,-0.672862190385218,-0.6072112434590302,-0.3759883238031972,0.19841087911367733,-2.285989809628898,-1.7639838722126397
1773063089779681280,1.235105037689209,-0.35362792015075684,0.14519275724887848,0.03784732520580292,-0.7415968775749207,-0.19846397638320923,0.6408165097236633,0.07339930534362793,0.02471219003200531,0.05602174997329712,0.19258659728583336,-0.6729912004989782,-0.6062104352626674,-0.3774944515554252,0.19979047803285124,-2.2834214455386994,-1.7667597655276717
1773063089789736192,1.2451601028442383,-0.16527985036373138,0.026564914733171463,-0.0305037684738636,-0.74217689037323,-0.20029258728027344,0.6395751237869263,0.09376990795135498,0.04692651331424713,0.0007141828536987305,0.191891064939085,-0.6731085637978063,-0.6055678614576832,-0.3786690617999095,0.20165655296309987,-2.2820756925993866,-1.7690129387051607
1773063089799792384,1.255216121673584,0.13148880004882812,-0.04563579708337784,-0.08907242864370346,-0.7419182062149048,-0.20084787905216217,0.6397008895874023,0.08194512128829956,0.11195020377635956,-0.12178713083267212,0.1916576140796048,-0.6729786071901998,-0.6057641869827128,-0.37870415140650937,0.20222335757418786,-2.28234532339718,-1.768727340846588
1773063089809848320,1.2652721405029297,0.5062008500099182,0.014841928146779537,-0.09933438897132874,-0.7415953874588013,-0.1995115578174591,0.6404929161071777,0.047808825969696045,0.16150197386741638,-0.09483867883682251,0.19249166494299377,-0.6724170865575301,-0.6067138800188185,-0.37775708168226213,0.20085943456079544,-2.2831726304013564,-1.7656084327256742
1773063089819903232,1.2753269672393799,0.7788547277450562,0.06500323861837387,-0.15658092498779297,-0.7416506409645081,-0.1962752342224121,0.641428530216217,-0.004427909851074219,0.14421220123767853,-0.05332428216934204,0.19458266568625462,-0.671318133649989,-0.6083142612067878,-0.3760630050406754,0.19755781234648398,-2.283857903541486,-1.7597552595147405
1773063089829959168,1.2853829860687256,1.062590479850769,0.03683657944202423,-0.24739472568035126,-0.7415579557418823,-0.19182850420475006,0.6428794264793396,-0.031040489673614502,0.11973066627979279,0.04953402280807495,0.1974561794903287,-0.6696973845916908,-0.6106923363170282,-0.3735926007428318,0.19302491159314553,-2.2850378638570357,-1.75123887822677
1773063089840015104,1.2954390048980713,1.190837025642395,0.19506987929344177,-0.30412501096725464,-0.7416875958442688,-0.18653638660907745,0.6442853808403015,-0.0284387469291687,0.16926343739032745,0.1687943935394287,0.20107221434739345,-0.6675157072702145,-0.6136493037936024,-0.3707118266524024,0.18763546512491774,-2.28603271070138,-1.7405857420205366
1773063089850070272,1.3054940700531006,1.2748366594314575,0.4268903136253357,-0.3840208947658539,-0.7430882453918457,-0.18113493919372559,0.6442131400108337,-0.06317108869552612,0.2752358317375183,0.19154149293899536,0.20551977375976047,-0.6646192132105161,-0.6167559315513077,-0.3683140196215961,0.18214035029425615,-2.2850432861323435,-1.728803637190234
1773063089860126208,1.3155500888824463,1.43319571018219,0.5986533761024475,-0.42898324131965637,-0.7456805109977722,-0.17547543346881866,0.6427823901176453,-0.10472238063812256,0.20333795249462128,0.2284488081932068,0.2108662898742304,-0.6609664384808905,-0.6200923781748394,-0.36625713550261124,0.17638867573446118,-2.2822203373063537,-1.7155821691381403
1773063089870181120,1.3256049156188965,1.4105286598205566,0.7167219519615173,-0.38599103689193726,-0.7492415308952332,-0.16923940181732178,0.640308678150177,-0.11487895250320435,-0.011119470000267029,0.2506519556045532,0.2169691852353492,-0.6569134373537959,-0.6233931995049036,-0.3643762439589638,0.17005788417504472,-2.277960179005058,-1.701662526628361
1773063089880237056,1.3356609344482422,1.0163664817810059,0.7648534774780273,-0.329387903213501,-0.7534130215644836,-0.16401585936546326,0.6367635726928711,-0.09680682420730591,-0.15412992238998413,0.22592264413833618,0.2227127026275019,-0.6530678027453386,-0.6260065706639744,-0.3633419183234198,0.16476028382603747,-2.2724807641970126,-1.689712805865637
1773063089890293248,1.345716953277588,0.37768593430519104,0.7218990325927734,-0.2614043056964874,-0.7577045559883118,-0.1617584079504013,0.6322324275970459,-0.05114847421646118,-0.20947265625,0.19847124814987183,0.226841516040424,-0.6499725549706129,-0.6274168501823096,-0.3639047394626399,0.16247227167564107,-2.2661667087071833,-1.6822741267927594
1773063089900348160,1.3557720184326172,-0.2416888326406479,0.5845154523849487,-0.1804610639810562,-0.7614628076553345,-0.16307517886161804,0.6273602843284607,0.011935830116271973,-0.25956276059150696,0.15906238555908203,0.22868163339798697,-0.6480103826466567,-0.6275051347006908,-0.3660936807380723,0.16380676290467114,-2.259934530054432,-1.680363263316347
1773063089910404096,1.365828037261963,-0.643145740032196,0.5685255527496338,-0.0522538386285305,-0.7648093700408936,-0.1668485850095749,0.6222766041755676,0.08519816398620605,-0.3167329430580139,0.1590801477432251,0.22875644023619973,-0.6471174134347684,-0.6264003256778305,-0.36950263332259614,0.1676325838825646,-2.2537969107469578,-1.6831912789362067
1773063089920460288,1.3758840560913086,-0.8106540441513062,0.6287000179290771,0.048817262053489685,-0.7685667276382446,-0.1714388132095337,0.6163715124130249,0.1559111475944519,-0.2901853024959564,0.09462696313858032,0.2282434282937699,-0.6468576039391315,-0.6243084175897277,-0.37379025919010495,0.17228992241406824,-2.2467405493376407,-1.6891075235985493
1773063089930515200,1.385939121246338,-0.7670658230781555,0.5333439111709595,0.014982866123318672,-0.772282063961029,-0.1759919375181198,0.6104152798652649,0.2150006890296936,-0.1561918407678604,-0.005816459655761719,0.2275964893603915,-0.6467861896159042,-0.6219929892754911,-0.3781429088378938,0.17691334996520192,-2.2396589777260694,-1.6957145484367444
1773063089940571392,1.3959951400756836,-0.7770380973815918,0.43316492438316345,-0.13293665647506714,-0.7751036882400513,-0.18115496635437012,0.6053078174591064,0.23807042837142944,-0.0026982277631759644,-0.024390339851379395,0.22647860712303014,-0.6465626694734683,-0.6201698253219475,-0.3821696703448405,0.18216072529250682,-2.233805445254744,-1.7015188903107488
1773063089950626048,1.4060499668121338,-0.7144210934638977,0.3388083279132843,-0.1882811337709427,-0.7771262526512146,-0.1870836615562439,0.6008949875831604,0.18339139223098755,0.10789051651954651,-0.08339303731918335,0.22488979672339096,-0.6461418694221068,-0.6188280612854488,-0.38597561469407066,0.18819254129895555,-2.2289977315942973,-1.7065555415541902
1773063089960682240,1.4161059856414795,-0.5202094912528992,0.272769033908844,-0.06987595558166504,-0.7786732912063599,-0.19190551340579987,0.5973612070083618,0.09691047668457031,0.09853692352771759,-0.12301117181777954,0.22354226923102416,-0.6458199655973174,-0.6177355298700811,-0.38903511714339,0.19310337415427992,-2.225185010979392,-1.7107078368126223
1773063089970738176,1.4261620044708252,-0.3939008116722107,0.3006528615951538,0.11013935506343842,-0.7804076075553894,-0.1944122463464737,0.5942791700363159,0.02943110466003418,0.011261016130447388,-0.0916852355003357,0.22300635551906947,-0.6458411267503137,-0.6164647776468266,-0.39131643455631343,0.1956582278058924,-2.2216158973843525,-1.7145015414581524
1773063089980793344,1.4362170696258545,-0.40459680557250977,0.3478626608848572,0.15282614529132843,-0.7826263308525085,-0.1956285536289215,0.5909530520439148,-0.011074841022491455,-0.07812939584255219,-0.06200718879699707,0.22302277244376453,-0.646077979622197,-0.6148656466894318,-0.3934264013258191,0.19689834627333477,-2.2175468459642604,-1.718580961652502
1773063089990849280,1.4462730884552002,-0.5731919407844543,0.30305179953575134,0.08428118377923965,-0.7848271131515503,-0.1975068598985672,0.5873993039131165,0.004492461681365967,-0.19073781371116638,-0.01713240146636963,0.2227347999434545,-0.6463258863791312,-0.6131578112475672,-0.3958405069662779,0.19881403195421746,-2.2133009931468886,-1.7232307799281767
1773063090000905216,1.456329107284546,-0.8424802422523499,0.08788608014583588,0.09566643089056015,-0.7862193584442139,-0.20102760195732117,0.5843348503112793,0.07122302055358887,-0.2636788487434387,0.0457158088684082,0.22124393900897532,-0.646945250792246,-0.6112522199812184,-0.39860226408307187,0.2024068296663883,-2.2099448324309523,-1.7295328625696602
1773063090010960128,1.466383934020996,-1.0920498371124268,-0.29946109652519226,0.19842423498630524,-0.7858982682228088,-0.20563563704490662,0.5831621885299683,0.1537875533103943,-0.22385354340076447,0.137495219707489,0.2180296113115748,-0.6486692663475603,-0.6089411026942628,-0.4011010659010115,0.20711317873431606,-2.2091788045789795,-1.7384547662531737
1773063090021016064,1.4764399528503418,-0.9892635345458984,-0.5106399059295654,0.3540586829185486,-0.7839645743370056,-0.20975400507450104,0.5842970013618469,0.18614047765731812,-0.07190799713134766,0.20276665687561035,0.21377828185189837,-0.6515352841547873,-0.6063417020600794,-0.4026790443204704,0.21132336315595354,-2.211289340328432,-1.7489777846817303
1773063090031071232,1.486495018005371,-0.5352672338485718,-0.350849986076355,0.47832924127578735,-0.782171368598938,-0.21098703145980835,0.5862529873847961,0.08765220642089844,0.10318365693092346,0.09924811124801636,0.21070768242722301,-0.6545624448876677,-0.6038828620194829,-0.4030828925331563,0.21258461079685617,-2.2139901074483856,-1.7579302956512266
1773063090041127168,1.4965510368347168,0.009327373467385769,0.03649870306253433,0.4609107971191406,-0.782215416431427,-0.2087714672088623,0.5869866609573364,-0.08071476221084595,0.2794654965400696,-0.013515651226043701,0.21031489310959586,-0.6566236873526687,-0.6019457328291403,-0.4028327803289006,0.21031857461814876,-2.2145633896882493,-1.7630465431236004
1773063090051183104,1.5066070556640625,0.6350749135017395,0.34428074955940247,0.3591058850288391,-0.7843129634857178,-0.203689843416214,0.585972249507904,-0.19571316242218018,0.3885348439216614,-0.08392757177352905,0.21281256588531547,-0.6571148419910773,-0.6009876838016147,-0.40215003842642727,0.20512531471914217,-2.212448666454131,-1.7630326681183235
1773063090061238272,1.5166621208190918,1.1602427959442139,0.30583375692367554,0.1672070175409317,-0.7868674993515015,-0.1960792988538742,0.5851433277130127,-0.19932341575622559,0.2729225158691406,-0.12481611967086792,0.21746164156840536,-0.6562355689645766,-0.6016033069958573,-0.40017351612493907,0.19735798841892568,-2.210212296603521,-1.7570333185625713
1773063090071294208,1.5267181396484375,0.9867194890975952,0.1714506596326828,-0.027786169201135635,-0.7883787751197815,-0.1890050321817398,0.5854366421699524,-0.1072205901145935,0.1419164091348648,-0.11551177501678467,0.22198565392867714,-0.6547177179032811,-0.603376360017619,-0.3974972700060295,0.1901488154546656,-2.209533588674153,-1.7482257580107914
1773063090081350144,1.536773920059204,0.4072265923023224,0.035035084933042526,-0.0840357169508934,-0.7888641357421875,-0.185352623462677,0.5859503746032715,0.005950927734375,0.1740458607673645,-0.046765804290771484,0.22449066855734454,-0.6535296102110894,-0.6048753967578643,-0.39576350866376053,0.18643068853345948,-2.2096588937490527,-1.742044402756683
1773063090091405056,1.5468289852142334,-0.22518625855445862,-0.056195225566625595,-0.07710271328687668,-0.7886236310005188,-0.1854725033044815,0.5862361192703247,0.0775488018989563,0.1517963409423828,0.04573714733123779,0.22457369319865617,-0.6532147234548606,-0.6053334435720831,-0.3955358745328338,0.1865526835990212,-2.2100382192030237,-1.7408265368598947
1773063090101461248,1.556885004043579,-0.7433525323867798,-0.05574638769030571,-0.05542639642953873,-0.7881180644035339,-0.188949316740036,0.5858056545257568,0.07307583093643188,0.06437653303146362,0.06313544511795044,0.2226073296305962,-0.6536931013386461,-0.6046388599000043,-0.3969171507566091,0.1900920784896846,-2.2099935568995237,-1.7444974697110158
1773063090111516160,1.5669400691986084,-0.9198766946792603,-0.025763457641005516,0.010978457517921925,-0.7878577709197998,-0.19420988857746124,0.584433913230896,0.046097397804260254,-0.006900995969772339,0.02022618055343628,0.21961755701570743,-0.6546463869755573,-0.6030381855502344,-0.399438697004132,0.19545194395903978,-2.2090295772600577,-1.7514237101064734
1773063090121572352,1.576996088027954,-0.7680191993713379,-0.10805787891149521,0.05867043882608414,-0.7875871658325195,-0.1989184021949768,0.5832133889198303,0.03870111703872681,-0.0868176817893982,-0.029990732669830322,0.21670373954805056,-0.6558174528863477,-0.6012571543640663,-0.4017869775315404,0.20025414208453454,-2.2081938366115312,-1.7586914164639336
1773063090131628288,1.5870521068572998,-0.5208102464675903,-0.28794723749160767,0.05531565472483635,-0.7865393161773682,-0.20227986574172974,0.5834711790084839,0.02762824296951294,-0.13046853244304657,-0.07706254720687866,0.2140766315131801,-0.6570924136477647,-0.5999709607184208,-0.4030329437237915,0.20368535208498728,-2.2090421403389917,-1.7643924896104068
1773063090141683200,1.59710693359375,-0.2694048583507538,-0.4162995517253876,0.10815056413412094,-0.7845686674118042,-0.20396940410137177,0.5855323076248169,0.00460052490234375,-0.10216765105724335,-0.048590898513793945,0.21185350350807094,-0.658468784316826,-0.5993204559393353,-0.40292904330778484,0.2054108583334811,-2.211932347683491,-1.768059280900501
1773063090151739136,1.6071629524230957,-0.2173754721879959,-0.3062950074672699,0.14095325767993927,-0.7826051115989685,-0.20428457856178284,0.5880451202392578,-0.036486685276031494,0.014037996530532837,0.04640007019042969,0.2102132908042285,-0.6598848539603153,-0.5988109318851903,-0.4022285610198169,0.20573282495816375,-2.215189265058435,-1.770787958624958
1773063090161795072,1.6172189712524414,-0.04286215826869011,-0.02448706328868866,0.05340753495693207,-0.7818155288696289,-0.2044060230255127,0.5890525579452515,-0.10226356983184814,0.1921226531267166,0.10831993818283081,0.20939664234759015,-0.6606927932053505,-0.5983404648140092,-0.4020284107582,0.20585688453318982,-2.2164966064926928,-1.7726822279509646
1773063090171850240,1.6272740364074707,0.42812851071357727,0.21426479518413544,-0.03269033133983612,-0.7824362516403198,-0.20323625206947327,0.5886327624320984,-0.15355312824249268,0.21638932824134827,0.06783080101013184,0.2103394583483883,-0.6603151759508202,-0.598581873725192,-0.40179710642219857,0.20466203173383296,-2.215772714484575,-1.7712038482023493
1773063090181906176,1.6373300552368164,0.771885871887207,0.298869788646698,-0.11469622701406479,-0.7838724851608276,-0.20017877221107483,0.587769091129303,-0.13766682147979736,0.13848747313022614,0.007766246795654297,0.21303549192973176,-0.6589015303905125,-0.5997777257774579,-0.40091318953058913,0.20154038951947947,-2.2141869665868827,-1.765713753302044
1773063090191961344,1.6473851203918457,0.9324198961257935,0.3022839426994324,-0.18642526865005493,-0.7853226661682129,-0.1962699592113495,0.5871514081954956,-0.07580721378326416,0.0985831469297409,-0.00321274995803833,0.2164925400060544,-0.6569022702504282,-0.6017101469989836,-0.399443852882339,0.19755243026975847,-2.2127957387529893,-1.7576467797802982
1773063090202017280,1.6574411392211914,0.7767245173454285,0.342057466506958,-0.20979969203472137,-0.7868345379829407,-0.19274501502513885,0.5862940549850464,-0.014145076274871826,0.06930141150951385,-0.06284129619598389,0.21993202634896333,-0.6546855540354124,-0.6037663949369911,-0.39809904439613025,0.19395884627008153,-2.2111733939785485,-1.7492629549956211
1773063090212072960,1.667496919631958,0.5563111901283264,0.2601913511753082,-0.17563080787658691,-0.7883066534996033,-0.19035504758358002,0.5850965976715088,0.033423662185668945,0.017259269952774048,-0.13682377338409424,0.22268725517842708,-0.652728375173218,-0.6053874575795598,-0.39731879039784174,0.19152379089079813,-2.2092993327548736,-1.7425992524787082
1773063090222128128,1.6775519847869873,0.2486734837293625,-0.08852328360080719,-0.128806471824646,-0.7885898351669312,-0.18913844227790833,0.5851095914840698,0.07962054014205933,-0.08526042103767395,-0.19451498985290527,0.2240445171464365,-0.6515869812268279,-0.6066211334400445,-0.3965468716496133,0.19028468002351104,-2.2091380582018787,-1.7382150677426567
1773063090232184064,1.687608003616333,-0.35557085275650024,-0.3940992057323456,-0.09191183000802994,-0.7868779301643372,-0.19020286202430725,0.5870655179023743,0.11674243211746216,-0.027158573269844055,-0.19404494762420654,0.22291144087224377,-0.6518400919189524,-0.6071550534328783,-0.39595165253781706,0.19136877989440595,-2.2117770830871843,-1.737957537910576
1773063090242240256,1.6976640224456787,-0.6928275227546692,-0.39384958148002625,-0.19500474631786346,-0.7841561436653137,-0.1945955604314804,0.5892637372016907,0.10100489854812622,0.1506655067205429,-0.10775744915008545,0.219536602526021,-0.6528692252867785,-0.6069544117958555,-0.3964490074317211,0.19584511625392428,-2.21523264797968,-1.741698282286323
1773063090252295168,1.707719087600708,-0.6097206473350525,-0.20748473703861237,-0.3219214081764221,-0.7818479537963867,-0.20060351490974426,0.5903154611587524,0.04925811290740967,0.13766096532344818,-0.09236007928848267,0.2159056527520891,-0.6534055141773939,-0.6068104796420926,-0.3977777367056177,0.20197391467924977,-2.217506251120942,-1.7455504649571822
1773063090262351360,1.7177751064300537,-0.3926636874675751,-0.1077020913362503,-0.3742896616458893,-0.7802627086639404,-0.20635798573493958,0.59042888879776,0.04108130931854248,0.05631834268569946,-0.10938030481338501,0.2131056816655894,-0.6531600269461368,-0.6071214196551176,-0.39921356250852336,0.20785136015161843,-2.2185749803709296,-1.7474760851195374
1773063090272406016,1.727829933166504,-0.2573047876358032,-0.17066825926303864,-0.3719615042209625,-0.7786756157875061,-0.2111821174621582,0.5908182263374329,0.08748304843902588,0.004532366991043091,-0.030576646327972412,0.21089673174476675,-0.6526269594861817,-0.6078545529423526,-0.4001417007023397,0.21278420158057226,-2.2198724075543983,-1.7477594848500353
1773063090282462208,1.7378859519958496,-0.14577841758728027,-0.24432241916656494,-0.3690737783908844,-0.7766420245170593,-0.2153339684009552,0.5919952392578125,0.1062014102935791,-0.0704936534166336,0.09080499410629272,0.2088293136884004,-0.6521241873559639,-0.6088773859851551,-0.4004905315610873,0.2170338027489658,-2.2220913466209704,-1.7471417163727136
1773063090292518144,1.7479419708251953,0.12457236647605896,-0.36194756627082825,-0.282467246055603,-0.7740898728370667,-0.21805565059185028,0.594336986541748,0.042842984199523926,-0.259315550327301,0.19280284643173218,0.2071594854986718,-0.6517301609199013,-0.6102592038475241,-0.39989549979754,0.21982173270635838,-2.2255849576426807,-1.7451915673342209
1773063090302573312,1.7579970359802246,0.28570321202278137,-0.09862086921930313,-0.0010880425106734037,-0.7722108364105225,-0.21790078282356262,0.5968329906463623,-0.02577805519104004,-0.43166583776474,0.3163597583770752,0.2067876567397242,-0.651557107699988,-0.6114653170950549,-0.3985252397304652,0.21966305721783946,-2.2287859546011046,-1.7424401871190192
1773063090312629248,1.7680530548095703,0.3898967206478119,0.17639604210853577,0.18314597010612488,-0.7727300524711609,-0.21497735381126404,0.5972210764884949,-0.08600407838821411,-0.36775580048561096,0.27379631996154785,0.20827766171891235,-0.6514460575977591,-0.6117422510204742,-0.39750456246544963,0.2166686359301626,-2.2287752806810723,-1.7403360859803834
1773063090322685184,1.778109073638916,0.23249325156211853,0.4226871728897095,0.03202911838889122,-0.7747684121131897,-0.21208643913269043,0.595611572265625,-0.12902486324310303,-0.11304782330989838,0.23416131734848022,0.21048941145309166,-0.6508931462797412,-0.6116730209663901,-0.39735173548711766,0.21370947886322622,-2.2261965827721193,-1.7384783648324589
1773063090332740352,1.7881641387939453,0.3336113393306732,0.6111787557601929,-0.2399376779794693,-0.7776144742965698,-0.21139651536941528,0.59213787317276,-0.13428127765655518,0.16514712572097778,0.20350110530853271,0.21270062387101973,-0.649251709424779,-0.6119976723625232,-0.3983585377505966,0.21300353829268742,-2.221604224673769,-1.7356867146619848
1773063090342796032,1.798219919204712,0.7013784646987915,0.7048088908195496,-0.22734597325325012,-0.7810696959495544,-0.21036362648010254,0.5879431366920471,-0.11271381378173828,0.16640309989452362,0.046349406242370605,0.21593125433952837,-0.6465601054617666,-0.6131325994500214,-0.3992518885075391,0.21194689525323657,-2.2160493241737673,-1.7298959149944009
1773063090352851456,1.8082752227783203,0.850703239440918,0.5758535861968994,-0.03615950793027878,-0.7846310138702393,-0.20667152106761932,0.5845004916191101,-0.04740011692047119,0.015311092138290405,-0.09510546922683716,0.22027836244629764,-0.6439677638020317,-0.61445567341836,-0.39903273482620905,0.20817181050234881,-2.211049099023254,-1.7224828760393525
1773063090362906368,1.8183302879333496,0.6169930100440979,0.26855918765068054,0.05998912826180458,-0.7871787548065186,-0.20208515226840973,0.5826759338378906,0.032402753829956055,-0.03674539923667908,-0.14609146118164062,0.22407556079047078,-0.6423363764109032,-0.6154201311643339,-0.39806052803467257,0.20348653952698495,-2.2080009774869818,-1.716400170991639
1773063090372962560,1.8283863067626953,0.22738347947597504,0.01262061856687069,0.05221270024776459,-0.7880676984786987,-0.19914951920509338,0.582485020160675,0.09142768383026123,-0.012215226888656616,-0.11472690105438232,0.22596007210202346,-0.6417802875608501,-0.6159225302549675,-0.3971140382628248,0.20048998657372638,-2.2073046767781705,-1.7132855292573244
1773063090383017472,1.8384413719177246,-0.024458853527903557,-0.09976132214069366,0.07233726978302002,-0.7878877520561218,-0.19815915822982788,0.583065927028656,0.10636919736862183,-0.010809943079948425,-0.04517829418182373,0.2262055327897362,-0.641967373743582,-0.6159633540283266,-0.3966082569278372,0.19947948109516586,-2.207890425030545,-1.7129237053579967
1773063090393073664,1.8484973907470703,-0.16198423504829407,-0.06012256443500519,0.1060108095407486,-0.7875301241874695,-0.19799600541591644,0.583604633808136,0.08445078134536743,-0.02197474241256714,0.021559059619903564,0.22579401785173991,-0.6425427232918742,-0.6155819640383936,-0.39650334379061386,0.19931303034445863,-2.2085492206838886,-1.7142707910908308
1773063090403129600,1.858553409576416,-0.22487510740756989,0.05895597115159035,0.07894207537174225,-0.7877150774002075,-0.1983971744775772,0.5832186341285706,0.04461193084716797,0.028856724500656128,0.0783262848854065,0.22533521081434593,-0.6430773421940573,-0.6148665359158971,-0.3970073829763496,0.19972231327537265,-2.208120491683935,-1.716524807093369
1773063090413184512,1.8686082363128662,-0.1601259410381317,0.19761398434638977,0.03878400847315788,-0.7885720133781433,-0.19913969933986664,0.5818053483963013,0.016431570053100586,0.06322966516017914,0.12044984102249146,0.22518800311183038,-0.6432211499932726,-0.6141410457475456,-0.39797948457956117,0.20047996039812574,-2.2064410555935994,-1.718523352960536
1773063090423240448,1.878664255142212,-0.03834860026836395,0.2464381754398346,0.05024275928735733,-0.7899960279464722,-0.19936852157115936,0.5797922015190125,0.012987792491912842,0.014752358198165894,0.11809921264648438,0.22567177406791403,-0.6429959722519866,-0.6135570764736549,-0.39896908292471345,0.20071346634696133,-2.2039251663235078,-1.7195601874793958
1773063090433295616,1.8887193202972412,-0.09101660549640656,0.19564983248710632,0.0875517800450325,-0.7914265394210815,-0.1991342157125473,0.5779183506965637,0.02328389883041382,-0.0548635870218277,0.09270542860031128,0.22632752883701257,-0.6428131689522992,-0.6129848217872758,-0.39977078123466336,0.20047435725358778,-2.2015199336220594,-1.7203893885516008
1773063090443351552,1.898775339126587,-0.25828817486763,0.18992376327514648,0.15560778975486755,-0.7927536368370056,-0.19919300079345703,0.5760761499404907,0.03260660171508789,-0.053645119071006775,0.095478355884552,0.22658182139493208,-0.6430030256044754,-0.6120336366720637,-0.400777477299238,0.20053434945364895,-2.1992030962476625,-1.722558794034087
1773063090453407488,1.9088313579559326,-0.3943301737308502,0.2154107540845871,0.16307663917541504,-0.7942659854888916,-0.19977055490016937,0.5737886428833008,0.03244030475616455,-0.0030645430088043213,0.047335684299468994,0.22647832286529615,-0.6434785283033363,-0.6105978179021369,-0.4022602247454598,0.20112375020202575,-2.196407196552755,-1.7263000054325348
1773063090463462656,1.918886423110962,-0.4068329632282257,0.16150899231433868,0.09421598166227341,-0.7956482768058777,-0.2010984867811203,0.5714049339294434,0.021600306034088135,0.04858684539794922,-0.08297103643417358,0.22601126061946475,-0.6439453165007722,-0.609127982138196,-0.4040007120360463,0.20247919254050514,-2.1936083080705773,-1.730486909258524
1773063090473518336,1.9289422035217285,-0.3907274901866913,0.016589079052209854,0.06387937813997269,-0.7963195443153381,-0.2027624100446701,0.5698795914649963,0.034280240535736084,0.05748343467712402,-0.18595319986343384,0.22516246122572045,-0.6444384165088048,-0.607979371645087,-0.4054159710735305,0.2041781140333823,-2.191943223868267,-1.7342285914476894
1773063090483574272,1.9389982223510742,-0.5272872447967529,-0.13205145299434662,0.0864247977733612,-0.7961143255233765,-0.2047259360551834,0.5694639682769775,0.06447070837020874,0.036406248807907104,-0.21645194292068481,0.22367731877756697,-0.645293887808174,-0.6069001466164388,-0.40649285370690846,0.20618370022643034,-2.191719952653536,-1.7383943701735134
1773063090493629440,1.9490532875061035,-0.8681321740150452,-0.179971843957901,0.08890978991985321,-0.7953653931617737,-0.20794641971588135,0.5693435072898865,0.07675278186798096,-0.014908164739608765,-0.20095068216323853,0.22112765585988775,-0.6466732531159024,-0.6053804338582924,-0.4079592564308872,0.20947501764632637,-2.192065242634908,-1.7446875684931997
1773063090503685376,1.9591093063354492,-1.3232688903808594,-0.19701078534126282,0.05601004138588905,-0.7944512367248535,-0.21359601616859436,0.56852787733078,0.055864810943603516,-0.11829791963100433,-0.1972815990447998,0.2171612347671713,-0.6484824704439931,-0.60310400308103,-0.41058135525755873,0.21525444676999078,-2.191931022554401,-1.7542466423138214
1773063090513740544,1.9691643714904785,-1.7879846096038818,-0.3630751371383667,0.06794099509716034,-0.7930856943130493,-0.22207120060920715,0.5671858191490173,0.026941776275634766,-0.25101232528686523,-0.21931594610214233,0.21138491377085517,-0.6508762954634454,-0.5999607980637217,-0.4143954576317981,0.22393819957876798,-2.1916267154005302,-1.7676771840963332
1773063090523796480,1.9792203903198242,-1.991955041885376,-0.9333887100219727,0.20488965511322021,-0.7897807955741882,-0.23197166621685028,0.5678340792655945,0.02778726816177368,-0.3086930513381958,-0.16333884000778198,0.20348593436666415,-0.6545644559918639,-0.5962066872219429,-0.4179431318872428,0.2341041449989459,-2.194145201239029,-1.784464679875485
1773063090533852672,1.98927640914917,-2.189875364303589,-1.2440000772476196,0.4100606441497803,-0.7840179800987244,-0.24140672385692596,0.5718727111816406,0.059149324893951416,-0.14525096118450165,0.0530356764793396,0.19387284750468997,-0.6599840981231387,-0.5919099217253783,-0.4200915473261917,0.24381518027485877,-2.2009908800005746,-1.8038422643971583
1773063090543907328,1.9993312358856201,-1.9499331712722778,-0.9009490013122559,0.38082537055015564,-0.7786502242088318,-0.250482976436615,0.575293242931366,-0.006170451641082764,0.2586463987827301,0.20606356859207153,0.18436099286016464,-0.665564330256879,-0.5870866640962288,-0.4223321877299741,0.25317911617752953,-2.2071127999451217,-1.8241705284252931
1773063090553963520,2.009387254714966,-0.9660174250602722,-0.18338342010974884,0.22359713912010193,-0.776242196559906,-0.25662991404533386,0.5758379697799683,-0.19800108671188354,0.3332137167453766,0.222547709941864,0.17843883986965767,-0.6689870996363916,-0.5834168671753123,-0.4245476089677191,0.2595337121832444,-2.209046606893865,-1.8384033981236747
1773063090564019456,2.0194432735443115,-0.024925772100687027,0.4445348381996155,0.029691174626350403,-0.7774664759635925,-0.2584804594516754,0.5733527541160583,-0.31884682178497314,0.19717073440551758,0.15171432495117188,0.1775210042245285,-0.6694514482201632,-0.5818170909369511,-0.4263916175753923,0.26144889000477267,-2.206225332927311,-1.843249509942531
1773063090574074624,2.029498338699341,0.7433421015739441,0.5594238638877869,-0.09357590228319168,-0.7804077863693237,-0.2565882205963135,0.5701982378959656,-0.23524761199951172,0.17275646328926086,0.10620862245559692,0.18026543261117,-0.6678656522193893,-0.5822839382990411,-0.42708922645875286,0.25949057167590184,-2.201792374033417,-1.839828136464122
1773063090584130560,2.0395543575286865,1.0884886980056763,0.4319990575313568,-0.10677570104598999,-0.7829997539520264,-0.2520448863506317,0.5686691403388977,-0.015599429607391357,0.132248193025589,0.13569170236587524,0.18466067663811242,-0.6656090175699567,-0.5842081985124011,-0.4261053853595286,0.2547927923599286,-2.1989364194023304,-1.831247062939653
1773063090594186496,2.0496103763580322,1.053315281867981,0.3087866008281708,-0.04614856839179993,-0.7848765850067139,-0.2464149296283722,0.5685498714447021,0.13932281732559204,0.05108708143234253,0.1523517370223999,0.1892107280119993,-0.6635773834090328,-0.5864639843703014,-0.42417510886274423,0.24897936972324705,-2.1976988489911014,-1.821588457142316
1773063090604241408,2.0596652030944824,0.7336335778236389,0.28306835889816284,-0.006697206292301416,-0.7864872813224792,-0.24140505492687225,0.5684725642204285,0.1751745343208313,-0.07959403097629547,0.09070706367492676,0.19305170444213493,-0.6620125128971536,-0.5881970057471176,-0.4224862928259232,0.2438134695760342,-2.1966606061773137,-1.8138082913133864
1773063090614297344,2.069721221923828,0.17313028872013092,0.21125222742557526,-0.05026359111070633,-0.7878764271736145,-0.23892810940742493,0.5675949454307556,0.1448100209236145,-0.17131967842578888,-0.005980014801025391,0.19530240604096774,-0.6609491578396991,-0.5890192643580179,-0.42197094489884085,0.24126183950939853,-2.195090100075123,-1.8097451859481417
1773063090624352512,2.0797762870788574,-0.5745681524276733,0.09742280095815659,-0.06445999443531036,-0.788567304611206,-0.24055396020412445,0.5659462213516235,0.1086205244064331,-0.14804159104824066,-0.05236595869064331,0.1949630899669358,-0.6606237020787181,-0.5886844870295442,-0.42310307556762333,0.24293652683184305,-2.1932957989776685,-1.8109629900165867
1773063090634408448,2.089832305908203,-1.2073251008987427,0.008239660412073135,0.01853742077946663,-0.7887994647026062,-0.24590426683425903,0.5633175373077393,0.0787622332572937,-0.08479946851730347,-0.06313443183898926,0.19204905019896754,-0.6613193603838047,-0.5867839965376815,-0.4259793922955141,0.2484524987450354,-2.1909529011280937,-1.8184505333986913
1773063090644464384,2.099888324737549,-1.5175129175186157,-0.11554596573114395,0.07623916119337082,-0.7886603474617004,-0.25332918763160706,0.560213565826416,0.04664069414138794,-0.06947049498558044,-0.12822198867797852,0.1873999879786582,-0.6629011042284011,-0.5836685001741434,-0.4298540207776949,0.2561201573163746,-2.188425358347828,-1.8305076107567417
1773063090654519552,2.109943389892578,-1.4566490650177002,-0.2793034613132477,0.050693318247795105,-0.7876933813095093,-0.2612583339214325,0.5579275488853455,0.03294795751571655,-0.04902911186218262,-0.15752166509628296,0.18192784018201433,-0.6649355337327868,-0.5803658347808975,-0.43351870804724923,0.26432557150773717,-2.187074704508555,-1.8436867879176024
1773063090664575488,2.119999408721924,-1.1323646306991577,-0.3462454378604889,0.03389531746506691,-0.7859959602355957,-0.268305242061615,0.5569762587547302,0.019928574562072754,0.03441855311393738,-0.12567132711410522,0.17668950991597637,-0.6669276348106042,-0.5776639648050216,-0.4362254726136845,0.27163333219156216,-2.1872873365362775,-1.855062754542624
1773063090674631680,2.1300554275512695,-0.6586264371871948,-0.2996036112308502,0.05842968821525574,-0.7842708230018616,-0.27296388149261475,0.5571443438529968,-0.026398003101348877,0.13864079117774963,-0.08445757627487183,0.17281766245979677,-0.6685812706954221,-0.5758222394037755,-0.437677773630323,0.27647257651605683,-2.188466697632676,-1.86300188922378
1773063090684686336,2.1401102542877197,-0.17924097180366516,-0.13230693340301514,0.0451047383248806,-0.7831590175628662,-0.27487072348594666,0.5577700734138489,-0.08274656534194946,0.19390767812728882,-0.010773181915283203,0.17088603150294004,-0.6695923711026884,-0.5749183355682255,-0.43807846344029766,0.27845523649469434,-2.189666942312434,-1.8668754152507159
1773063090694742528,2.1501662731170654,0.1452271193265915,0.20264388620853424,-0.04441635683178902,-0.7833271026611328,-0.274833083152771,0.5575531721115112,-0.1272716522216797,0.1805337369441986,0.06718742847442627,0.17096975792125713,-0.6695541288471362,-0.5748685446016184,-0.438169811134602,0.27841608101127063,-2.189381773883677,-1.866934615125828
1773063090704797440,2.1602213382720947,0.27743270993232727,0.42272087931632996,-0.2584672272205353,-0.7847840189933777,-0.27476921677589417,0.5555324554443359,-0.13333743810653687,0.138508141040802,0.04400074481964111,0.17233689387984175,-0.6682149646273327,-0.5755475554817654,-0.43878685286616964,0.2783496740254175,-2.186790927681783,-1.8642106838928487
1773063090714853632,2.1702773571014404,0.4044061005115509,0.2847867012023926,-0.40656614303588867,-0.785910427570343,-0.27561768889427185,0.5535159707069397,-0.06745272874832153,0.07761961221694946,-0.057315289974212646,0.1737985573522432,-0.6660811519967229,-0.5771428521256509,-0.4393587926424751,0.27923221870269593,-2.184401726981024,-1.8591942652260165
1773063090724909568,2.180333375930786,0.44085922837257385,-0.0851329043507576,-0.2991618812084198,-0.7854815721511841,-0.27610212564468384,0.5538830161094666,0.06241333484649658,0.021783888339996338,-0.12860524654388428,0.17474267038832103,-0.6644060828320528,-0.5792288490301061,-0.4387750321906889,0.27973621556370226,-2.1849708721565735,-1.8532923016111058
1773063090734964480,2.1903882026672363,0.34370285272598267,-0.423678457736969,-0.1504432111978531,-0.7834152579307556,-0.275591641664505,0.5570547580718994,0.15951377153396606,0.004458189010620117,-0.11563318967819214,0.1748292774178268,-0.6640000761656618,-0.5810604841899698,-0.4369295235694733,0.27920513707025957,-2.1889062097167047,-1.8485815698789552
1773063090745020416,2.200444221496582,0.22392305731773376,-0.5304937958717346,-0.1728476732969284,-0.780205249786377,-0.2751922011375427,0.5617377161979675,0.1357501745223999,-0.03132638335227966,-0.04911857843399048,0.17398722042251982,-0.6644000044113808,-0.5826160712992572,-0.4345798630802842,0.2787896208541937,-2.194810888678454,-1.845268651184455
1773063090755076352,2.2105002403259277,0.15978987514972687,-0.4019072949886322,-0.2620348036289215,-0.7768927812576294,-0.275838702917099,0.5659955143928528,0.010748863220214844,-0.09633845090866089,-0.018632113933563232,0.1727446862371171,-0.664626640875047,-0.5841824918740973,-0.43262179202648854,0.27946215725701057,-2.20041933521457,-1.8423046973821016
1773063090765131520,2.220555305480957,0.0900348648428917,-0.24214549362659454,-0.2854471206665039,-0.7743113040924072,-0.2772919833660126,0.5688154697418213,-0.093639075756073,-0.14003586769104004,0.008699119091033936,0.17162868241291115,-0.6643872155364846,-0.5856597650052472,-0.4314346109912645,0.28097441176763716,-2.204373714242727,-1.8395229294732638
1773063090775187456,2.2306113243103027,0.04946320876479149,-0.17308147251605988,-0.28174105286598206,-0.7723376750946045,-0.2791523337364197,0.5705858469009399,-0.09961044788360596,-0.14383649826049805,0.09880185127258301,0.17061881784714414,-0.6639309237057119,-0.5869315582960534,-0.4308087914602361,0.28291123519200423,-2.2070763784265535,-1.837203110180971
1773063090785242624,2.240666389465332,0.15473930537700653,-0.05455194413661957,-0.20142844319343567,-0.7709347605705261,-0.28054356575012207,0.5717995762825012,-0.0568087100982666,-0.12624046206474304,0.17876487970352173,0.1700317407846608,-0.6633809432202407,-0.5880693140780167,-0.43033633342349215,0.2843603556647268,-2.2089619694755545,-1.8348636918829608
1773063090795298560,2.2507224082946777,0.3912237286567688,0.1294756829738617,-0.05041683465242386,-0.7707905173301697,-0.280013769865036,0.5722533464431763,-0.023841261863708496,-0.052398860454559326,0.14913630485534668,0.17075000386538608,-0.6626919151430487,-0.5890382815294994,-0.42978791186342025,0.28380845497572715,-2.2094311018165524,-1.8318314562311226
1773063090805354496,2.2607784271240234,0.694398045539856,0.2751438021659851,0.034641947597265244,-0.771975040435791,-0.2768951952457428,0.5721742510795593,0.004732668399810791,0.021188437938690186,0.13140839338302612,0.17316053125087938,-0.6617848178817607,-0.5900237176139229,-0.42886853887490417,0.2805614588651785,-2.208630220439774,-1.8272937973593248
1773063090815409408,2.2708332538604736,1.0180985927581787,0.2987748384475708,-0.03300367668271065,-0.7736776471138,-0.27187657356262207,0.5722814798355103,0.02756863832473755,0.05822300910949707,0.14315736293792725,0.17690337619989394,-0.6604289906478766,-0.5915862590128889,-0.42727565002205153,0.2753425194351994,-2.2076662114618726,-1.8201283058591333
1773063090825465344,2.2808892726898193,1.1611028909683228,0.31808021664619446,-0.13420440256595612,-0.775184154510498,-0.2661844789981842,0.5729184746742249,0.023429274559020996,0.040735840797424316,0.15793174505233765,0.18128883970909607,-0.6585221977351329,-0.5939762154263627,-0.42505904422853397,0.2694325215409642,-2.207268052358647,-1.8102906585524179
1773063090835521536,2.290945291519165,1.0342727899551392,0.4817682206630707,-0.1443726122379303,-0.7770442962646484,-0.26090651750564575,0.5728263854980469,-0.0054874420166015625,-0.012729346752166748,0.20900344848632812,0.18582730627326752,-0.6562247282615075,-0.5964748938867341,-0.42314896479552416,0.26396112924723825,-2.2060460969340685,-1.800041627071189
1773063090845576448,2.3010003566741943,0.7384417057037354,0.6786470413208008,-0.11759953200817108,-0.7800741791725159,-0.25681978464126587,0.570550262928009,-0.04454118013381958,-0.10174646973609924,0.21063858270645142,0.19024011009695,-0.6537416263713796,-0.598244956558801,-0.42253222313576366,0.25973017358904593,-2.2022901426970827,-1.7917646163564347
1773063090855632640,2.31105637550354,0.3581596314907074,0.7797837853431702,-0.05496199056506157,-0.7840175032615662,-0.25435301661491394,0.5662339329719543,-0.04331398010253906,-0.18931150436401367,0.1813092827796936,0.1940716917667023,-0.6513777250188576,-0.5990192308437929,-0.42334280984962813,0.2571786567924429,-2.196280608643995,-1.7865302927166122
1773063090865687296,2.3211112022399902,0.027438301593065262,0.7802618741989136,0.008452060632407665,-0.7884265780448914,-0.2535422146320343,0.5604462623596191,0.013386785984039307,-0.15933012962341309,0.11925655603408813,0.19696664370899258,-0.6494586571040278,-0.5986873936133119,-0.4254186786071853,0.2563403776890198,-2.188761426653251,-1.7849277045121692
1773063090875743488,2.331167221069336,0.04278529807925224,0.638640284538269,0.03517262265086174,-0.7924903035163879,-0.2532486617565155,0.5548192262649536,0.08875495195388794,-0.048081934452056885,-0.009180188179016113,0.19922598088231316,-0.6479806632136944,-0.5979386874105129,-0.4276674436756907,0.25603691082556146,-2.181586659480732,-1.7849120765539976
1773063090885799424,2.3412232398986816,0.2171284407377243,0.43234285712242126,0.03263888508081436,-0.7955988645553589,-0.25227025151252747,0.5508014559745789,0.1385096311569214,0.046505481004714966,-0.10976147651672363,0.20133855797239725,-0.6467957180615803,-0.5975416648102622,-0.4290245493961157,0.2550256742977098,-2.176342935446485,-1.784068697690908
1773063090895854592,2.351278305053711,0.4333353042602539,0.26321667432785034,0.05199740454554558,-0.7975698709487915,-0.2501767575740814,0.5489024519920349,0.11406773328781128,0.10019814968109131,-0.1699504256248474,0.20348925431909687,-0.6458515326234946,-0.5977683609885439,-0.42911643926517273,0.2528628242350777,-2.1735714659004888,-1.7815349048025697
1773063090905910528,2.3613343238830566,0.6374955177307129,0.15254752337932587,0.0636230930685997,-0.7988502383232117,-0.2466893345117569,0.5486186742782593,0.05507594347000122,0.07551628351211548,-0.20207637548446655,0.20599651441161193,-0.6450378978010568,-0.5985277431733707,-0.4280841199937001,0.2492625083681629,-2.172581279167438,-1.7772552149111212
1773063090915966464,2.3713903427124023,0.5921916365623474,0.11951953917741776,0.030416134744882584,-0.7997078895568848,-0.24279935657978058,0.5491047501564026,0.023874640464782715,0.018617182970046997,-0.1562367081642151,0.2085516870663827,-0.6442461170107338,-0.5995826211097235,-0.42656054843265667,0.2452505181735108,-2.1724937942026132,-1.772152768627582
1773063090926021632,2.3814454078674316,0.3569503724575043,0.099673330783844,-0.007284120656549931,-0.8003107905387878,-0.24005107581615448,0.5494345426559448,0.01637512445449829,-0.0226290225982666,-0.06512051820755005,0.21045270818191092,-0.6435433542519504,-0.6004741689143186,-0.4254320824325669,0.24241845769859646,-2.1724223001736362,-1.7680860398593485
1773063090936077568,2.3915014266967773,0.08714204281568527,0.07223132252693176,0.0047738743014633656,-0.8008208870887756,-0.23890595138072968,0.5491904020309448,0.017617642879486084,-0.10254000127315521,0.02150362730026245,0.21143032274329274,-0.643086221996947,-0.6008621502987956,-0.4250906909738614,0.24123902774853787,-2.1719177290117155,-1.7661830216761498
1773063090946132480,2.4015562534332275,-0.14932268857955933,-0.07290216535329819,0.07113824784755707,-0.8009142279624939,-0.23876281082630157,0.5491162538528442,0.021480083465576172,-0.17357544600963593,0.07985097169876099,0.21142386738418834,-0.6432222323685877,-0.6006856716616936,-0.42513738290645764,0.2410916079929597,-2.171800369913219,-1.7666265581985126
1773063090956188416,2.4116122722625732,-0.44756555557250977,-0.11051532626152039,0.1119099110364914,-0.8005896806716919,-0.2396848499774933,0.5491880178451538,0.017645955085754395,-0.11262533068656921,0.1873842477798462,0.2103314148281952,-0.6440537699575186,-0.5998239276637586,-0.42563684874115076,0.24204122728372182,-2.1720503733330507,-1.7698144939937133
1773063090966244352,2.421668291091919,-0.37986427545547485,-0.06118159741163254,0.10392362624406815,-0.8003050684928894,-0.24126800894737244,0.548909068107605,-0.038150012493133545,-0.0005379766225814819,0.26105785369873047,0.2088289934496594,-0.645053953200983,-0.5986317276792339,-0.42653932195620803,0.24367224524559047,-2.171979262683105,-1.7742255827393314
1773063090976299520,2.4317233562469482,0.030643614009022713,0.19378891587257385,0.1345726102590561,-0.8009042143821716,-0.24134954810142517,0.5479987859725952,-0.1217184066772461,-0.018751725554466248,0.249944269657135,0.20865040427206358,-0.6454773139421485,-0.5977946403781772,-0.42715986068733663,0.2437562669071594,-2.170856503434805,-1.7764948984241449
1773063090986355456,2.441779375076294,0.47621309757232666,0.5489075779914856,0.1765352487564087,-0.8032929301261902,-0.23867064714431763,0.5456709265708923,-0.19835501909255981,-0.01552550494670868,0.1689896583557129,0.21092684638362677,-0.6448822881024534,-0.5974632300033453,-0.42740423089953505,0.24099670950081767,-2.1674891228135587,-1.7751767633650004
1773063090996411648,2.4518353939056396,0.7069170475006104,0.9267114400863647,0.17372632026672363,-0.8077848553657532,-0.2338629961013794,0.541102409362793,-0.22433489561080933,0.0676337331533432,0.10651111602783203,0.21552145676423268,-0.6431828725392326,-0.5973834485436931,-0.4277842088409048,0.23604896683003343,-2.1610061189954135,-1.771013487747929
1773063091006466304,2.46189022064209,0.7387251853942871,1.080345869064331,0.040820278227329254,-0.8135876655578613,-0.22899873554706573,0.5344483852386475,-0.19051706790924072,0.09717802703380585,-0.016565024852752686,0.22119995293556738,-0.6405089358054418,-0.5974717459463296,-0.4287732760873841,0.23104896803588157,-2.1520091334536637,-1.7653553791950998
1773063091016522496,2.4719462394714355,0.25790318846702576,0.9979434609413147,-0.0685858428478241,-0.8191143274307251,-0.22620880603790283,0.5271446108818054,-0.09862565994262695,-0.01831333339214325,-0.14886397123336792,0.2260620637189268,-0.6375843353822991,-0.5975437444548981,-0.4304923874678229,0.2281838302145929,-2.142626997885263,-1.760494724231904
1773063091026578432,2.4820022583007812,-0.305730938911438,0.47745293378829956,-0.14745092391967773,-0.8230282664299011,-0.2274658977985382,0.5204651951789856,0.03268390893936157,-0.09203793108463287,-0.2524903416633606,0.22797171577067468,-0.6356313416651701,-0.5968294546710599,-0.43335480770354684,0.22947456327610866,-2.1346837880709284,-1.760523401829383
1773063091036633600,2.4920573234558105,-0.4139341115951538,-0.14135758578777313,-0.13762491941452026,-0.8234173655509949,-0.23075245320796967,0.518399178981781,0.17127180099487305,-0.1005159318447113,-0.3411071300506592,0.22685064461642757,-0.63527345530351,-0.5963448834591363,-0.43513145801513275,0.2328509336168809,-2.1326754397085077,-1.7629541659792296
1773063091046689536,2.5021133422851562,-0.34600746631622314,-0.40101346373558044,0.0768565684556961,-0.8217884302139282,-0.23305732011795044,0.5199500322341919,0.23276865482330322,-0.04395073652267456,-0.3064795732498169,0.2246593012532213,-0.6362448837581561,-0.5959592758339158,-0.43537705128548315,0.23522040036948808,-2.134917462235943,-1.766101016030305
1773063091056744448,2.5121684074401855,-0.316287100315094,-0.4810031056404114,0.3467392027378082,-0.8199774622917175,-0.23308050632476807,0.5227915048599243,0.1736302375793457,0.0379510223865509,-0.18145227432250977,0.22275093115407368,-0.6381826007557141,-0.5950787488286676,-0.43472569715298176,0.23524424544366798,-2.1383824044375555,-1.770092778974379
1773063091066800640,2.5222244262695312,-0.22084906697273254,-0.4199838936328888,0.3780445456504822,-0.8184661865234375,-0.23130427300930023,0.5259385108947754,0.034652769565582275,0.03635801374912262,-0.017744600772857666,0.2213368467343347,-0.6406780500675048,-0.593717859382306,-0.4336366062245246,0.23341810212118158,-2.141945046190715,-1.7747165992823533
1773063091076856320,2.532280206680298,0.0030487384647130966,-0.12440470606088638,0.1292126327753067,-0.8175182938575745,-0.22979576885700226,0.5280694961547852,-0.11146718263626099,-0.018708810210227966,0.1301182508468628,0.22065767899534924,-0.6422081066759697,-0.5929616368006732,-0.43275318082404113,0.23186783027159394,-2.1443136333162434,-1.7771542123331474
1773063091086911488,2.542335271835327,0.38581153750419617,0.33829715847969055,-0.02040734887123108,-0.8181518912315369,-0.22851790487766266,0.5276427268981934,-0.19764083623886108,-0.042188242077827454,0.22162479162216187,0.22162985132106713,-0.6419013710994724,-0.5931138075891378,-0.43250292344165253,0.23055502804960706,-2.1435922502764626,-1.7758084988252232
1773063091096967424,2.552391290664673,0.8658620119094849,0.7026477456092834,0.03300687298178673,-0.8209516406059265,-0.22522951662540436,0.5246999859809875,-0.203965961933136,-0.04495784640312195,0.21745693683624268,0.22523348745128208,-0.6400229259086463,-0.5939029060867608,-0.4323423151495591,0.22717860621140587,-2.1394965732251783,-1.7703080993679208
1773063091107023360,2.5624473094940186,1.1443352699279785,0.8556386828422546,0.17976629734039307,-0.8253499269485474,-0.2189677655696869,0.5204329490661621,-0.15513402223587036,-0.04389534890651703,0.12554782629013062,0.23112218127320663,-0.6374424474005699,-0.5948811690218797,-0.4317012983425536,0.2207564398488045,-2.1333841219415155,-1.7619675372115897
1773063091117078528,2.572502374649048,1.1528874635696411,0.874585747718811,0.22222214937210083,-0.8303626179695129,-0.2111750990152359,0.5156580209732056,-0.06680840253829956,0.03295241296291351,0.0002568960189819336,0.2378968375913309,-0.6348204725747856,-0.5956777447176864,-0.4307854938462023,0.21277701301593513,-2.1265165320126314,-1.7530368718849347
1773063091127134464,2.5825583934783936,1.2226523160934448,0.6864712834358215,0.10475879907608032,-0.8348163366317749,-0.20369677245616913,0.5114579796791077,0.025764822959899902,0.11099962890148163,-0.18676626682281494,0.24438147516416142,-0.6321874663090327,-0.5967143406992208,-0.42959129916381167,0.20513238029998326,-2.1204721774587116,-1.7436823386656783
1773063091137189376,2.5926132202148438,1.38703191280365,0.348981112241745,0.010455464944243431,-0.8375523090362549,-0.1965283900499344,0.5097869038581848,0.09667712450027466,0.04345221817493439,-0.32524704933166504,0.2502036694575743,-0.6295934805963974,-0.5987532921238565,-0.4272056565940333,0.1978159949993175,-2.11756116386367,-1.7324226605112165
1773063091147245312,2.6026692390441895,1.281510829925537,0.18674588203430176,0.025333160534501076,-0.8389049172401428,-0.18949207663536072,0.5102265477180481,0.1246105432510376,-0.07077707350254059,-0.31131309270858765,0.2552796182662935,-0.6273632944078181,-0.6012724575426112,-0.42393277943908253,0.19064483221181852,-2.117227400781903,-1.720669396175403
1773063091157301504,2.612725257873535,1.1538695096969604,0.15949508547782898,0.09443313628435135,-0.8398231267929077,-0.18286962807178497,0.5111322402954102,0.07909607887268066,-0.15196925401687622,-0.23305600881576538,0.2596660754752213,-0.6256240082672613,-0.6034573074829621,-0.4207226351172347,0.18390451888688858,-2.1175291676119947,-1.7104222576358517
1773063091167356416,2.6227803230285645,0.9188210964202881,0.2599245011806488,0.3181940019130707,-0.8411862254142761,-0.1757124960422516,0.5114008784294128,0.018371284008026123,-0.3127518892288208,-0.03625750541687012,0.26403638200855056,-0.6243990187023111,-0.6048357602136651,-0.41783293824391426,0.17662947197176215,-2.1170423812476877,-1.7021279840324808
1773063091177412608,2.63283634185791,0.19563786685466766,0.43855416774749756,0.5276271104812622,-0.8437352180480957,-0.169137641787529,0.5094143152236938,-0.010619401931762695,-0.3119261562824249,0.1696169376373291,0.26777674880445357,-0.6242381723809444,-0.6041803206457272,-0.4166393371051492,0.169954637203796,-2.1139765749896475,-1.6995243787013388
1773063091187468544,2.642892360687256,-0.020505690947175026,0.4460303783416748,0.4846719801425934,-0.8468825817108154,-0.16454710066318512,0.5056819319725037,0.0015456676483154297,-0.09109865128993988,0.2967625856399536,0.2703277031116191,-0.6248290519467198,-0.6020212724409602,-0.4172313573543735,0.16529883543787843,-2.1090879803148472,-1.7019411092413324
1773063091197523712,2.652947425842285,0.13008993864059448,0.6415231227874756,0.4750470519065857,-0.8503802418708801,-0.16033941507339478,0.501143217086792,0.013283193111419678,-0.13626091182231903,0.33993643522262573,0.2730738642389065,-0.6250527586116508,-0.5999005408872663,-0.4181614542781057,0.16103451327008006,-2.1033233646628844,-1.7040082867168505
1773063091207579392,2.6630032062530518,0.4452882707118988,0.7147493362426758,0.567193865776062,-0.8546533584594727,-0.1544191688299179,0.49570345878601074,0.05997580289840698,-0.1518704742193222,0.2648097276687622,0.277147166601554,-0.6247815412839469,-0.5979128293870789,-0.4187333105697799,0.15503954404128895,-2.096384052971941,-1.7041654635089163
1773063091217634560,2.673058271408081,0.7057137489318848,0.6142794489860535,0.48407289385795593,-0.8587762713432312,-0.1469302475452423,0.4908304512500763,0.16210591793060303,-0.01708643138408661,0.15379232168197632,0.28208464800093347,-0.624189957582495,-0.5964915108610713,-0.41834548013085415,0.14746411616273633,-2.0900312207460976,-1.7018413570868134
1773063091227690496,2.6831142902374268,1.0973697900772095,0.3749236762523651,0.3243120312690735,-0.8618027567863464,-0.13935966789722443,0.4877242147922516,0.1800248622894287,0.01381036639213562,0.014564603567123413,0.2871126014066517,-0.6230411095806521,-0.5963907102695561,-0.41677843912008355,0.1398147463808378,-2.0857912030847716,-1.6961127092866453
1773063091237746432,2.6931703090667725,1.4746593236923218,0.2904924154281616,0.4608365595340729,-0.8638928532600403,-0.1296912133693695,0.486691951751709,0.1508955955505371,-0.0779198408126831,-0.06812816858291626,0.29293953362765,-0.6216148078278166,-0.5974453967386583,-0.4133284162553359,0.13005755874570724,-2.0838469685476646,-1.6865203340914414
1773063091247801600,2.7032253742218018,1.5987834930419922,0.16887587308883667,0.5580043196678162,-0.8656229972839355,-0.11747526377439499,0.4867197573184967,0.13721436262130737,-0.09236357361078262,-0.08600875735282898,0.29959465075668534,-0.6203699017058185,-0.5987495813115794,-0.40851324800198935,0.11774715791859612,-2.083016242167924,-1.675191170363618
1773063091257857536,2.7132813930511475,1.4423388242721558,0.1339905858039856,0.3003658652305603,-0.8669729828834534,-0.10611860454082489,0.4869253635406494,0.062468767166137695,-0.03819897025823593,-0.15486368536949158,0.30580251254553814,-0.6190087647254773,-0.60024230494267,-0.40375984423817657,0.10631879388316855,-2.082531068927596,-1.6638429004966233
1773063091267913472,2.723337411880493,1.1826348304748535,0.18966171145439148,0.0694497600197792,-0.8677858710289001,-0.09822162985801697,0.48713478446006775,-0.09252601861953735,0.07711872458457947,-0.15705668926239014,0.3106397081340699,-0.6171853871959027,-0.602203945753092,-0.3999195070312232,0.09838025477858905,-2.0823145644593772,-1.6529926851511842
1773063091277968384,2.7333922386169434,0.5652991533279419,0.42999282479286194,0.21609246730804443,-0.869468629360199,-0.09276115894317627,0.48520106077194214,-0.17075365781784058,0.02308950573205948,-0.08160597085952759,0.3146545542467869,-0.6154784420831088,-0.6031474235728531,-0.3979850751883265,0.09289470277905107,-2.0797937547790775,-1.645599946847571
1773063091288024320,2.743448257446289,-0.35272014141082764,0.30703645944595337,0.4586435556411743,-0.8716583251953125,-0.08914326876401901,0.4819389581680298,-0.13980096578598022,0.04284811019897461,-0.12630239129066467,0.3168693961161434,-0.6155923243410149,-0.6016772973471185,-0.39827662049682605,0.08926175244136486,-2.0758624928283673,-1.6463248789174523
1773063091298079488,2.7535033226013184,-1.1319233179092407,0.07290387153625488,0.3880540728569031,-0.8729785680770874,-0.08889885991811752,0.47958904504776,0.0584033727645874,0.17869684100151062,-0.032048702239990234,0.3159530616555113,-0.6178137315759773,-0.5984151666026939,-0.40047375708232336,0.08901637320383364,-2.073156422740153,-1.6553776935882547
1773063091308135424,2.763559341430664,-1.2522135972976685,-0.019473649561405182,0.06105668097734451,-0.873272716999054,-0.09289327263832092,0.4782947301864624,0.1441618800163269,0.24468767642974854,-0.009712517261505127,0.3126130631873226,-0.6203980134575771,-0.5951921282842761,-0.40388833785105266,0.09302739196889348,-2.0718748631732984,-1.6674025532674677
1773063091318191616,2.7736153602600098,-0.7596789598464966,-0.052951447665691376,-0.20797425508499146,-0.8729808330535889,-0.09860598295927048,0.47768327593803406,0.12349969148635864,0.3362311124801636,-0.09168162941932678,0.3090607835428966,-0.6218795408859826,-0.5933864402001015,-0.40698868868752774,0.09876647853754356,-2.0714768371986616,-1.6762525780486837
1773063091328246528,2.783670425415039,0.1732199788093567,0.0640074759721756,-0.3683503270149231,-0.8726128339767456,-0.10269732028245926,0.47749391198158264,0.07257914543151855,0.5134181380271912,-0.08917289972305298,0.30744839834435944,-0.6214945043067434,-0.5937099756539232,-0.4083241968151052,0.10287870051870289,-2.0714874220059687,-1.6775302571840078
1773063091338302464,2.7937262058258057,0.986280083656311,0.3800109624862671,-0.290991872549057,-0.8733034133911133,-0.10282855480909348,0.47620120644569397,-0.07763957977294922,0.4487147629261017,-0.05229675769805908,0.3092838286563174,-0.6190695425950746,-0.5956958183164096,-0.4077290279921274,0.10301063825708318,-2.07001410188957,-1.6704688717604492
1773063091348358912,2.8037827014923096,1.2725845575332642,0.5541247129440308,-0.03378549963235855,-0.8754450082778931,-0.09871891885995865,0.47312843799591064,-0.18736010789871216,0.21021491289138794,-0.03991618752479553,0.31402860261730475,-0.6157379641432514,-0.597855319407933,-0.4059824891689709,0.09887996679423937,-2.0662727974643027,-1.6592532025542122
1773063091358413824,2.813837766647339,1.0218151807785034,0.4485735297203064,0.16535289585590363,-0.8779975771903992,-0.09245041757822037,0.4696524143218994,-0.11373227834701538,-0.010225988924503326,-0.0012838244438171387,0.31936648021122704,-0.6130791751597443,-0.5991328126530174,-0.4039540848454567,0.09258262351969233,-2.0619827802696302,-1.6493027705023067
1773063091368470016,2.8238937854766846,0.6511692404747009,0.1373559832572937,0.10514653474092484,-0.879517138004303,-0.08724098652601242,0.46780186891555786,0.049149155616760254,-0.1682368963956833,-0.023740559816360474,0.32313231888038474,-0.6115459788617678,-0.5999270340739072,-0.40210017209461024,0.08735203257835102,-2.0596252918795326,-1.642476828670189
1773063091378525952,2.8339498043060303,0.22824490070343018,-0.08199367672204971,0.06751979142427444,-0.8796752095222473,-0.08442824333906174,0.46802088618278503,0.15909415483474731,-0.29917770624160767,-0.05791032314300537,0.3247113236689334,-0.6110424959556654,-0.6005310185661293,-0.40068960920030033,0.08452886858899591,-2.05974484340695,-1.6389423676512314
1773063091388580864,2.8440046310424805,-0.18829412758350372,-0.17980843782424927,0.023969268426299095,-0.8790652751922607,-0.08394210785627365,0.46925294399261475,0.1751314401626587,-0.30436357855796814,-0.02308589220046997,0.3244293386556588,-0.6114470050769252,-0.6006321899586358,-0.4001490521932412,0.08404100189225272,-2.061123884940982,-1.6390634913255493
1773063091398636800,2.854060649871826,-0.38877713680267334,-0.21020495891571045,-0.047754187136888504,-0.8780964612960815,-0.08551845699548721,0.470779687166214,0.11010622978210449,-0.24715369939804077,0.042983829975128174,0.32285046024705305,-0.6123031437059273,-0.6003954531241454,-0.4004720185212239,0.08562303761879379,-2.0629336175835724,-1.6417012079788238
1773063091408691968,2.8641157150268555,-0.28542953729629517,-0.12524330615997314,0.027655143290758133,-0.8772571086883545,-0.08739713579416275,0.47199755907058716,0.005385100841522217,-0.19556184113025665,0.10080206394195557,0.3211821044720507,-0.6131712882895235,-0.6000164579171141,-0.4010526885446671,0.08750878220057821,-2.0644092184255167,-1.6447912886154414
1773063091418747904,2.874171733856201,0.11679301410913467,-0.05964698642492294,0.12958283722400665,-0.8768998980522156,-0.08712535351514816,0.47271090745925903,-0.05350470542907715,-0.055071279406547546,0.0999360978603363,0.3207740561940974,-0.6137657081660776,-0.599705850027685,-0.4009345470088148,0.08723595893316262,-2.065209687142469,-1.6460670553907504
1773063091428803840,2.884227752685547,0.5509702563285828,0.016050055623054504,0.16007275879383087,-0.8769041299819946,-0.08418489247560501,0.47323593497276306,-0.05244779586791992,0.03091645985841751,0.06985491514205933,0.322061305197737,-0.6136987782781628,-0.5999931440160309,-0.3995730281493565,0.08428465200535996,-2.06567148476339,-1.6436889754706467
1773063091438858752,2.894282579421997,0.6426661014556885,0.07215753197669983,0.15766020119190216,-0.8772618174552917,-0.07980776578187943,0.4733315408229828,-0.0562404990196228,0.0012554898858070374,0.0160788893699646,0.32443594798183883,-0.6130906504449967,-0.6006543316705906,-0.39758729260014264,0.07989272969152378,-2.065585471716916,-1.6389780473911248
1773063091448914688,2.9043385982513428,0.42304617166519165,0.10971581935882568,0.16983389854431152,-0.877809464931488,-0.0758000910282135,0.4729749858379364,-0.07441550493240356,-0.017446406185626984,0.04622066020965576,0.32671498322164483,-0.6124876598763398,-0.6011209225390033,-0.3959418651072552,0.0758728625675322,-2.0650099935159947,-1.63484643381411
1773063091458970880,2.9143946170806885,0.27621251344680786,0.0980043038725853,0.21099811792373657,-0.8785030245780945,-0.07253032922744751,0.472199022769928,-0.07337087392807007,0.023320727050304413,0.07235664129257202,0.3284587643272331,-0.6123041228278364,-0.6009851714400775,-0.39498781324240406,0.07259406993427177,-2.0639952102366754,-1.6328629540741155
1773063091469025792,2.9244496822357178,0.31979554891586304,-0.00800447165966034,0.18743206560611725,-0.8788896203041077,-0.06933025270700455,0.47195979952812195,-0.019303619861602783,0.07262618839740753,-0.0025537610054016113,0.32993010912144055,-0.6123218388819444,-0.6008675912917976,-0.3939113054645096,0.06938591427055142,-2.0636005087913167,-1.631186560941352
1773063091479081984,2.9345057010650635,0.32293248176574707,-0.061418697237968445,0.08503352850675583,-0.8787612318992615,-0.0664982795715332,0.47260576486587524,0.026848018169403076,0.1878819763660431,-0.13958287239074707,0.3310849784050837,-0.6123002760347565,-0.6011582600092434,-0.3925298553103891,0.06654738955814823,-2.0642317545856566,-1.6289403508154057
1773063091489136896,2.9445607662200928,0.30534496903419495,-0.12040025740861893,-0.13725998997688293,-0.8782730102539062,-0.06531502306461334,0.4736775755882263,-0.0015029311180114746,0.30117014050483704,-0.13223162293434143,0.3316536499409138,-0.6119137255190923,-0.6019969880765547,-0.3913656309113024,0.06536154997976253,-2.0654094609648634,-1.6261536702670605
1773063091499192832,2.9546167850494385,0.5489360690116882,-0.0023093027994036674,-0.1594044417142868,-0.8778141140937805,-0.06478523463010788,0.47460034489631653,-0.03373080492019653,0.2815057933330536,-0.038229405879974365,0.3324079647492035,-0.6108307543166805,-0.6034782224653725,-0.39013441749717875,0.06483063833566118,-2.0664416420591785,-1.6215628765448575
1773063091509249024,2.964672803878784,0.5996062755584717,0.06415831297636032,-0.04632294550538063,-0.8779779076576233,-0.06283597648143768,0.47455939650535583,-0.07388073205947876,0.09680201858282089,-0.018886148929595947,0.33415243905793274,-0.6094783985443563,-0.604827061365176,-0.38866759580230864,0.0628773962572086,-2.066327502478246,-1.6159537137979558
1773063091519303680,2.9747276306152344,0.686926543712616,0.0426090806722641,-0.048457466065883636,-0.8781690001487732,-0.060195550322532654,0.4745480418205261,-0.04501825571060181,-0.01303139328956604,0.07724034786224365,0.3361593875093578,-0.6081692526408529,-0.6061387534761645,-0.3869404117750475,0.06023196333083973,-2.066226484322204,-1.6100630470091548
1773063091529359872,2.98478364944458,0.7691318988800049,0.09519720077514648,-0.07951709628105164,-0.8784378170967102,-0.057238370180130005,0.4744161367416382,0.02930152416229248,-0.0880710780620575,0.13669833540916443,0.33848181246506337,-0.6066034636931076,-0.607651472789887,-0.38499606414148485,0.05726967163491065,-2.065982222561773,-1.6032346510953601
1773063091539415808,2.994839668273926,0.8062132000923157,0.1800452470779419,-0.11120525002479553,-0.8790323138237,-0.054334718734025955,0.47365641593933105,0.05530160665512085,-0.07776065170764923,0.143576979637146,0.34111374670461403,-0.6046953901070325,-0.6092386199050485,-0.38316229926716744,0.05436149117587107,-2.065029865297194,-1.5957755414342898
1773063091549470976,3.004894733428955,0.7773712277412415,0.2585839629173279,-0.11158023774623871,-0.8800283670425415,-0.05154145509004593,0.47211623191833496,0.06687211990356445,-0.03744782507419586,0.10098868608474731,0.34400065514784267,-0.6025443796338701,-0.6107359339378456,-0.3815829014380445,0.051564304159613425,-2.0631990354054532,-1.5881507421922636
1773063091559526912,3.014950752258301,0.6104397773742676,0.2470484972000122,-0.10938659310340881,-0.8811994791030884,-0.04920235276222229,0.4701772630214691,0.06956923007965088,-0.049415212124586105,0.075065016746521,0.3467144484208114,-0.6004740841934574,-0.6119799824426978,-0.3803951500213072,0.04922222643196413,-2.060934050280814,-1.5813484947021208
1773063091569581824,3.025005578994751,0.29421132802963257,0.14729537069797516,-0.10244967043399811,-0.8820934295654297,-0.04797208309173584,0.4686257243156433,0.07864177227020264,-0.07997289299964905,0.07457190752029419,0.3485080472214078,-0.5989726171323395,-0.6128169894781286,-0.37977540090251,0.04799050038353362,-2.059142283805652,-1.5767983750569878
1773063091579637760,3.0350615978240967,-0.050452835857868195,0.07153696566820145,-0.10917016118764877,-0.8825109601020813,-0.04837146773934364,0.4677972197532654,0.08949661254882812,-0.07838326692581177,0.14351549744606018,0.3489701312570573,-0.5982353324132799,-0.613199066927199,-0.3798962022153845,0.04839035164657498,-2.0582136427051405,-1.5752147886572516
1773063091589693696,3.0451176166534424,-0.31629571318626404,0.06778950989246368,-0.052624139934778214,-0.8827618360519409,-0.049998119473457336,0.46715253591537476,0.08758068084716797,0.010645713657140732,0.2573651671409607,0.34842479055990044,-0.5982064759494685,-0.6129643323185401,-0.38081991772174645,0.05001897546399361,-2.057525683693261,-1.5765531543028366
1773063091599748864,3.0551726818084717,-0.3938389718532562,0.16011172533035278,-0.03821510821580887,-0.883262038230896,-0.052074793726205826,0.4659787714481354,0.08739423751831055,0.14536705613136292,0.30997639894485474,0.3475987916707211,-0.5984918767871993,-0.6122065544229974,-0.3823422807374383,0.052098358910419425,-2.0562525674566174,-1.5795646289868772
1773063091609804800,3.0652287006378174,-0.545918881893158,0.20333191752433777,0.0465521365404129,-0.884162425994873,-0.054286569356918335,0.46401500701904297,0.04422712326049805,0.07111699879169464,0.16998767852783203,0.34679512632178777,-0.5989017323591177,-0.6110026323884772,-0.38435102114162684,0.05431326696147929,-2.054092335532431,-1.5836335927827836
1773063091619860992,3.075284719467163,-0.6794404983520508,-0.03427531570196152,0.16664712131023407,-0.8846562504768372,-0.05613561347126961,0.462852418422699,0.08298993110656738,-0.007829230278730392,0.01294708251953125,0.34542129022922086,-0.6001830585182093,-0.6092671926472317,-0.3863392206386674,0.056165136216000826,-2.0528314694598047,-1.5897827972364686
1773063091629915904,3.0853397846221924,-0.8993304371833801,-0.2629345953464508,0.14527909457683563,-0.8840795755386353,-0.05836643651127815,0.4636771082878113,0.12994450330734253,-0.12528833746910095,-0.10718610882759094,0.3429139307711199,-0.6023228517890102,-0.6074913409793308,-0.38803534865804507,0.05839962502450867,-2.053831183766456,-1.597573671305866
1773063091639972096,3.095395803451538,-0.8747521042823792,-0.443697988986969,0.15326644480228424,-0.8824336528778076,-0.061450619250535965,0.46640607714653015,0.09503436088562012,-0.06791339814662933,-0.13091111183166504,0.3392745613671708,-0.6050219357919024,-0.605930274746328,-0.3894736280259663,0.061489361728969794,-2.0570184766682025,-1.6063535036913419
1773063091650027776,3.1054515838623047,-0.43040281534194946,-0.4221651554107666,0.2892726957798004,-0.880548894405365,-0.0627148449420929,0.4697878658771515,0.05666583776473999,0.2240917831659317,-0.0286409854888916,0.336321791187878,-0.6076845046051115,-0.6046598068521303,-0.3898637900189759,0.06275602991443326,-2.0608966946374534,-1.6134416350788823
1773063091660082944,3.115506649017334,0.2514881193637848,-0.30517515540122986,0.2640586793422699,-0.8789499402046204,-0.060379333794116974,0.47307661175727844,0.013974964618682861,0.3798525929450989,-0.017739057540893555,0.33557879092489834,-0.6094156379129043,-0.6042771575991147,-0.38839235845809444,0.06041608236823661,-2.0645576311253055,-1.6153644524704953
1773063091670138880,3.1255626678466797,0.952080488204956,-0.32160377502441406,0.28049924969673157,-0.8777970671653748,-0.05472439154982567,0.4758962094783783,-0.0740918517112732,0.30216094851493835,-0.006825864315032959,0.3373901005101604,-0.6095786802391193,-0.6052783950266961,-0.3849931034774225,0.054751742418327025,-2.067591404713637,-1.6104779067801653
1773063091680193792,3.135617733001709,1.0541166067123413,0.16156288981437683,0.18206827342510223,-0.8777141571044922,-0.04768120124936104,0.4768063426017761,-0.1286334991455078,0.07888543605804443,-0.0613248348236084,0.3408305216300724,-0.608702312005299,-0.6065349680948308,-0.3813546431209282,0.04769928524474587,-2.06843198219118,-1.602737819459576
1773063091690249984,3.1456737518310547,0.9109836220741272,0.09741666913032532,0.08431842923164368,-0.8784278631210327,-0.041791848838329315,0.4760441184043884,-0.2731376886367798,-0.04310806095600128,-0.029220938682556152,0.3445235473814482,-0.6071293068302039,-0.6077960663914436,-0.3785254299947327,0.04180402463422324,-2.0674206200133374,-1.5945943545106267
1773063091700305920,3.1557297706604004,0.8392151594161987,-0.02555719204246998,0.12864939868450165,-0.8785847425460815,-0.03683088719844818,0.47616392374038696,-0.1731119155883789,-0.14516068994998932,-0.037717998027801514,0.3473882653707761,-0.6059026320013311,-0.6090681156611485,-0.37581824011274645,0.03683921806763922,-2.0674512502324425,-1.5875231545880604
1773063091710360832,3.1657845973968506,0.9804081320762634,0.007323610596358776,0.24820339679718018,-0.8785582184791565,-0.03083268739283085,0.4766389727592468,-0.08108222484588623,-0.1766868382692337,-0.10922268033027649,0.35046021806446015,-0.6048930716399669,-0.6102654012725763,-0.3726367273326815,0.030837575581458748,-2.067881733119485,-1.5803085101609389
1773063091720416768,3.1758406162261963,0.9338062405586243,0.024854401126503944,0.24876904487609863,-0.8787534832954407,-0.02386089414358139,0.47667935490608215,-0.017944633960723877,-0.1896248310804367,-0.19312530755996704,0.3539857740035273,-0.6039200143733725,-0.6112448762893186,-0.3692620575152682,0.02386315862964038,-2.067824116700746,-1.5729446416918234
1773063091730472704,3.185896635055542,0.5868977904319763,-0.01103381160646677,0.13092897832393646,-0.8788097500801086,-0.018415896221995354,0.4768170118331909,0.027247190475463867,-0.1874556988477707,-0.11416137218475342,0.3567035868215755,-0.6031405314804452,-0.6120702562041418,-0.3665434424134609,0.018416936645503243,-2.0679182923318695,-1.5670608765681933
1773063091740527872,3.1959517002105713,0.16534975171089172,-0.027522508054971695,-0.022157495841383934,-0.8787086009979248,-0.016146482899785042,0.4770856201648712,0.046723008155822754,-0.1683780550956726,-0.03603023290634155,0.35787100425090246,-0.6026674180449128,-0.61264573241125,-0.365219936994274,0.016147185003070802,-2.0682026632607333,-1.5639826245888897
1773063091750583808,3.206007719039917,-0.17253535985946655,0.003387283533811569,-0.10728674381971359,-0.8786146640777588,-0.01685449667274952,0.47723379731178284,0.050810158252716064,-0.11054112017154694,-0.11824026703834534,0.35764484963510246,-0.6024970299026118,-0.6128737483165096,-0.3653398584144027,0.016855295631179563,-2.0683777495807267,-1.563747033135159
1773063091760638976,3.2160627841949463,-0.3896959125995636,0.1248074546456337,-0.12229286134243011,-0.8788951635360718,-0.019244683906435966,0.4766266942024231,0.04057729244232178,-0.10166597366333008,-0.10863053798675537,0.35676074988734235,-0.6025386377227496,-0.6125851308740139,-0.36661757984298005,0.01924587189884167,-2.0677102424711933,-1.5657178842364365
1773063091770694912,3.226118803024292,-0.6457447409629822,0.16754792630672455,-0.18733632564544678,-0.8796062469482422,-0.02301778458058834,0.4751450717449188,0.003370344638824463,-0.1781235635280609,-0.09752064943313599,0.35541116529933414,-0.6027066721596394,-0.6118146770187354,-0.36893128124712765,0.023019817010339998,-2.0660683901715404,-1.569527236009282
1773063091780750848,3.2361745834350586,-0.9381111264228821,0.12102410197257996,-0.27836155891418457,-0.8802390694618225,-0.028920358046889305,0.4736481308937073,-0.04484015703201294,-0.22690849006175995,-0.11167925596237183,0.3530032618610009,-0.603120491489574,-0.6107943544251486,-0.3722426015796616,0.02892439041433313,-2.0644498829441393,-1.5754360478484526
1773063091790805760,3.246229648590088,-1.0051645040512085,0.0572868250310421,-0.2849893271923065,-0.88057541847229,-0.03618441894650459,0.47252243757247925,-0.06253969669342041,-0.18802820146083832,-0.13084763288497925,0.34972931293914167,-0.6038222919511872,-0.6096391221921446,-0.3760693123952207,0.03619232115479336,-2.0632984577801734,-1.582863498603195
1773063091800861952,3.2562856674194336,-0.7463628053665161,0.035658229142427444,-0.18925052881240845,-0.8806639909744263,-0.04260767623782158,0.4718218147754669,-0.053173959255218506,-0.172251358628273,-0.14615339040756226,0.34665747286269605,-0.6045738124887111,-0.6086061224278562,-0.37936500915151683,0.04262057672042974,-2.0626386035698734,-1.5896691924523538
1773063091810917888,3.2663416862487793,-0.24276767671108246,0.04471215233206749,-0.08640914410352707,-0.8807312846183777,-0.04607249051332474,0.4713703691959381,-0.06941837072372437,-0.15274955332279205,-0.10729557275772095,0.34502040626360037,-0.604951433915262,-0.6080451812391041,-0.3811506798210343,0.04608880445437194,-2.0622084371616936,-1.5933062829456204
1773063091820972800,3.2763967514038086,0.017475614324212074,0.36684465408325195,0.02911558747291565,-0.8816238641738892,-0.046857550740242004,0.4696210026741028,-0.1316819190979004,-0.02347022294998169,0.030729949474334717,0.3452199725754764,-0.6046741249097851,-0.607601597766864,-0.38211611080220736,0.04687471321170037,-2.060242742401994,-1.5941110837353651
1773063091831028992,3.2864527702331543,0.21055927872657776,0.8920866250991821,0.03706952556967735,-0.8845650553703308,-0.04593464732170105,0.4641495645046234,-0.19850391149520874,0.15697284042835236,0.19496911764144897,0.3475582024699788,-0.6033971436672888,-0.6066190418454964,-0.38357343702610397,0.045950817415264335,-2.0540243001083462,-1.5932553072357862
1773063091841083648,3.2965075969696045,0.5962049961090088,1.2061824798583984,0.05383465811610222,-0.8895623683929443,-0.043775174766778946,0.4547119736671448,-0.18767786026000977,0.08996349573135376,0.24241650104522705,0.35208485622454627,-0.6007732848464401,-0.6053325048211036,-0.3855909945337798,0.043789166759252346,-2.0433349388860993,-1.590033860078169
1773063091851139840,3.30656361579895,0.9172567129135132,1.0266153812408447,-0.02014048397541046,-0.8947039842605591,-0.040037497878074646,0.4448617398738861,-0.09983348846435547,-0.21988072991371155,0.3277670741081238,0.3579393133600877,-0.5972365511413463,-0.6047638951992219,-0.38658589282259365,0.040048203103945135,-2.0322147862231446,-1.5830867909407018
1773063091861195776,3.316619634628296,0.7171987295150757,0.9747437238693237,0.04820581525564194,-0.8990164399147034,-0.03623387962579727,0.4364135265350342,0.02395528554916382,-0.2566738426685333,0.3009064793586731,0.36346275413023144,-0.5937965010988445,-0.6046589737884492,-0.3868955247363291,0.036241811764134754,-2.0227237114816004,-1.5753642054137125
1773063091871250944,3.326674699783325,0.37587159872055054,1.1708414554595947,-0.007477732375264168,-0.9036941528320312,-0.03351857513189316,0.42686501145362854,0.0717695951461792,-0.03134656324982643,0.08370941877365112,0.36843098057661255,-0.590807452758117,-0.6036381852272912,-0.38836353149514635,0.03352485591766588,-2.012084873768467,-1.5705555491882712
1773063091881306880,3.336730718612671,1.1022555828094482,0.8135392665863037,0.032862234860658646,-0.9079738855361938,-0.030386298894882202,0.41792377829551697,0.0621180534362793,-0.08097235858440399,-0.24482804536819458,0.37361049712474315,-0.5875580525464228,-0.6031064803287199,-0.38917009403002684,0.03039097714284598,-2.0021675700972787,-1.5641488630377227
1773063091891362816,3.3467867374420166,1.4709062576293945,0.8226077556610107,0.40294212102890015,-0.9113816022872925,-0.02277023158967495,0.41093188524246216,0.15289771556854248,-0.3163716197013855,-0.14822137355804443,0.3804088154655574,-0.5841539777605834,-0.6035147648714034,-0.3870699636614749,0.022772198880790302,-1.9943892525381923,-1.5529087877515957
1773063091901417984,3.356841802597046,1.1505728960037231,0.896568238735199,0.5761194825172424,-0.9149810075759888,-0.012623339891433716,0.4032991826534271,0.14013975858688354,-0.2082781344652176,0.0098477303981781,0.38789498460629823,-0.5814812485191783,-0.6029337834096308,-0.38456184767871376,0.01262367494163339,-1.9859508791542135,-1.5428069546563064
