time,seconds_elapsed,rotationRateX,rotationRateY,rotationRateZ,gravityX,gravityY,gravityZ,accelerationX,accelerationY,accelerationZ,quaternionW,quaternionX,quaternionY,quaternionZ,pitch,roll,yaw
1773062938174135040,0.02306199073791504,0.8405563235282898,0.2957306206226349,-0.22117309272289276,-0.13769449293613434,-0.6818861365318298,0.7183810472488403,0.09861674904823303,0.057466089725494385,0.07121545076370239,-0.01496308343813635,-0.2195567069844448,-0.9005472588993723,-0.37494738249756926,0.7503381829381575,-2.95221615741469,-0.5530461199865887
1773062938184189696,0.033116817474365234,0.9793878197669983,0.24136625230312347,-0.3037143051624298,-0.13792189955711365,-0.67547607421875,0.7243686318397522,0.07726819813251495,0.015472352504730225,0.09609657526016235,-0.013171529766486183,-0.21792250690992485,-0.902604062860597,-0.3710017133407373,0.7416101106195837,-2.9534418642360576,-0.5471423813182568
1773062938194245888,0.04317283630371094,-0.7074757218360901,-0.12918464839458466,0.01434064470231533,-0.13899685442447662,-0.6746154427528381,0.7249645590782166,0.08441619575023651,0.0034729838371276855,0.08983945846557617,-0.011945914562419313,-0.21661536003190765,-0.9030836500490861,-0.3706412415811498,0.7404435970912013,-2.952162324661624,-0.5445373864824277
1773062938204301824,0.05322885513305664,-1.2819491624832153,-0.2516983151435852,0.4791645109653473,-0.1392398625612259,-0.6816985607147217,0.7182612419128418,0.08366736769676208,-0.047869861125946045,0.20181316137313843,-0.013433741670737723,-0.2178776704747929,-0.9009217099491789,-0.37508515421557753,0.7500817068038704,-2.9501108810526393,-0.5501419771696302
1773062938214356992,0.06328392028808594,-1.3963249921798706,-0.30786386132240295,0.7213329672813416,-0.14146800339221954,-0.6906418204307556,0.709225058555603,0.16347119212150574,-0.16294991970062256,0.27136558294296265,-0.015191594765242553,-0.22144444313190711,-0.8975382381562526,-0.38099415243050166,0.7623761657701684,-2.9447082817051085,-0.5629104255255324
1773062938224412928,0.07333993911743164,-1.2532646656036377,-0.2166903018951416,0.22452066838741302,-0.14300450682640076,-0.6994437575340271,0.700234591960907,0.34042268991470337,0.0016592741012573242,0.11543935537338257,-0.01690462275214464,-0.22395763388621504,-0.8944049903560957,-0.38677774811819915,0.7746188665492035,-2.940139167097004,-0.5731152937860022
1773062938234467840,0.08339476585388184,-0.6651886105537415,-0.03208956494927406,0.25211581587791443,-0.143442764878273,-0.7060118913650513,0.6935209631919861,0.2941385507583618,0.16026604175567627,0.11578989028930664,-0.01824144320755191,-0.22503833297298412,-0.8922545721663933,-0.3910329230761821,0.7838509284357414,-2.937635957473354,-0.5786609357458937
1773062938244523776,0.09345078468322754,-0.2844615876674652,0.09061833471059799,0.43792858719825745,-0.1462579071521759,-0.7086010575294495,0.6902846693992615,0.2107720673084259,0.15972721576690674,0.013389527797698975,-0.01785755493268014,-0.22649818013413078,-0.8909775082793442,-0.39311411200804786,0.7875136480423455,-2.93280001870857,-0.5848851578491044
1773062938254579712,0.10350680351257324,-0.19766837358474731,0.07209045439958572,0.5303269624710083,-0.15028059482574463,-0.7094781398773193,0.6885177493095398,0.22745956480503082,0.12552428245544434,-0.08349144458770752,-0.016794262970790935,-0.22848246043719891,-0.8899745175118997,-0.3942830676022929,0.7887574407436548,-2.92669609016015,-0.592325730180159
1773062938264634880,0.11356186866760254,-0.2793654799461365,0.05974946171045303,0.6447880864143372,-0.15493331849575043,-0.7101666927337646,0.6867741346359253,0.21898971498012543,0.08167248964309692,-0.03215688467025757,-0.01559737275703402,-0.23096102271194222,-0.8888442412606339,-0.3954359464363087,0.7897349565546655,-2.919711268002216,-0.6012292822248548
1773062938274690816,0.12361788749694824,-0.5133907794952393,0.0037796692922711372,0.7210388779640198,-0.16005943715572357,-0.7117453217506409,0.6839587688446045,0.26111841201782227,0.04481416940689087,0.010026216506958008,-0.01453057858448933,-0.2339127344145265,-0.8872791007126698,-0.3972524209515343,0.7919797488406968,-2.9117104137362304,-0.6119874732918523
1773062938284747008,0.13367390632629395,-0.7760239243507385,-0.0993620976805687,0.8487054109573364,-0.16532041132450104,-0.7149417996406555,0.6793577671051025,0.2925329804420471,-0.0016107559204101562,0.048944056034088135,-0.01395455693104583,-0.23743287129869753,-0.8850449288871621,-0.40015779671561286,0.7965408609549008,-2.902884358660602,-0.6250332881077927
1773062938294801920,0.14372897148132324,-0.8512859344482422,-0.14031672477722168,1.0018399953842163,-0.17113836109638214,-0.718995988368988,0.6736141443252563,0.29954108595848083,-0.05409044027328491,0.0928499698638916,-0.013645635104550522,-0.2417590875869474,-0.8822469066877519,-0.4037407611962225,0.8023566452543497,-2.892796544041876,-0.6409053649406127
1773062938304857856,0.15378499031066895,-0.7184146642684937,-0.09612777084112167,1.0760340690612793,-0.1778251975774765,-0.722538411617279,0.6680691242218018,0.3195030689239502,-0.05894041061401367,0.09270352125167847,-0.013060307248320531,-0.246567292851536,-0.8793401741222373,-0.40717911255454664,0.8074670571455997,-2.8814466968121044,-0.6584093418261607
1773062938314912768,0.16383981704711914,-0.5216994285583496,-0.020380016416311264,1.104756236076355,-0.18531742691993713,-0.7246477603912354,0.6637337803840637,0.3153833746910095,-0.03700977563858032,0.05133867263793945,-0.011852871548746619,-0.25142303787787884,-0.8767287732280267,-0.40986884551731817,0.810523155556378,-2.8693218009066976,-0.6759568028330464
1773062938324968704,0.17389583587646484,-0.43495625257492065,0.04400128498673439,1.2382677793502808,-0.1939389854669571,-0.7255386710166931,0.6602892279624939,0.3023068904876709,-0.02684187889099121,-0.0006820559501647949,-0.00996365675308523,-0.25649667716717894,-0.8742734573820848,-0.41201488911830136,0.8118167910190283,-2.855908882297159,-0.6942145210254878
1773062938335023872,0.18395090103149414,-0.48497068881988525,0.0019081615610048175,1.3841811418533325,-0.20369121432304382,-0.7259340882301331,0.6569092273712158,0.3257310092449188,-0.03526586294174194,-0.01620793342590332,-0.007713192006067964,-0.26217415369570685,-0.8716187897954731,-0.4141085938128545,0.8123915361099239,-2.840918431566757,-0.714486703809529
1773062938345079808,0.19400691986083984,-0.5682835578918457,-0.06856050342321396,1.522822618484497,-0.21405363082885742,-0.7263472080230713,0.6531469821929932,0.3617129325866699,-0.062074482440948486,0.00034111738204956055,-0.005543583561666416,-0.2685870714036341,-0.8685818828989463,-0.41640825792008973,0.8129924343081765,-2.824896632620442,-0.7370604395130615
1773062938355136000,0.20406293869018555,-0.6428467631340027,-0.06177902966737747,1.6516541242599487,-0.2251921445131302,-0.7268306016921997,0.6488500237464905,0.3919248878955841,-0.07312685251235962,-0.004349052906036377,-0.0033458149502299766,-0.27563166644255765,-0.8651313217670873,-0.4190035344036099,0.8136959715180526,-2.807536287773563,-0.7619069162256151
1773062938365190656,0.21411776542663574,-0.5925158262252808,-0.0728657990694046,1.8003356456756592,-0.2373291701078415,-0.7268869280815125,0.6444454789161682,0.3989045321941376,-0.081737220287323,0.03452479839324951,-0.0008857907970794384,-0.28324852727845895,-0.8613901568799868,-0.4216353788348653,0.813778005588615,-2.7887363007983916,-0.7887344507956666
1773062938375246848,0.22417378425598145,-0.4986470937728882,-0.012864776886999607,1.945959448814392,-0.25074347853660583,-0.7257831692695618,0.6405985951423645,0.38878974318504333,-0.11631888151168823,0.11297202110290527,0.0021217516204739607,-0.2914615649266359,-0.8575251966052913,-0.4239059157043721,0.8121721947466388,-2.7685041467187075,-0.8172291991389247
1773062938385302784,0.23422980308532715,-0.4349341094493866,0.0011196706909686327,2.0636885166168213,-0.265302449464798,-0.7236155271530151,0.6371772885322571,0.35273534059524536,-0.1505604386329651,0.14053255319595337,0.005687392624791432,-0.30007267619092975,-0.8535485023381335,-0.425886045889296,0.8090263934700417,-2.7470530790703735,-0.8468474638908631
1773062938395357952,0.24428486824035645,-0.2728336453437805,-0.03814970329403877,2.179882049560547,-0.280624121427536,-0.7200871109962463,0.6346057057380676,0.2879331111907959,-0.1734979748725891,0.1746898889541626,0.009625486549508663,-0.3092161785068353,-0.8495223399180832,-0.42732237080310315,0.8039278193353981,-2.7252421720067437,-0.8772797748439781
1773062938405413888,0.25434088706970215,-0.05286073312163353,-0.0643724799156189,2.270721197128296,-0.29631346464157104,-0.7147290110588074,0.6335301399230957,0.22838136553764343,-0.17284411191940308,0.15277040004730225,0.013908583465499641,-0.31880379412644577,-0.845653126860756,-0.42783334492197056,0.7962365462603354,-2.704102505873109,-0.9074786132193172
1773062938415469056,0.26439595222473145,0.5162927508354187,0.0036632956471294165,2.3520970344543457,-0.31254199147224426,-0.7061141729354858,0.6353896260261536,0.15314874053001404,-0.1406264305114746,0.04986727237701416,0.019054290940544533,-0.328732537249758,-0.8423952313702044,-0.4265466362329151,0.7839953880358351,-2.6844538065466117,-0.93586998583893
1773062938425524992,0.27445197105407715,0.4704781174659729,0.26069319248199463,2.244584083557129,-0.3297502398490906,-0.695378303527832,0.6385249495506287,0.07894152402877808,-0.08620744943618774,-0.2132928967475891,0.02546005926062128,-0.3381463799650684,-0.8395948410422043,-0.42436943941034555,0.7689462171542896,-2.664891546614906,-0.9617340214793828
1773062938435580928,0.28450798988342285,0.6469602584838867,0.34963902831077576,2.0613796710968018,-0.3465302288532257,-0.6846513152122498,0.6412249803543091,-0.016613662242889404,-0.06882768869400024,-0.3669177293777466,0.03220727999257705,-0.34644064830729965,-0.8370133681796776,-0.4223153291553316,0.754125221517043,-2.6461349634893563,-0.9845199497329539
1773062938445635840,0.29456281661987305,0.8641913533210754,0.4685172736644745,2.180164098739624,-0.3635060489177704,-0.6722078919410706,0.6449804902076721,-0.08946633338928223,-0.16427886486053467,-0.2638922333717346,0.03971529235257206,-0.35427109723201683,-0.8348546144504273,-0.4194430084634966,0.7371869558702938,-2.6283737857927276,-1.0046486935466101
1773062938455691776,0.30461883544921875,1.0992952585220337,0.5728966593742371,2.37914776802063,-0.3822464942932129,-0.6573123335838318,0.6494826078414917,-0.09065386652946472,-0.13878434896469116,-0.1675187349319458,0.048494133718877425,-0.36252215705225066,-0.8326577951268911,-0.4158207228414913,0.7172468432950394,-2.609642267518736,-1.0247837646266205
1773062938465746944,0.31467390060424805,1.3174625635147095,0.541964590549469,2.4452242851257324,-0.40167099237442017,-0.6398137807846069,0.6552088260650635,-0.08537426590919495,-0.12192016839981079,-0.002361595630645752,0.05810065407763176,-0.37112757443482747,-0.8305833653347975,-0.4111202634139776,0.694255952967429,-2.5916380560299577,-1.043852894411097
1773062938475802880,0.32472991943359375,1.4672006368637085,0.471531480550766,1.9094724655151367,-0.41876187920570374,-0.6231706142425537,0.6605275273323059,-0.03544643521308899,-0.12034428119659424,0.16822296380996704,0.06704472530353943,-0.3783690996185213,-0.8289153086060672,-0.4064986650574901,0.6727902536208662,-2.5765611831291033,-1.058751671712904
1773062938485858816,0.33478593826293945,1.234772801399231,0.1962173879146576,2.635632038116455,-0.43609368801116943,-0.6030941605567932,0.6679074168205261,0.09418994188308716,-0.13756757974624634,0.24435478448867798,0.07620501741217248,-0.3872682653929725,-0.8270290210338724,-0.4002989689809694,0.6473744433158228,-2.5631636863122402,-1.0748708020984499
1773062938495913728,0.34484076499938965,1.583784818649292,0.5114101767539978,2.8419029712677,-0.45443207025527954,-0.5803858041763306,0.675754189491272,-0.0033010542392730713,0.12355297803878784,0.29075270891189575,0.08599030311029067,-0.39737081097704774,-0.8246050772435706,-0.3933555034900737,0.6192023894163136,-2.5495753142129844,-1.0926093985378886
1773062938505969664,0.35489678382873535,1.5061686038970947,0.6389642953872681,1.8554507493972778,-0.4715817868709564,-0.5582132935523987,0.6826483011245728,-0.16556423902511597,-0.11758321523666382,-0.008133411407470703,0.09623175755723282,-0.4051299060767184,-0.8229179231953303,-0.3865428007114399,0.5922307665990989,-2.537059649978079,-1.1046450329672057
1773062938516024832,0.36495184898376465,2.060731887817383,1.218554139137268,1.7898647785186768,-0.48745641112327576,-0.5376952886581421,0.6879460215568542,-0.43740928173065186,-0.32181692123413086,0.0650903582572937,0.10685351887578,-0.40990671663895495,-0.8221614837274893,-0.3802752113797679,0.5677012607473628,-2.5251395958713956,-1.110234426637023
1773062938526080768,0.37500786781311035,2.2124714851379395,1.228492021560669,2.205176830291748,-0.5065901875495911,-0.5129208564758301,0.6930214762687683,-0.3612229824066162,-0.1670566201210022,-0.2582070231437683,0.12022930608110997,-0.4144446641737585,-0.8214294584198328,-0.37287295941732734,0.5385839025336261,-2.5103708328624523,-1.1143011463573067
1773062938536136960,0.38506388664245605,2.168137788772583,0.9956571459770203,2.5480828285217285,-0.5261966586112976,-0.4850887954235077,0.6984313726425171,-0.09778112173080444,-0.02894940972328186,-0.08002299070358276,0.13376160116022082,-0.4209172094320514,-0.8197831370557711,-0.3645439253237257,0.506464719054816,-2.495920524537608,-1.1214176010814743
1773062938546191872,0.39511895179748535,1.8767144680023193,0.9721928834915161,2.524597406387329,-0.5449833869934082,-0.45707443356513977,0.7029057145118713,0.14175450801849365,-0.01715359091758728,-0.07882112264633179,0.146643043759985,-0.4282212909533888,-0.8173612296838756,-0.3564310133142401,0.47470314457563956,-2.48207689996492,-1.13039339870171
1773062938556248064,0.40517497062683105,1.5634878873825073,0.9729478359222412,2.457484006881714,-0.5628118515014648,-0.4312632083892822,0.7051635384559631,0.09227645397186279,-0.029964327812194824,-0.20649081468582153,0.1586313797319883,-0.43540956287871263,-0.8142482839292514,-0.3496491474096863,0.44589239838971145,-2.4679932821036252,-1.140532718563474
1773062938566302720,0.41522979736328125,1.1947542428970337,1.0087735652923584,2.464076519012451,-0.5801457762718201,-0.40729933977127075,0.7053641080856323,0.024313747882843018,-0.01633051037788391,-0.270244300365448,0.1700214773358968,-0.4425239370731604,-0.8104656882550754,-0.34410863836426947,0.41949505541225307,-2.453295705189578,-1.1518535940373704
1773062938576358912,0.42528581619262695,0.6267810463905334,0.9716194868087769,2.5019330978393555,-0.5970950126647949,-0.38615819811820984,0.7031069397926331,-0.016933858394622803,0.0048716068267822266,-0.19303613901138306,0.18035901292512357,-0.45014013744301823,-0.805560254517053,-0.34046606908395355,0.39646309140229913,-2.437549511111991,-1.166435896099831
1773062938586414848,0.43534183502197266,0.1757793426513672,0.9687190055847168,2.454392910003662,-0.6132955551147461,-0.3682798147201538,0.6987406611442566,-0.029541969299316406,0.02491128444671631,-0.07128405570983887,0.18937322303172902,-0.45816312156453337,-0.7996604891018677,-0.3387734464425718,0.3771581243683914,-2.4212267108842758,-1.1840836273602895
1773062938596469760,0.44539690017700195,-0.08666454255580902,1.0207990407943726,2.3998608589172363,-0.6290084719657898,-0.3529391288757324,0.6926634311676025,-0.05566871166229248,0.045962780714035034,-0.019170939922332764,0.1975342647757968,-0.4661447699164386,-0.7931208958555742,-0.3385979813616421,0.36071054362681426,-2.404319742145091,-1.2033436906346209
1773062938606525952,0.45545291900634766,-0.20621436834335327,1.1140114068984985,2.410529851913452,-0.6447709202766418,-0.3386506736278534,0.6852635741233826,-0.06245863437652588,0.16914081573486328,0.03786569833755493,0.2055106881146988,-0.4739936564287646,-0.7861054628258175,-0.33931337380753346,0.34548245936035143,-2.3866298991041353,-1.2233337990722584
1773062938616580864,0.46550798416137695,-0.2910544276237488,1.2043261528015137,2.3683483600616455,-0.6606669425964355,-0.3246147632598877,0.6768635511398315,-0.04787486791610718,0.2811730206012726,0.11465555429458618,0.21355669519170767,-0.48169837456482584,-0.7787158981803736,-0.340531504045653,0.3306044095095304,-2.3683032425004913,-1.2435720780896855
1773062938626636800,0.47556376457214355,-0.4391573369503021,1.2930349111557007,2.256779909133911,-0.6764945983886719,-0.31151822209358215,0.6673166155815125,-0.024982452392578125,0.30512478947639465,0.15911471843719482,0.22150925967699567,-0.48894750150972616,-0.7710957394011206,-0.342454892928512,0.31679033685392877,-2.3493647500001087,-1.2636338859559482
1773062938636692736,0.48561978340148926,-0.7063314914703369,1.316408395767212,2.125380516052246,-0.6919354796409607,-0.3002164363861084,0.6565787196159363,-0.04294306039810181,0.2512204349040985,0.221946120262146,0.22893218779294133,-0.4957900106476781,-0.7632048303923608,-0.34539941727925,0.3049195358128758,-2.329981439133914,-1.2840534240606727
1773062938646747904,0.49567484855651855,-1.0005539655685425,1.2796977758407593,1.9576197862625122,-0.7064852714538574,-0.2914906144142151,0.6449122428894043,-0.05860567092895508,0.1730061173439026,0.2545781135559082,0.23528928634013493,-0.5023121679557483,-0.7550752364863562,-0.34954660360639184,0.2957847653897353,-2.310663516944879,-1.3052938984605518
1773062938656803840,0.5057308673858643,-1.1678105592727661,1.2645936012268066,1.800096035003662,-0.7200741171836853,-0.2850760221481323,0.6326332092285156,-0.06909513473510742,0.1401175558567047,0.2344931960105896,0.24061832391896654,-0.5084550914437473,-0.7468534173489451,-0.3546634713266509,0.2890857459302234,-2.2916428854119184,-1.326997306822107
1773062938666859008,0.5157859325408936,-1.1700540781021118,1.2480486631393433,1.6879569292068481,-0.7328777313232422,-0.27985242009162903,0.6201395988464355,-0.06428724527359009,0.16553351283073425,0.16744285821914673,0.24536414596355227,-0.5141338780750453,-0.7387395715602034,-0.36017594637582806,0.28364037183609725,-2.273063035991226,-1.3482665939865963
1773062938676914944,0.5258419513702393,-0.9875812530517578,1.2770049571990967,1.6483112573623657,-0.7452511191368103,-0.27427583932876587,0.6077612638473511,-0.03354227542877197,0.20849516987800598,0.0744134783744812,0.2501940544544737,-0.5193210001561944,-0.7308805130170628,-0.365407116757436,0.27783657149621743,-2.254924527556454,-1.368125954816342
1773062938686970880,0.535897970199585,-0.7536544799804688,1.280768871307373,1.6099739074707031,-0.7574055790901184,-0.2672578692436218,0.5957436561584473,-0.002619624137878418,0.21446239948272705,-0.019785284996032715,0.2555858281487452,-0.5240103802308915,-0.7233843708375205,-0.36987053752072513,0.2705462722616767,-2.237287201868406,-1.385836126179112
1773062938697025792,0.5459527969360352,-0.6980700492858887,1.2461427450180054,1.5539518594741821,-0.7690748572349548,-0.25940632820129395,0.5841510891914368,0.008271515369415283,0.15981215238571167,-0.04345577955245972,0.26121512307102684,-0.5282759585703608,-0.7162402120348923,-0.37375287143136887,0.2624074422302006,-2.2203816747861502,-1.4017673595551525
1773062938707081728,0.5560088157653809,-0.864885151386261,1.2083686590194702,1.5180200338363647,-0.7801283597946167,-0.2519667446613312,0.5726366639137268,0.01894354820251465,0.1075575053691864,-0.013127386569976807,0.2664368411515839,-0.532470146063929,-0.709079607765138,-0.3777474711963579,0.2547120194503792,-2.2039972714494773,-1.4177145919832366
1773062938717137920,0.5660648345947266,-1.1538234949111938,1.1623218059539795,1.491330623626709,-0.7906273007392883,-0.24583800137043,0.5607779622077942,-0.0027686357498168945,0.047489017248153687,0.06895214319229126,0.2707936795005203,-0.5368999632540353,-0.7015179395022001,-0.38246793011139835,0.24838412477730967,-2.1877249297616626,-1.43532408117036
1773062938727192832,0.5761198997497559,-1.4506062269210815,1.101171851158142,1.461105227470398,-0.8005520105361938,-0.24132874608039856,0.5485222339630127,-0.0393373966217041,0.005946710705757141,0.10093754529953003,0.27407950454302377,-0.5416625662545821,-0.693442706823169,-0.388096919583385,0.24373482888923753,-2.171506596636926,-1.455163825313447
1773062938737249024,0.5861759185791016,-1.6822313070297241,1.0431729555130005,1.4097634553909302,-0.8098401427268982,-0.2383168637752533,0.536063015460968,-0.059239327907562256,0.02272549271583557,0.11927127838134766,0.2762919418696834,-0.546707769695967,-0.6849395081066122,-0.3945010924868194,0.24063241321319648,-2.1555172786792975,-1.4770013314643173
1773062938747303936,0.5962309837341309,-1.6861286163330078,0.9891294836997986,1.357189655303955,-0.8185572624206543,-0.23617684841156006,0.5236262679100037,-0.0434880256652832,0.10614146292209625,0.11428260803222656,0.2778127921656988,-0.5517487532418072,-0.6763035245535637,-0.4012566528531717,0.23842950628240517,-2.1398925107767552,-1.4995906454513364
1773062938757359616,0.6062867641448975,-1.2911996841430664,0.9561811089515686,1.3261531591415405,-0.8266919255256653,-0.23300908505916595,0.5121399164199829,-0.011686980724334717,0.20885443687438965,0.06316220760345459,0.27955445283409563,-0.5564243651014398,-0.6681780389240097,-0.40716012376761085,0.23517080064827198,-2.1254345541857638,-1.5201562738207306
1773062938767415808,0.6163427829742432,-0.7888842821121216,1.0167380571365356,1.3208900690078735,-0.8347508907318115,-0.22733047604560852,0.5015099048614502,0.012652993202209473,0.22993968427181244,-0.05479353666305542,0.2826284968727637,-0.5602605310104043,-0.6609561886464582,-0.41154139600392664,0.2293355100043001,-2.1117964122838235,-1.5364056690467138
1773062938777470720,0.6263978481292725,-0.36903294920921326,0.974855899810791,1.326165795326233,-0.8427570462226868,-0.21907192468643188,0.4916992485523224,0.018706142902374268,0.17677456140518188,-0.1322784423828125,0.28706621796273446,-0.5633803250094194,-0.6545626244497565,-0.4144193555431309,0.22086318695564935,-2.098951297889608,-1.5485353721992234
1773062938787526912,0.6364538669586182,0.02809567004442215,0.6159446239471436,1.2367186546325684,-0.8494299650192261,-0.20905673503875732,0.48452436923980713,0.01056283712387085,0.03249730169773102,-0.17818894982337952,0.2918741674758335,-0.5661273637433543,-0.649432051893228,-0.41538805738926,0.2106102771700963,-2.0891751590579712,-1.556576509874183
1773062938797581824,0.6465089321136475,0.09217105805873871,0.47518348693847656,1.1180039644241333,-0.854397714138031,-0.19859760999679565,0.48017024993896484,-0.07159709930419922,-0.14278726279735565,-0.21756651997566223,0.2962770613530354,-0.5687289809357822,-0.6454707390359211,-0.41489124691319873,0.1999268283485781,-2.082804772357043,-1.561791645077594
1773062938807638016,0.6565649509429932,-0.09464529901742935,0.30414018034935,1.1446895599365234,-0.8584477305412292,-0.18884479999542236,0.47687003016471863,-0.12235665321350098,-0.18099771440029144,-0.3704247772693634,0.2999000352713864,-0.5715598594494835,-0.6416808777044689,-0.4142763645945986,0.18998564519052044,-2.0778544573962434,-1.5673453853410833
1773062938817693952,0.6666209697723389,-0.38939571380615234,0.1474403291940689,0.9687404036521912,-0.8615413308143616,-0.18071867525577545,0.4744334816932678,-0.0022739171981811523,-0.08363981544971466,-0.3520733416080475,0.3021899251252254,-0.5748806809242086,-0.6377530476427329,-0.41408267185050773,0.1817171054662486,-2.0741613757485404,-1.5747662149623458
1773062938827748864,0.6766757965087891,-0.69091796875,0.1123126968741417,0.8104200959205627,-0.8635997772216797,-0.1758054494857788,0.4725336730480194,0.04314994812011719,0.0036862939596176147,-0.33018434047698975,0.3027556294059305,-0.5782526292095729,-0.6339485227246964,-0.4148159585211523,0.17672390270920157,-2.0714622005633756,-1.5838975117474996
1773062938837804800,0.6867318153381348,-0.7697616219520569,0.12426230311393738,0.9822365641593933,-0.8657614588737488,-0.17169824242591858,0.47008198499679565,-0.02295631170272827,0.01964437961578369,-0.2079663872718811,0.30280837080296497,-0.5819459691769646,-0.6295870743280085,-0.4162525615207288,0.17255325401252847,-2.0682257470766685,-1.5950128940023192
1773062938847859968,0.6967868804931641,-0.5879810452461243,0.008974157273769379,1.069162130355835,-0.8678271770477295,-0.1658904105424881,0.4683552086353302,-0.05296456813812256,0.024243056774139404,-0.22052186727523804,0.3031708047347918,-0.5861291097800696,-0.6250042207892259,-0.4170250893747719,0.16666086791148457,-2.0656873889499177,-1.6062088080866128
1773062938857915904,0.7068428993225098,-0.25546810030937195,0.06872830539941788,1.0674558877944946,-0.8697003722190857,-0.1585826426744461,0.4674105644226074,-0.08318042755126953,-0.0245228111743927,-0.2389407753944397,0.3042347590415623,-0.590058729936758,-0.620915431381943,-0.41681633803167284,0.15925496301520492,-2.0639443595903124,-1.6151827264219987
1773062938867971840,0.7168989181518555,0.08361584693193436,0.08659960329532623,1.049141526222229,-0.8717480301856995,-0.1497826874256134,0.4664980173110962,-0.08041560649871826,-0.015469968318939209,-0.2974459230899811,0.30642589274661486,-0.5933218122462509,-0.6174287283249835,-0.4157573093157934,0.15034847111985583,-2.062150931111269,-1.6211552993080087
1773062938878027008,0.7269539833068848,0.40277546644210815,0.09637047350406647,0.9844031929969788,-0.8736401200294495,-0.13969534635543823,0.4660884141921997,-0.05775648355484009,-0.0031727254390716553,-0.26961618661880493,0.3095756605009072,-0.5958814831933263,-0.6147922106883864,-0.413665091070823,0.1401537353207625,-2.0608846413579376,-1.6237268989724258
1773062938888082688,0.7370097637176514,0.5050844550132751,0.13090723752975464,1.0062804222106934,-0.8755273222923279,-0.12880170345306396,0.46568500995635986,-0.09819728136062622,-0.05958336591720581,-0.2028827667236328,0.3133935495676333,-0.5979589408848155,-0.6126072277138827,-0.4110257183072018,0.12916052101118558,-2.0596299877577726,-1.6242609856899681
1773062938898138368,0.7470653057098389,0.4294333755970001,0.09385760128498077,1.0241817235946655,-0.8773240447044373,-0.11762572079896927,0.46525996923446655,-0.14828020334243774,-0.09219790995121002,-0.11037111282348633,0.31726643969844703,-0.6000973461792168,-0.6103385577880337,-0.4083038901024189,0.11789866184891848,-2.058402449358288,-1.6248555304269303
1773062938908194304,0.7571213245391846,0.29779666662216187,0.016655858606100082,1.0173226594924927,-0.8787358403205872,-0.10688567906618118,0.4651873707771301,-0.18117040395736694,-0.0830405056476593,-0.0700150728225708,0.3206346052085627,-0.6025282816864983,-0.6079090002347686,-0.40570917004266727,0.10709025000671041,-2.057672699244848,-1.6264240330919528
1773062938918250240,0.7671773433685303,0.086684949696064,-0.0768466591835022,0.9851687550544739,-0.8796471357345581,-0.09710325300693512,0.4656096398830414,-0.1718209981918335,-0.014957338571548462,-0.08146953582763672,0.32319805502661864,-0.6053127401569168,-0.605310918009115,-0.40340842861464815,0.09725650148726485,-2.057619275569368,-1.6293903246871109
1773062938928305408,0.7772324085235596,-0.1687830090522766,-0.2290036529302597,0.8930489420890808,-0.8798126578330994,-0.08895035833120346,0.4669235646724701,-0.11980587244033813,0.10851211845874786,-0.12811744213104248,0.32451713691845235,-0.6085540331915177,-0.602597513851957,-0.401530681834064,0.08906807413798376,-2.0587074157373237,-1.6342198746445333
1773062938938361344,0.7872884273529053,-0.440346896648407,-0.34667032957077026,0.7299995422363281,-0.8791525363922119,-0.08318252116441727,0.46922415494918823,-0.07284325361251831,0.20558854937553406,-0.1576245129108429,0.3243485923951602,-0.6120947886888647,-0.5999600400577493,-0.4002322292679757,0.08327875020262605,-2.0610571932687063,-1.6407875675247705
1773062938948416512,0.7973434925079346,-0.580021858215332,-0.3771880865097046,0.5252980589866638,-0.8780255913734436,-0.08018955588340759,0.47184792160987854,-0.07714396715164185,0.2531479597091675,-0.17367595434188843,0.32293177982275323,-0.6155142756526828,-0.5975501167038441,-0.39973868720964095,0.08027574829725104,-2.063911729153784,-1.6484216823797442
1773062938958472192,0.8073992729187012,-0.4502699673175812,-0.4941200315952301,0.3890736699104309,-0.8762187957763672,-0.07864530384540558,0.4754531681537628,-0.08233839273452759,0.2573867440223694,-0.19748389720916748,0.32085784129102096,-0.6186520648492592,-0.5958155857530958,-0.399153734814889,0.07872659832112298,-2.0679552868955495,-1.65526622119309
1773062938968528384,0.8174552917480469,-0.29513606429100037,-0.4166906177997589,0.22622354328632355,-0.8743095397949219,-0.07779476046562195,0.47909340262413025,-0.0523717999458313,0.31787657737731934,-0.12168687582015991,0.31892722619326325,-0.6210937120587132,-0.5948018987693806,-0.3984201725685643,0.07787344449836148,-2.0720778857493594,-1.6601778865503527
1773062938978583296,0.8275103569030762,0.1794581562280655,-0.40332260727882385,0.018596580252051353,-0.8724156022071838,-0.07701531797647476,0.4826585650444031,-0.039724111557006836,0.44980281591415405,-0.060325950384140015,0.3177276182000453,-0.622414732714647,-0.5949194749858616,-0.39713947947071404,0.07709165831976765,-2.0761265927238313,-1.6614289170186027
1773062938988639232,0.8375663757324219,0.43142279982566833,-0.23917867243289948,-0.2693125903606415,-0.8707123398780823,-0.07647156715393066,0.4858112633228302,-0.038589537143707275,0.42107605934143066,-0.027040421962738037,0.31755214466994247,-0.6221471351562309,-0.5965220586928894,-0.3952912355661766,0.07654629895746129,-2.079720323148532,-1.6578049521940548
1773062938998694400,0.8476214408874512,0.2813267707824707,-0.10173827409744263,-0.4305512607097626,-0.8696543574333191,-0.07787425816059113,0.4874804615974426,-0.01996368169784546,0.46398264169692993,0.026130497455596924,0.31749543308412104,-0.6207807414051285,-0.5986413762704205,-0.3942797604958308,0.07795318191283745,-2.0816994808961597,-1.65278738043314
1773062939008750336,0.8576774597167969,0.1573060303926468,-0.1024605855345726,-0.44257959723472595,-0.8688148260116577,-0.08067288994789124,0.4885210394859314,0.049250006675720215,0.5175319910049438,0.06158876419067383,0.3169892177032241,-0.6193101306203309,-0.6005959447446054,-0.3940270997830702,0.0807606508640572,-2.0830220189914077,-1.6487337570341516
1773062939018806528,0.8677334785461426,-0.09533395618200302,-0.02165175974369049,-0.4068508744239807,-0.8681527376174927,-0.0841662660241127,0.48910796642303467,0.07709145545959473,0.3310534954071045,0.11069971323013306,0.3161153523110622,-0.6180474031187153,-0.6021390084048808,-0.3943564576951791,0.08426595749740816,-2.083861074841933,-1.6461338619877537
1773062939028861184,0.8777883052825928,-0.5224474668502808,0.08615859597921371,-0.27390721440315247,-0.8680254817008972,-0.08862757682800293,0.48854559659957886,0.04832339286804199,0.09958340227603912,0.13222762942314148,0.31460714217762437,-0.6174204029782085,-0.602548629806685,-0.3959160242193518,0.08874401688300802,-2.083431917000539,-1.647085131210306
1773062939038917376,0.8878443241119385,-1.199435830116272,-0.007280010264366865,-0.20340561866760254,-0.8681061863899231,-0.09481117129325867,0.4872395694255829,0.05916154384613037,-0.041602395474910736,-0.003810673952102661,0.31169717788032236,-0.6179263788639365,-0.601487131312131,-0.39903014111304147,0.09495379603898638,-2.0822488319406025,-1.6533778727680195
1773062939048973312,0.8979003429412842,-1.940950870513916,-0.26748940348625183,-0.09883353114128113,-0.8672925233840942,-0.1038934737443924,0.4868362247943878,0.12304526567459106,-0.06817986816167831,-0.05099949240684509,0.30606537264182926,-0.6201820649680391,-0.598992753522129,-0.40361588443725,0.1040812858407319,-2.082295595083406,-1.666522860774063
1773062939059028480,0.9079554080963135,-2.2911157608032227,-0.5744736194610596,-0.03989991173148155,-0.8651696443557739,-0.11500004678964615,0.48811495304107666,0.20432686805725098,-0.014791175723075867,-0.011888206005096436,0.2979489029975193,-0.6241084047559657,-0.5954378030930669,-0.40886291828381255,0.11525504653967451,-2.084464180456712,-1.6851629768739416
1773062939069084416,0.9180114269256592,-2.085304021835327,-0.8447543382644653,-0.059111688286066055,-0.8615975975990295,-0.12632238864898682,0.491621732711792,0.22170519828796387,0.0398966521024704,-0.057234615087509155,0.28873466924966945,-0.6287235404845167,-0.5920452461747796,-0.413305364627681,0.12666078296264888,-2.0893124689552636,-1.7044913118449145
1773062939079139584,0.9280664920806885,-1.5359500646591187,-0.9053215384483337,-0.15283071994781494,-0.8570347428321838,-0.13624364137649536,0.49691954255104065,0.1684514284133911,0.10815222561359406,-0.08139219880104065,0.28010016275980637,-0.6328879606688417,-0.5898411696181589,-0.4160337641025617,0.13666870257366046,-2.0962398932830855,-1.719997903698619
1773062939089195264,0.9381222724914551,-1.0240648984909058,-0.7373746037483215,-0.3172742426395416,-0.8525423407554626,-0.14452387392520905,0.5022791028022766,0.0562472939491272,0.23511531949043274,-0.08547002077102661,0.27315222774119075,-0.6356981689070265,-0.5890903091779794,-0.4174305769302304,0.14503177706640114,-2.1032029705645763,-1.7298498236225708
1773062939099251200,0.9481782913208008,-0.4161593019962311,-0.5083361268043518,-0.43388688564300537,-0.8488022089004517,-0.15134674310684204,0.5065852999687195,-0.049116313457489014,0.3839975595474243,-0.07666897773742676,0.2681960485563079,-0.6369161944773687,-0.5896019025752771,-0.4180647587529835,0.15193056645697714,-2.108877036061405,-1.7342791845880015
1773062939109306368,0.9582333564758301,0.02186916396021843,-0.2924402952194214,-0.6639634966850281,-0.845849335193634,-0.15690737962722778,0.5098228454589844,-0.08753091096878052,0.3841870129108429,-0.0768393874168396,0.2652642464415052,-0.6363873165004068,-0.5915425620963373,-0.41799949562271105,0.1575584620533985,-2.113224289374507,-1.7329300154950018
1773062939119362304,0.9682893753051758,0.13477517664432526,-0.22681017220020294,-0.8292223215103149,-0.8433747887611389,-0.1628025323152542,0.5120685696601868,-0.12331527471542358,0.2915104329586029,-0.030012965202331543,0.26325962107163653,-0.6345294292463969,-0.5944801928939959,-0.41792349454942507,0.163530411531341,-2.116468381610309,-1.728109795055564
1773062939129417472,0.9783444404602051,-0.12278109788894653,-0.30146002769470215,-0.882828414440155,-0.8405778408050537,-0.16993527114391327,0.5143452286720276,-0.10166764259338379,0.19595149159431458,0.07258415222167969,0.2607715125035964,-0.6324439129042223,-0.5976515055353483,-0.4181215744803815,0.17076397879805477,-2.1199161491701775,-1.7232160388866586
1773062939139473408,0.9884004592895508,-0.7438814043998718,-0.35627293586730957,-0.725486695766449,-0.8373791575431824,-0.17909696698188782,0.5164498090744019,-0.08159667253494263,0.10055997967720032,0.17901527881622314,0.2566675686018365,-0.6312249081737069,-0.5998166662181198,-0.4194005645496665,0.18006850582816228,-2.123437807704884,-1.7225045396529155
1773062939149529344,0.9984564781188965,-1.3977603912353516,-0.2908898890018463,-0.41869714856147766,-0.8346925973892212,-0.1894092559814453,0.5171193480491638,-0.06960427761077881,0.06512641906738281,0.2254648208618164,0.25111036720304364,-0.631572484770676,-0.5997298431689307,-0.42235521255119446,0.19056047452090746,-2.1254544377195215,-1.7288377972716027
1773062939159584256,1.0085113048553467,-1.838934302330017,-0.3319403827190399,-0.3499622941017151,-0.832360029220581,-0.2010525017976761,0.5164827704429626,-0.060492634773254395,0.06441007554531097,0.21078157424926758,0.24417504310513852,-0.6331495811807067,-0.59779845789805,-0.42677523285071867,0.2024322416800102,-2.1261560610376953,-1.7411104557821393
1773062939169640192,1.0185673236846924,-1.807361364364624,-0.39419472217559814,-0.34534427523612976,-0.82977294921875,-0.21358250081539154,0.515615701675415,-0.06504833698272705,0.04726168513298035,0.17507344484329224,0.23643229880059088,-0.6351259127561394,-0.5953342850489517,-0.4316155420432414,0.21524061890764154,-2.126798140345338,-1.7554337476334796
1773062939179695360,1.0286223888397217,-1.3425737619400024,-0.4609985053539276,-0.36071550846099854,-0.8267499804496765,-0.22478991746902466,0.5157071948051453,-0.03848433494567871,-0.0011469721794128418,0.11599141359329224,0.22926040016449223,-0.6368952437578153,-0.5934796090393618,-0.43541482316961283,0.2267274342623728,-2.1285153129252437,-1.7675077321394992
1773062939189751296,1.0386784076690674,-0.5142837762832642,-0.41148102283477783,-0.355155348777771,-0.8236024975776672,-0.23272304236888885,0.5172222256660461,-0.015462934970855713,-0.10158173739910126,0.10257452726364136,0.2240951995541323,-0.6378747646739223,-0.5930656772493657,-0.43723014942788146,0.23487667047306945,-2.1315499119096075,-1.7738338779869451
1773062939199807488,1.048734426498413,0.36314550042152405,-0.10412507504224777,-0.2740389108657837,-0.821431577205658,-0.23564738035202026,0.5193467140197754,-0.05085253715515137,-0.2881869375705719,0.12542879581451416,0.22239352756986933,-0.637598739724245,-0.5942568502068452,-0.4368843625233235,0.2378846584404427,-2.134589179817673,-1.772608402802467
1773062939209862400,1.0587894916534424,0.8696524500846863,0.28166115283966064,-0.014901800081133842,-0.8215469121932983,-0.23354552686214447,0.5201126337051392,-0.12519991397857666,-0.48906493186950684,0.12718045711517334,0.2244028531959325,-0.6362041577576053,-0.5960709593179219,-0.4354159258464788,0.2357224532277797,-2.1351916086460716,-1.7660871680501358
1773062939219918336,1.068845272064209,0.8686910271644592,0.5284627079963684,0.42038947343826294,-0.8241734504699707,-0.2272496223449707,0.5187445282936096,-0.1093592643737793,-0.5751795768737793,0.12687015533447266,0.2289508564159833,-0.6348455281370563,-0.596945068572887,-0.4338309314626155,0.2292524704914933,-2.1325619196498575,-1.7592892356268899
1773062939229973248,1.0789003372192383,0.49424687027931213,0.5343499779701233,0.8303777575492859,-0.828441858291626,-0.21832957863807678,0.515767514705658,0.04888570308685303,-0.5142906308174133,0.15072113275527954,0.23419706496332945,-0.6347605947805213,-0.5957874982142717,-0.4327446644177028,0.22010243240034555,-2.1276501846369187,-1.756702431015469
1773062939240029440,1.088956356048584,0.20173989236354828,0.3592870831489563,0.9150835871696472,-0.8327377438545227,-0.20914660394191742,0.512645423412323,0.22530072927474976,-0.4570063054561615,0.165516197681427,0.2385580558580881,-0.6360610112833982,-0.5930843990986868,-0.43216577677825074,0.21070218143085534,-2.122618042298638,-1.7587136223678934
1773062939250085376,1.0990123748779297,0.027620261535048485,0.033401891589164734,0.7234503030776978,-0.8354741930961609,-0.20158322155475616,0.5112208127975464,0.3387244939804077,-0.48989927768707275,0.11792945861816406,0.2413520529700359,-0.6379217132347224,-0.5904797113049619,-0.4314378929526033,0.20297404981050632,-2.1199148169955637,-1.7620271080177825
1773062939260140544,1.109067440032959,-0.6099727153778076,-0.34108996391296387,0.5679600834846497,-0.8359578251838684,-0.19753694534301758,0.5120095610618591,0.3819478154182434,-0.3154177665710449,0.012313008308410645,0.24145037110259765,-0.6404640062733787,-0.5880566521266382,-0.43092573174641735,0.19884471501701792,-2.1203436094153925,-1.7677034849333093
1773062939270196480,1.1191234588623047,-1.4380733966827393,-0.6692584156990051,0.4102715849876404,-0.8343465328216553,-0.19890418648719788,0.5141042470932007,0.3418995141983032,0.1199093908071518,-0.003072082996368408,0.23760356400321678,-0.6442745234494426,-0.5847755563766912,-0.43184776580688844,0.2002396408779245,-2.1230250390132053,-1.7796171636320801
1773062939280251392,1.1291782855987549,-1.4014610052108765,-0.6916332244873047,0.06863541901111603,-0.8312777876853943,-0.20433945953845978,0.5169362425804138,0.21587544679641724,0.3726438581943512,0.023255527019500732,0.23138722579859552,-0.6482457572867931,-0.5815888199142776,-0.4335804033168938,0.20578887720754097,-2.127132608949837,-1.7937325028427455
1773062939290307328,1.1392343044281006,-0.842357873916626,-0.3606613576412201,-0.10192728042602539,-0.8282906413078308,-0.21077744662761688,0.5191412568092346,0.00710827112197876,0.2240983247756958,-0.07359987497329712,0.22590715728047375,-0.650611854863063,-0.5798920929155067,-0.4351957883162107,0.21237020284109792,-2.1306618341740564,-1.803451631661949
1773062939300363264,1.1492903232574463,-0.14121173322200775,-0.0032238676212728024,0.11434323340654373,-0.8274545073509216,-0.21320894360542297,0.5194818377494812,-0.13911360502243042,0.041959479451179504,-0.17213064432144165,0.22387629833718198,-0.6515425056886922,-0.5789933286369017,-0.43604888374946565,0.21485825079960347,-2.1314116787661193,-1.80769471822128
1773062939310418432,1.1593453884124756,0.1253366768360138,0.3279397189617157,0.04804256185889244,-0.8284692168235779,-0.2122734785079956,0.5182456970214844,-0.19261837005615234,-0.073340505361557,-0.19584280252456665,0.2246235906587239,-0.6514523788354317,-0.5785608407457188,-0.4363729677214872,0.21390087166923216,-2.1297882407527404,-1.807992496736062
1773062939320474368,1.1694014072418213,0.06360619515180588,0.5602768063545227,0.011919443495571613,-0.8309299349784851,-0.2115953415632248,0.5145703554153442,-0.20378369092941284,-0.08782784640789032,-0.2014448046684265,0.22634861707973797,-0.6503695287939868,-0.5781908459417199,-0.43758547344675014,0.2132069750721337,-2.1252649161583705,-1.8072193650056119
1773062939330530304,1.179457426071167,-0.07790982723236084,0.3966841399669647,-0.011889640241861343,-0.8335393667221069,-0.21152961254119873,0.5103601813316345,-0.013811707496643066,-0.05374445021152496,-0.19605958461761475,0.2278268943744144,-0.6492845674390847,-0.5775895046419566,-0.4392207419653477,0.213139717838778,-2.1201969541468295,-1.8072657885988868
1773062939340585472,1.1895124912261963,-0.1990911066532135,0.050479330122470856,-0.0789557620882988,-0.8345498442649841,-0.21268914639949799,0.5082219243049622,0.14141952991485596,-0.11119385063648224,-0.15665948390960693,0.22787470256181974,-0.6488267820183736,-0.5771782795382502,-0.4404112126191758,0.2143262601962923,-2.117790658494165,-1.8082816201503116
1773062939350641152,1.199568271636963,-0.2848871946334839,-0.1152806207537651,-0.017312651500105858,-0.8341601490974426,-0.21441598236560822,0.5081363320350647,0.1578143835067749,-0.2012944519519806,-0.13197678327560425,0.22681554956486233,-0.6490355444303954,-0.5769064405800706,-0.4410062525632361,0.21609387191452975,-2.117923342892523,-1.8100512719694353
1773062939360696320,1.2096233367919922,-0.39163467288017273,0.0041797268204391,0.14838629961013794,-0.8339521884918213,-0.21562354266643524,0.5079666972160339,0.12183976173400879,-0.20419152081012726,-0.09744429588317871,0.22563398099071774,-0.6497758533534937,-0.5759988702098449,-0.4417079536545099,0.217330345455163,-2.117885794606107,-1.8134520652423711
1773062939370752256,1.219679355621338,-0.4278584122657776,0.04511144012212753,0.16968798637390137,-0.8345525860786438,-0.21629752218723297,0.5066922903060913,0.07249826192855835,-0.13569217920303345,-0.08257430791854858,0.2248020220971392,-0.6506267802115715,-0.574483204746307,-0.4428519005997981,0.21802062161998842,-2.1164511000156114,-1.8179629883905915
1773062939380808448,1.2297353744506836,-0.4545019865036011,-0.11850731819868088,0.22146596014499664,-0.8347423076629639,-0.21686387062072754,0.5061373710632324,0.03802001476287842,-0.06777353584766388,-0.0820651650428772,0.2237135002886071,-0.6517457918840952,-0.5729713020663716,-0.4437155369621549,0.21860073743546468,-2.1158643231364604,-1.822695536323652
1773062939390863360,1.239790439605713,-0.7708663940429688,-0.18891091644763947,0.1696266084909439,-0.8343023061752319,-0.2182326763868332,0.506274938583374,0.055035948753356934,0.13348537683486938,0.03680062294006348,0.22166116884559242,-0.6534265780462998,-0.571113985865428,-0.4446671671740673,0.22000313074668412,-2.1162186431196326,-1.829212805645411
1773062939400919552,1.2498464584350586,-0.8313283920288086,-0.002898955252021551,0.11987289786338806,-0.8340710401535034,-0.22133518755435944,0.5053082704544067,-0.029072880744934082,0.41203951835632324,0.17616450786590576,0.2189151291334992,-0.6549834759081017,-0.5689031301927182,-0.44656703307210704,0.22318339742851745,-2.1154941822224425,-1.837324097252764
1773062939410974208,1.2599012851715088,-0.3147428631782532,0.28224092721939087,0.11678045243024826,-0.835155725479126,-0.223423570394516,0.5025904774665833,-0.14378726482391357,0.4532514214515686,0.1139562726020813,0.21764331367211417,-0.6556204068723539,-0.5669718947914582,-0.44870510504562505,0.2253254237794677,-2.1125328343118994,-1.8433092953327563
1773062939421030400,1.2699573040008545,0.5538414716720581,0.38100531697273254,0.10960083454847336,-0.8370261788368225,-0.2219029814004898,0.5001465678215027,-0.14269500970840454,0.3410588204860687,-0.07793575525283813,0.21918570057167897,-0.6550935638582248,-0.5665030417507739,-0.44931556561184094,0.2237656811926983,-2.109396157672552,-1.8429066482301548
1773062939431086336,1.2800133228302002,1.1960378885269165,0.5041117668151855,0.10595908761024475,-0.8395727276802063,-0.21641305088996887,0.4982803463935852,-0.04165297746658325,0.18664312362670898,-0.10373371839523315,0.22371431733143263,-0.6533823772243549,-0.5676545081338975,-0.448120322093064,0.21813895494666338,-2.106417361327875,-1.835518443920771
1773062939441141248,1.2900683879852295,1.283816933631897,0.4375958740711212,-0.026555810123682022,-0.842070996761322,-0.20964102447032928,0.4969581961631775,0.03842097520828247,0.027664676308631897,-0.01803046464920044,0.22937910273733023,-0.6509737760010393,-0.5698352702369763,-0.4459890593270139,0.21120781815372497,-2.103950506591851,-1.824428984882291
1773062939451197440,1.3001244068145752,0.770660936832428,0.2114480435848236,-0.07909183204174042,-0.8436151146888733,-0.20495443046092987,0.49629345536231995,0.07181036472320557,-0.12156836688518524,0.07522448897361755,0.23364522249576353,-0.648789058215769,-0.5720310124544252,-0.4441431924393838,0.20641715109442696,-2.102563772208817,-1.81471554946022
1773062939461252352,1.3101794719696045,0.07056276500225067,-0.12430146336555481,0.0510893389582634,-0.8438194990158081,-0.2029835432767868,0.4967558681964874,0.0870751142501831,-0.2020304799079895,0.14182448387145996,0.2351296825269444,-0.6481297836996954,-0.5729796872526678,-0.4430982977006387,0.20440394289609357,-2.102864999720483,-1.8108620029985247
1773062939471308544,1.3202354907989502,-0.6021641492843628,-0.4058585464954376,0.1995968371629715,-0.842692494392395,-0.20331189036369324,0.4985312819480896,0.0680190920829773,-0.24436569213867188,0.16568371653556824,0.23371058374633255,-0.6494282929444632,-0.5722836153212819,-0.4428472305411336,0.20473928526830298,-2.1050115342877933,-1.813955739040967
1773062939481364224,1.3302912712097168,-0.9715781807899475,-0.5558539032936096,0.34492236375808716,-0.8408130407333374,-0.20504789054393768,0.5009879469871521,0.014168143272399902,-0.23152132332324982,0.10181057453155518,0.23028024916715795,-0.6522448079510313,-0.5701497056765851,-0.4432573371260726,0.20651263341835582,-2.1081495627367346,-1.8225404176596105
1773062939491419392,1.340346336364746,-0.9898800253868103,-0.6502383351325989,0.3745374083518982,-0.8385050892829895,-0.20702829957008362,0.5040321350097656,-0.0037342309951782227,-0.1636534333229065,-0.0003090500831604004,0.22605201165120087,-0.6558075726321854,-0.567390954050701,-0.44371657792675195,0.2085364734103614,-2.112030134974176,-1.8333621811012326
1773062939501475328,1.3504023551940918,-0.6302081346511841,-0.5863877534866333,0.3462362587451935,-0.8360300660133362,-0.2081909477710724,0.5076517462730408,-0.005171716213226318,-0.09545895457267761,-0.072043776512146,0.2223182649048124,-0.6591836044204965,-0.5650688780179228,-0.44356368134216784,0.20972502008873625,-2.1165055938626045,-1.8425541917953383
1773062939511530496,1.360457420349121,-0.06774723529815674,-0.4103661775588989,0.3221026360988617,-0.8341240286827087,-0.2072790116071701,0.5111479163169861,-0.011685729026794434,-0.059353023767471313,-0.11734914779663086,0.22040949252021283,-0.661653813210026,-0.5637270533492101,-0.4425444598345076,0.2087927355345983,-2.120571594546315,-1.8475102683706115
1773062939521586432,1.3705134391784668,0.425190806388855,-0.21585392951965332,0.27040454745292664,-0.8331429362297058,-0.20365190505981445,0.5141971707344055,-0.0053580403327941895,-0.10190533101558685,-0.06082808971405029,0.22089401564238853,-0.6629795213501976,-0.5635217362335315,-0.4405760213007261,0.20508656485392232,-2.123750793839,-1.8473269542455624
1773062939531642368,1.3805694580078125,0.409982830286026,-0.14639389514923096,0.1655558943748474,-0.8326881527900696,-0.1996055543422699,0.5165148973464966,0.004319190979003906,-0.15467295050621033,0.04690051078796387,0.22234410436589314,-0.6634639024312301,-0.5639797030317476,-0.43852653585627205,0.20095536020691251,-2.1260073673123947,-1.8446273133655802
1773062939541697280,1.3906242847442627,0.1599399894475937,-0.13036753237247467,0.19564802944660187,-0.8323090672492981,-0.19662430882453918,0.5182667374610901,0.017535626888275146,-0.11570781469345093,0.1607341170310974,0.22330938913534723,-0.6639361170114195,-0.5642004910960775,-0.43703493496465246,0.1979138279258356,-2.127729483244498,-1.843016015405975
1773062939551753216,1.4006803035736084,0.07951278239488602,-0.134111687541008,0.2989242672920227,-0.8321287631988525,-0.19410140812397003,0.5195059776306152,0.05086350440979004,-0.043645814061164856,0.19516992568969727,0.22379105567474633,-0.6648061954299823,-0.5637248534410487,-0.4360786652215707,0.19534134837277556,-2.1288990245028367,-1.8435528706156903
1773062939561808384,1.4107353687286377,0.36316314339637756,-0.06622905284166336,0.30278319120407104,-0.8321533799171448,-0.19037333130836487,0.5208446383476257,0.07163995504379272,-0.006251469254493713,0.15566915273666382,0.22486744840105832,-0.6657014342156287,-0.5632618540124684,-0.4347556016147538,0.19154241378906495,-2.1300424324494505,-1.8434271522130294
1773062939571864320,1.4207913875579834,0.586090624332428,0.13433659076690674,0.2100556194782257,-0.832789957523346,-0.1857060194015503,0.521511435508728,0.04217106103897095,-0.05515396595001221,0.08543741703033447,0.22713490119307728,-0.6657972692019032,-0.5634445007033951,-0.4331905041878195,0.18679033277641974,-2.1302739370529924,-1.8405727887813563
1773062939581920512,1.430847406387329,0.6822376847267151,0.1302632838487625,0.0830015316605568,-0.8338484764099121,-0.18123452365398407,0.5213934183120728,0.014115691184997559,-0.016839846968650818,-0.05365043878555298,0.22995213779881896,-0.665171415382424,-0.5641309238783963,-0.43177007764399555,0.18224162222751158,-2.129600985113087,-1.8359910041825067
1773062939591975424,1.4409024715423584,0.8645575046539307,0.26766854524612427,0.13381609320640564,-0.8350683450698853,-0.17632266879081726,0.5211252570152283,0.0425877571105957,-0.0022815167903900146,-0.05255824327468872,0.23335057414381283,-0.6640917490281925,-0.565282911469851,-0.4300988363550015,0.17724932269183358,-2.128712921144028,-1.8296957859063983
1773062939602031360,1.450958490371704,0.9420650601387024,0.30606627464294434,0.10010740160942078,-0.8368096351623535,-0.17047898471355438,0.5202760100364685,0.08862519264221191,-0.0684889703989029,-0.05173945426940918,0.23748465782139863,-0.6627581372873169,-0.5664712205562771,-0.4283260575178801,0.17131575495913035,-2.1270461950366935,-1.8225152850905775
1773062939612086272,1.4610133171081543,0.861558735370636,0.3312065005302429,0.14157763123512268,-0.8386966586112976,-0.16478486359119415,0.5190701484680176,0.09356427192687988,-0.16784144937992096,-0.034145891666412354,0.24168158929003655,-0.6612788894964706,-0.5676665474295038,-0.42667895320853666,0.1655398961544251,-2.1249977714743786,-1.8152204640738805
1773062939622142208,1.4710693359375,0.6535264253616333,0.28696075081825256,0.2138366550207138,-0.8405938744544983,-0.1593293994665146,0.5177026987075806,0.11038452386856079,-0.2305479347705841,-0.0034357309341430664,0.24547652216702714,-0.6601792594570526,-0.5683438174138942,-0.42531158254174656,0.16001133779807616,-2.122808584087865,-1.8095316750227803
1773062939632198400,1.4811253547668457,0.4321862459182739,0.2547217309474945,0.2845461368560791,-0.8423476219177246,-0.1544332504272461,0.5163336396217346,0.12613075971603394,-0.23982328176498413,0.035271406173706055,0.24854989918970644,-0.6596473347206275,-0.5683592269335118,-0.4243300611722107,0.15505379988439555,-2.1206978739725084,-1.806141485821153
1773062939642253312,1.491180419921875,0.2676175534725189,0.2540527284145355,0.29442301392555237,-0.8441048264503479,-0.15016454458236694,0.5147207379341125,0.12239474058151245,-0.20063498616218567,0.0016366839408874512,0.25103193450686634,-0.6595205371414963,-0.5677966428071923,-0.42381896525479557,0.15073469646093474,-2.118378151223324,-1.8047324329821126
1773062939652309504,1.5012364387512207,0.21081237494945526,0.25574928522109985,0.2754622995853424,-0.8458531498908997,-0.14652904868125916,0.5128957629203796,0.10368078947067261,-0.14122122526168823,-0.04457288980484009,0.25314984860889655,-0.6594888487076593,-0.5670294019537168,-0.4236359210893303,0.14705852173658546,-2.11588285678803,-1.8041917471830025
1773062939662365440,1.5112924575805664,0.17550338804721832,0.2568904757499695,0.2855586111545563,-0.8475889563560486,-0.1431833654642105,0.5109711289405823,0.07190841436386108,-0.07974754273891449,-0.07440185546875,0.25511078641006546,-0.6594846236805668,-0.566185121238845,-0.42359524613950644,0.14367718421215778,-2.1133106087411377,-1.8039909779372862
1773062939672420352,1.5213472843170166,0.13233625888824463,0.18046171963214874,0.30130550265312195,-0.8491792678833008,-0.1398591250181198,0.5092487931251526,0.020764172077178955,-0.01379692554473877,-0.09482002258300781,0.2569144099630242,-0.6596294463977553,-0.5652551632625953,-0.4235217762781514,0.14031913645926333,-2.1109917522543196,-1.8041443467138396
1773062939682476288,1.5314033031463623,0.12065696716308594,0.12171505391597748,0.34783732891082764,-0.8503251671791077,-0.13648582994937897,0.5082506537437439,-0.042466580867767334,0.04925133287906647,-0.09469175338745117,0.25839555838456496,-0.6600893169610423,-0.5642760141262779,-0.42320966597966964,0.1369131754530807,-2.1095327140950966,-1.804742504800571
1773062939692531456,1.5414583683013916,0.14840856194496155,0.2637481987476349,0.4548438489437103,-0.8518205881118774,-0.1323668211698532,0.5068336725234985,-0.11435049772262573,0.10830375552177429,-0.06959319114685059,0.2602132549363783,-0.6606683236162268,-0.5629690986507077,-0.42293273995875813,0.13275642932428874,-2.107531626421849,-1.8057085165126903
1773062939702587392,1.5515143871307373,0.23882153630256653,0.40064558386802673,0.41444048285484314,-0.854116678237915,-0.12757298350334167,0.5041921138763428,-0.15648812055587769,0.17080114781856537,-0.06769925355911255,0.2627493728638576,-0.6609591438432595,-0.5614526443799489,-0.42292630646084045,0.12792158320613878,-2.1040590623045925,-1.8063425606680896
1773062939712643328,1.561570405960083,0.3018462061882019,0.4052210748195648,0.2041778713464737,-0.8566120266914368,-0.12346777319908142,0.5009709000587463,-0.16677981615066528,0.20932896435260773,-0.08161348104476929,0.2655017519530786,-0.6606057326577195,-0.56043333674677,-0.4231116330329145,0.12378363797859111,-2.09998544290393,-1.8055739065462204
1773062939722698496,1.5716254711151123,0.26981449127197266,0.2733061909675598,-0.028308358043432236,-0.8584634065628052,-0.12125209718942642,0.49833592772483826,-0.16328048706054688,0.22215843200683594,-0.08024507761001587,0.2676363339424685,-0.6597169550189116,-0.5603048324506094,-0.4233236297296261,0.12155118881140164,-2.0967523663117804,-1.8034492926575685
1773062939732754432,1.581681489944458,0.12607993185520172,0.05379452928900719,-0.26736170053482056,-0.8591059446334839,-0.12149607390165329,0.4971676468849182,-0.16337019205093384,0.259359210729599,-0.04044163227081299,0.2684633008565922,-0.6586795686878872,-0.5610036055006375,-0.4234898406300946,0.12179698224820741,-2.095409437009523,-1.8009165517431345
1773062939742809344,1.5917363166809082,-0.029871327802538872,0.025208955630660057,-0.44080111384391785,-0.8586741089820862,-0.1244901567697525,0.49717286229133606,-0.21613961458206177,0.3395933210849762,0.0014995932579040527,0.26783940284056446,-0.6575476779127615,-0.5623321756357352,-0.42388158643128643,0.12481397195522845,-2.0956319748776306,-1.7986077094142092
1773062939752865280,1.601792335510254,-0.024543074890971184,0.2765641212463379,-0.43913015723228455,-0.8588364124298096,-0.1285216063261032,0.49586543440818787,-0.2704819440841675,0.40908491611480713,0.06578010320663452,0.2671451966792966,-0.6560709169014166,-0.5634746386203722,-0.42508921938886124,0.12887807207726965,-2.094409062695436,-1.796834689774578
1773062939762921216,1.6118483543395996,0.5022019147872925,0.6067239046096802,-0.3672008514404297,-0.8604459166526794,-0.1311296671628952,0.49237969517707825,-0.2679262161254883,0.3291582465171814,0.10965582728385925,0.26816529668143135,-0.653659825932332,-0.5647288509166515,-0.4264944394367674,0.1315084005795334,-2.0905522665134915,-1.7928558793779825
1773062939772976384,1.621903419494629,1.0602505207061768,0.8471158742904663,-0.1196003407239914,-0.8637787103652954,-0.1292143166065216,0.48702123761177063,-0.24956339597702026,0.0010863244533538818,0.006997257471084595,0.2723992170476819,-0.6503080836441911,-0.5662243457704139,-0.4269519167786771,0.1295766102369269,-2.0841927993993186,-1.7845766577141435
1773062939783032320,1.6319594383239746,0.9951695203781128,0.8706997632980347,-0.08847305178642273,-0.8679694533348083,-0.12485095113515854,0.48066771030426025,-0.1169397234916687,-0.18690139055252075,-0.05694633722305298,0.2781845126330558,-0.6466785401001393,-0.5675744240199654,-0.4269421214519803,0.12517760262669458,-2.0765401928872356,-1.7747372028795327
1773062939793087232,1.6420142650604248,0.7040629386901855,0.5424057245254517,-0.16600367426872253,-0.8712741136550903,-0.12187816947698593,0.4754233658313751,0.03602313995361328,-0.13355398178100586,-0.01878875494003296,0.28271759812736325,-0.6435810907300171,-0.5687838481438596,-0.4270353033128079,0.12218193637487516,-2.0703048699186803,-1.766607192883931
1773062939803143168,1.6520702838897705,0.5207144021987915,0.2665664255619049,-0.15494516491889954,-0.8728961944580078,-0.12048947811126709,0.47279417514801025,0.15239155292510986,-0.11089476943016052,-0.00788944959640503,0.28541270018991144,-0.6413942508864486,-0.5700969186510797,-0.42678147422537543,0.12078293658669528,-2.0671972951548097,-1.7603604409285907
1773062939813199360,1.6621263027191162,0.33729085326194763,0.27446234226226807,-0.013632288202643394,-0.8740102648735046,-0.11920598149299622,0.4710579514503479,0.15053021907806396,-0.1865953803062439,-0.02560827136039734,0.2873542688654845,-0.6399704454259314,-0.5709350305175999,-0.4264955146798658,0.11949012202907407,-2.0651252579144628,-1.7560897022933288
1773062939823254272,1.6721813678741455,0.18930858373641968,0.2682792842388153,0.08166546374559402,-0.8754180073738098,-0.11763076484203339,0.46883514523506165,0.10707694292068481,-0.16668623685836792,-0.05812966823577881,0.28907953690153915,-0.6391184880104112,-0.5709160516190149,-0.42663270542752024,0.11790374555224722,-2.0624823278286155,-1.7540615018988046
1773062939833310464,1.6822373867034912,0.24473389983177185,0.21560585498809814,0.15722128748893738,-0.8766478896141052,-0.11571285128593445,0.4670107364654541,0.10774224996566772,-0.08642031252384186,-0.0920412540435791,0.29064286855931665,-0.6386274943204031,-0.5706665370005883,-0.4266396155074348,0.11597264061412843,-2.0602785807617576,-1.7527469670031313
1773062939843365376,1.6922924518585205,0.42731091380119324,0.24435149133205414,0.16150417923927307,-0.8779391646385193,-0.11252602189779282,0.4653607904911041,0.14576148986816406,-0.06684103608131409,-0.025678783655166626,0.2927753367181441,-0.6381635852265385,-0.5704626431845115,-0.4261480957040256,0.11276485379975418,-2.0582020467085322,-1.7506095532612125
1773062939853421568,1.7023484706878662,0.38171514868736267,0.37915822863578796,0.014914731495082378,-0.8794337511062622,-0.10986527800559998,0.46316948533058167,0.1434108018875122,-0.08492843806743622,0.04516184329986572,0.29516882748019035,-0.6371071799404925,-0.5706830808017687,-0.42578241069337,0.11008750566580901,-2.055549889819092,-1.747163787122214
1773062939863477504,1.712404489517212,0.2877636253833771,0.46324622631073,0.040423549711704254,-0.8814849853515625,-0.10815597325563431,0.45965954661369324,0.0932462215423584,-0.03497149795293808,0.051433682441711426,0.2975033673624648,-0.6357624471218136,-0.5706451534262079,-0.4262183818234118,0.10836795075348346,-2.051464529886482,-1.7443920968983357
1773062939873532416,1.722459316253662,0.3101577162742615,0.4536595046520233,0.060451921075582504,-0.8835681676864624,-0.1064092293381691,0.4560531973838806,0.0996021032333374,-0.007940135896205902,0.04058992862701416,0.29983417860118805,-0.6344616416209659,-0.5705129453780624,-0.426700047851632,0.10661107260869271,-2.047279831060492,-1.7418241802289067
1773062939883588352,1.7325153350830078,0.17551255226135254,0.45582571625709534,0.21752355992794037,-0.8858964443206787,-0.10395651310682297,0.45208507776260376,0.08970785140991211,-0.12207197397947311,0.07029962539672852,0.3023035192039809,-0.6334948844341506,-0.569848022987894,-0.427282325777235,0.1041446700083737,-2.0426607892794975,-1.7402925849227855
1773062939893643264,1.742570400238037,-0.10109900683164597,0.3775315284729004,0.22934003174304962,-0.8879992961883545,-0.1017579585313797,0.4484449028968811,0.10172903537750244,-0.09259327501058578,0.07986027002334595,0.3041149843664952,-0.6331718989664157,-0.5686086471474463,-0.42812581612008677,0.10193439315907755,-2.0384406433329403,-1.7408907355392849
1773062939903699200,1.7526261806488037,-0.24278129637241364,0.23401913046836853,0.17577533423900604,-0.8895408511161804,-0.10087982565164566,0.4455784559249878,0.06771785020828247,-0.04003508388996124,0.08495432138442993,0.30477589145347844,-0.6333790099060337,-0.5671157332254457,-0.42932782659955854,0.10105171857987767,-2.035170350637547,-1.7435132059680638
1773062939913755136,1.7626821994781494,-0.11392747610807419,0.23263122141361237,0.3011573255062103,-0.8908390998840332,-0.0995585024356842,0.44327637553215027,0.013229846954345703,-0.004918418824672699,0.050696372985839844,0.30535865005220514,-0.6338610221989538,-0.56556024705215,-0.43025336367108946,0.0997237120580872,-2.032517450809856,-1.7463600998386344
1773062939923810304,1.7727372646331787,0.11644207686185837,0.37650609016418457,0.38376936316490173,-0.8924460411071777,-0.09660929441452026,0.44068875908851624,-0.039224982261657715,0.026785090565681458,0.05223113298416138,0.30688734388795375,-0.634174049806187,-0.5640635218608504,-0.4306689370845121,0.09676021160381267,-2.0294706632509536,-1.7478486937646391
1773062939933866240,1.7827932834625244,0.4053845703601837,0.4633084535598755,0.4934403896331787,-0.8948268294334412,-0.09136424958705902,0.4369637668132782,-0.11641877889633179,0.059595465660095215,-0.10590916872024536,0.3099503320878081,-0.6341117326961406,-0.56248039652943,-0.43063770466030094,0.09149183873464935,-2.0250581042909634,-1.7475435976894313
1773062939943921408,1.7928483486175537,0.5122678875923157,0.4361625909805298,0.45772260427474976,-0.8971984386444092,-0.08506730943918228,0.43335744738578796,-0.08275151252746582,0.09123186022043228,-0.16251397132873535,0.3137522131724263,-0.6337068208848028,-0.5613326841684415,-0.42997776050251646,0.08517023880721754,-2.0207612542794675,-1.7452392347444778
1773062939953977344,1.8029043674468994,0.42696085572242737,0.2814999520778656,0.35558009147644043,-0.8991146087646484,-0.07921389490365982,0.43048614263534546,-0.03339576721191406,0.08237245678901672,-0.06871545314788818,0.3172056913618145,-0.6333368993052559,-0.5604707347115537,-0.42911253235187347,0.07929697177546309,-2.0173315658413653,-1.742685361643401
1773062939964033280,1.8129603862762451,0.08738040179014206,0.22717730700969696,0.2693762183189392,-0.9004303812980652,-0.07526896148920059,0.4284383952617645,-0.033926188945770264,0.10662580281496048,0.06078878045082092,0.3194294739410468,-0.6332325320925455,-0.5596746884388751,-0.4286554687770898,0.07534021613319669,-2.014909530643524,-1.7415651060270285
1773062939974088192,1.8230152130126953,-0.26319068670272827,0.2158241868019104,0.17711950838565826,-0.9015364050865173,-0.07365406304597855,0.42638856172561646,-0.12133651971817017,0.18090808391571045,0.17991936206817627,0.32021187623402275,-0.633555769274131,-0.5583917713174399,-0.42926691446937226,0.07372081999624501,-2.0125769907108673,-1.7434453659889235
1773062939984144128,1.833071231842041,-0.30619221925735474,0.3283052146434784,0.1199643462896347,-0.9027602672576904,-0.07365679740905762,0.42379048466682434,-0.17978966236114502,0.3117854595184326,0.19551795721054077,0.32026467531833486,-0.633907575756563,-0.5568271014837897,-0.43073801681152185,0.0737235600552536,-2.0096972413484604,-1.7469297024416999
1773062939994200320,1.8431272506713867,0.11957288533449173,0.642518937587738,-0.06250648200511932,-0.9047765135765076,-0.07382869720458984,0.4194387197494507,-0.13068491220474243,0.44696712493896484,0.13169348239898682,0.32127776404268193,-0.6331830047179178,-0.5556965419679322,-0.4325057872743271,0.07389593521249514,-2.0048880318704065,-1.7481704157444728
1773062940004255232,1.853182315826416,0.8810304999351501,0.9690187573432922,-0.16481713950634003,-0.9081026315689087,-0.07298948615789413,0.4123373031616211,-0.09882479906082153,0.34821227192878723,0.02671906352043152,0.3248227408725599,-0.6302456353133326,-0.5558408821936346,-0.4339602676449965,0.073054450659447,-1.9970252579585102,-1.7431682956204742
1773062940014311424,1.8632383346557617,1.239972710609436,1.0514675378799438,0.025680089369416237,-0.912295401096344,-0.0691828578710556,0.4036470055580139,-0.0766724944114685,-0.0015111044049263,-0.08901083469390869,0.33106044052888933,-0.6259096720823482,-0.5568308467080444,-0.4342528116979596,0.06923816525750004,-1.9873557192650648,-1.7325636896487926
1773062940024366336,1.873293399810791,0.8911959528923035,0.7311036586761475,0.07067978382110596,-0.9159796833992004,-0.06410902738571167,0.3960701823234558,0.05230158567428589,-0.09728320688009262,-0.08970421552658081,0.3372000576838902,-0.6222864746010287,-0.5574895862905642,-0.433890706543187,0.06415302646979473,-1.978918638771432,-1.7226942274351869
1773062940034422272,1.8833491802215576,0.3277839124202728,0.5402793288230896,-0.03667224943637848,-0.9184367060661316,-0.06160770356655121,0.3907415568828583,0.1344398856163025,-0.07065552473068237,0.048879474401474,0.34084930798091834,-0.6199389275062466,-0.5577154366507578,-0.43410956456255845,0.061646740658030955,-1.973041317981055,-1.717145951730653
1773062940044478208,1.8934051990509033,0.08550123870372772,0.3629031777381897,-0.09086358547210693,-0.9201657772064209,-0.061589378863573074,0.3866543173789978,0.09239178895950317,-0.12661249935626984,0.012698590755462646,0.3425513788096618,-0.6183904269562878,-0.5576024006621663,-0.4351221994869333,0.0616283831881273,-1.9685949329555568,-1.7150450593430153
1773062940054533120,1.9034602642059326,-0.05498593673110008,0.18509255349636078,0.027006376534700394,-0.921166718006134,-0.061827752739191055,0.38422486186027527,0.037423670291900635,-0.18948447704315186,0.01434984803199768,0.343260931734644,-0.6177045680223074,-0.5572732655342987,-0.4359579720328677,0.061867213420157094,-1.9659623568143358,-1.714804721295431
1773062940064589312,1.9135162830352783,-0.1252148300409317,0.26942873001098633,0.10613474994897842,-0.9220125675201416,-0.06157307326793671,0.3822324573993683,0.0033571720123291016,-0.11964031308889389,0.1468203067779541,0.3436778327740867,-0.6176230728466983,-0.5564691964500638,-0.4367715170123202,0.06161204485550522,-1.9637937731919926,-1.7160362628474797
1773062940074644224,1.9235713481903076,-0.06230420246720314,0.44769051671028137,0.0918915867805481,-0.9234415292739868,-0.060977622866630554,0.378864049911499,-0.038533806800842285,-0.007946368306875229,0.14468035101890564,0.3446008971024503,-0.6172999847988474,-0.5553131968656068,-0.43797075405791097,0.06101547396973597,-1.9601280902427973,-1.7173473605134046
1773062940084700416,1.9336273670196533,0.04039501026272774,0.5326120853424072,0.04438265413045883,-0.9253982305526733,-0.060421887785196304,0.3741490840911865,0.014448404312133789,0.054821889847517014,0.11837413907051086,0.34611696408423237,-0.6163864952483273,-0.554204138806971,-0.4394639983452463,0.06045871388614696,-1.9550139063785519,-1.7177135654801825
1773062940094756352,1.943683385848999,0.09023071080446243,0.39548546075820923,0.07548121362924576,-0.9272162318229675,-0.05960335209965706,0.3697536587715149,0.05027824640274048,0.04585515335202217,-0.07182583212852478,0.3478020910156475,-0.6153646035894997,-0.5533563301254889,-0.4406324791254559,0.059638698714313855,-1.9502490068716067,-1.7172397593155238
1773062940104811264,1.9537382125854492,-0.0013474079314619303,0.1691495180130005,0.07601357996463776,-0.9282891750335693,-0.05869993194937706,0.36719709634780884,0.07335448265075684,-0.01348939910531044,-0.21793556213378906,0.3489127655029713,-0.6148582951023175,-0.5527638015855462,-0.44120449445535487,0.05873369358236116,-1.94747207934714,-1.7169919869252646
1773062940114867200,1.963794231414795,-0.06363421678543091,0.07432220131158829,0.13545529544353485,-0.9288194179534912,-0.05784016475081444,0.36599037051200867,0.05722212791442871,-0.06975384056568146,-0.15609049797058105,0.34935671830254794,-0.6149765608856246,-0.5520860570530076,-0.4415367356330235,0.05787246376414174,-1.9461527093193716,-1.7178730647956695
1773062940124922368,1.9738492965698242,-0.029187828302383423,-0.0019925436936318874,0.0363880954682827,-0.9289781451225281,-0.05714312940835953,0.36569660902023315,0.0735400915145874,-0.06480510532855988,-0.028553664684295654,0.34950786537077755,-0.6152409663552831,-0.5516582807191238,-0.44158336723560676,0.05717427302990361,-1.94582066586541,-1.71860928698495
1773062940134978304,1.98390531539917,-0.02613554522395134,-0.024453651160001755,-0.01182377990335226,-0.9289296865463257,-0.05723674222826958,0.3658047914505005,0.046941399574279785,-0.05427445098757744,0.10158708691596985,0.34938625902158044,-0.6153228122614723,-0.5516160169557347,-0.4416182625253224,0.057268040895458526,-1.9459392745474693,-1.7188765156554724
1773062940145034240,1.9939613342285156,0.09020810574293137,-0.11572657525539398,0.014490115456283092,-0.9286857843399048,-0.057143691927194595,0.36643850803375244,-0.012506723403930664,-0.009964443743228912,0.14425787329673767,0.34926870689385986,-0.6154404789330937,-0.5517719436805387,-0.4413525335661919,0.05717483539518266,-1.9466194216542552,-1.7186937961656057
1773062940155089408,2.004016399383545,0.2631271183490753,-0.011650551110506058,0.001323255361057818,-0.9283864498138428,-0.05641459673643112,0.3673093020915985,-0.0366862416267395,0.047259312123060226,0.2179720401763916,0.34961373391078987,-0.6153247980944964,-0.5522952504620109,-0.4405855361324644,0.05644456478225908,-1.9475407679490084,-1.7170294441226281
1773062940165145088,2.0140721797943115,0.384086012840271,0.16539372503757477,0.051965661346912384,-0.9286922216415405,-0.05501197278499603,0.3667486011981964,-0.10336649417877197,0.07294104248285294,0.3180811405181885,0.35090056621969834,-0.6146207997143743,-0.5528250787585957,-0.43988013983152396,0.055039757767909384,-1.9469059128980002,-1.7140080092537866
1773062940175201280,2.0241281986236572,0.27238595485687256,0.3679548501968384,0.14841167628765106,-0.9297225475311279,-0.05282873660326004,0.36445239186286926,-0.11614549160003662,0.06025972589850426,0.378726989030838,0.3529141082635979,-0.6137037730584677,-0.5528054627562216,-0.43957432534917074,0.05285334105044978,-1.9443882724720747,-1.7111680244494563
1773062940185256192,2.0341832637786865,0.13467231392860413,0.37103933095932007,0.24372993409633636,-0.93123859167099,-0.05025196075439453,0.36092835664749146,-0.04866546392440796,0.05748462677001953,0.28154298663139343,0.3550365184015903,-0.613048450154939,-0.5519381934901627,-0.4398691210816298,0.050273135359886374,-1.9405491319399952,-1.710047794265585
1773062940195312384,2.0442392826080322,-0.009253768250346184,0.3131977617740631,0.18567922711372375,-0.9325746893882751,-0.047926537692546844,0.35778138041496277,0.055148541927337646,0.09519825875759125,0.08212947845458984,0.3566777221952674,-0.6127914390718086,-0.5507970115563242,-0.4403297754828629,0.047944906026140516,-1.9371280823744637,-1.710214553019843
1773062940205367296,2.0542943477630615,-0.014382483437657356,0.22162604331970215,0.09971583634614944,-0.9335915446281433,-0.04677693545818329,0.3552727997303009,0.07864159345626831,0.1250087320804596,-0.029451847076416016,0.3576148104593647,-0.6126306654816288,-0.5498363955911056,-0.4409934839376238,0.046794012185108196,-1.9344187302528435,-1.710991253093681
1773062940215423232,2.0643503665924072,0.21196717023849487,0.04778490215539932,0.16417214274406433,-0.9341458082199097,-0.045264534652233124,0.35400938987731934,0.03544896841049194,0.04297570884227753,-0.20091795921325684,0.3585819749988808,-0.6124804012093604,-0.5494292000411599,-0.44092432548809335,0.04528000622364462,-1.933039371456454,-1.7104859016266452
1773062940225478144,2.0744051933288574,0.16189654171466827,-0.25010642409324646,0.18877442181110382,-0.9338886737823486,-0.04276013746857643,0.3549979031085968,0.04292804002761841,-0.07587695121765137,-0.2601950466632843,0.3593856629592467,-0.6128209496859499,-0.5494992620049309,-0.4397078381789266,0.042773179980491245,-1.9340558180501035,-1.7091484155498764
1773062940235534080,2.084461212158203,-0.28413906693458557,-0.40145373344421387,0.19487956166267395,-0.932747483253479,-0.04116886854171753,0.35817211866378784,0.018730759620666504,-0.09898310899734497,-0.04367327690124512,0.35871313313950415,-0.6141767584928618,-0.5494296821382552,-0.43845047101264656,0.04118050539297749,-1.937431264224254,-1.7102697550847399
1773062940245590272,2.094517230987549,-0.6134693026542664,-0.34761953353881836,0.36095693707466125,-0.931443452835083,-0.040386248379945755,0.3616377115249634,-0.10331594944000244,-0.08002081513404846,0.12810832262039185,0.35676469189580257,-0.6166145794258907,-0.5482748581549471,-0.43806392197898103,0.04039723520164665,-1.9411370236861965,-1.7156471928201196
1773062940255645184,2.104572296142578,-0.5782391428947449,-0.025614723563194275,0.41297653317451477,-0.9308785200119019,-0.038795553147792816,0.36326339840888977,-0.2023918628692627,-0.01601402834057808,0.064165860414505,0.35519933108783536,-0.619289975879725,-0.5459959913320979,-0.438408275777397,0.038805290346891015,-1.9428582366203786,-1.7229404808204654
1773062940265701376,2.114628314971924,-0.2966626286506653,0.2371138334274292,0.31558072566986084,-0.9313928484916687,-0.0370430089533329,0.3621261417865753,-0.2320135235786438,0.0434974767267704,-0.08052515983581543,0.35488826378811267,-0.6208467282240766,-0.543702500817507,-0.43930774873935463,0.037051485195712004,-1.9416109670315818,-1.7284401203617386
1773062940275757312,2.1246843338012695,0.009000536985695362,0.30939018726348877,0.23637928068637848,-0.9325644373893738,-0.03497004136443138,0.3593065142631531,-0.18349415063858032,0.03878471627831459,-0.19901278614997864,0.3558568863315384,-0.6212070634396621,-0.5419917349345457,-0.4401281725511224,0.03497717236779635,-1.938556549510385,-1.7307975954657646
1773062940285812480,2.134739398956299,0.027524154633283615,0.3764219582080841,0.1895798146724701,-0.9338209629058838,-0.03282301500439644,0.35623183846473694,-0.11342024803161621,-0.008024774491786957,-0.34460461139678955,0.3573750281813826,-0.6209572479437313,-0.540858588771032,-0.4406440546921168,0.03282891168239607,-1.9352339162322922,-1.7310778879278614
1773062940295868160,2.1447951793670654,-0.1021943986415863,0.37651190161705017,0.052793700248003006,-0.9352541565895081,-0.031792644411325455,0.35254621505737305,-0.06704986095428467,-0.029303528368473053,-0.31198838353157043,0.3585640635692198,-0.620531368330147,-0.5396424127950201,-0.441767671371459,0.03179800443838007,-1.9312775248535272,-1.7320106046559194
1773062940305923328,2.1548502445220947,-0.12947873771190643,0.3417733609676361,-0.024770596995949745,-0.9365136027336121,-0.03216903656721115,0.34915199875831604,-0.08785450458526611,-0.09377697110176086,-0.2762913107872009,0.3591806786971938,-0.6199521468658938,-0.5387349461685226,-0.44318519442569726,0.032174588905195804,-1.927655347867916,-1.7330991748615152
1773062940315979264,2.1649062633514404,-0.23164698481559753,0.21732473373413086,-0.036942847073078156,-0.9375066757202148,-0.03311421349644661,0.3463878333568573,-0.10903257131576538,-0.1615421622991562,-0.09440425038337708,0.35934745935804996,-0.6195151422729993,-0.5379543682130452,-0.44460704025287173,0.03312026895862306,-1.9247167828753198,-1.7345656969971772
1773062940326035200,2.174962282180786,-0.591853141784668,0.4075290262699127,0.1500808298587799,-0.9384725093841553,-0.034121762961149216,0.34366458654403687,-0.183582603931427,-0.038647428154945374,0.2675415575504303,0.35890984802980685,-0.6197592659259122,-0.5364053905319089,-0.4464880275489501,0.03412838644213956,-1.9218258805416146,-1.7385859630944633
1773062940336090368,2.1850173473358154,-0.4610172510147095,0.9324338436126709,0.3565123677253723,-0.9408376216888428,-0.03367163985967636,0.33718064427375793,-0.34428805112838745,0.21219946444034576,0.5520710945129395,0.3594986695328518,-0.6199687931592162,-0.5331313316355719,-0.44963363202542705,0.033678007345326784,-1.9149200888048683,-1.7448351924789882
1773062940346146304,2.195073366165161,0.011242952197790146,1.2868435382843018,0.4340417683124542,-0.9447854161262512,-0.030563779175281525,0.32626089453697205,-0.40309959650039673,0.20373578369617462,0.5021692514419556,0.36276020820680116,-0.6188877320332948,-0.5292526965726629,-0.45307229238038227,0.030568540411247132,-1.9033029880729673,-1.7484042275910363
1773062940356201216,2.2051281929016113,0.3164057433605194,1.1523083448410034,0.3737107813358307,-0.948900580406189,-0.02608742006123066,0.3144945204257965,-0.2215551733970642,0.1603952944278717,0.4499860405921936,0.3675681823861493,-0.6167833057405308,-0.5261421924187519,-0.4556821939051552,0.02609037974781428,-1.8908332653902737,-1.7479167746330195
1773062940366257152,2.215184211730957,0.1281610131263733,1.029356837272644,0.38288614153862,-0.952336311340332,-0.02176530659198761,0.30427226424217224,-0.05242431163787842,0.09699113667011261,0.5088990926742554,0.37201966186667496,-0.6148413797675105,-0.523551535154759,-0.45767363826238994,0.021767026260016264,-1.8800464238808954,-1.7467342339457383
1773062940376313088,2.2252402305603027,0.08845794200897217,0.9003787636756897,0.3780348598957062,-0.9553406834602356,-0.017856860533356667,0.2949666976928711,-0.053906142711639404,0.06172587722539902,0.3368082046508789,0.3757141447048951,-0.6134372653921296,-0.520747604659059,-0.4597342084374146,0.01785780978493135,-1.8702662136947195,-1.7470571849243473
1773062940386368256,2.235295295715332,0.1063956692814827,0.8118065595626831,0.35657748579978943,-0.9578765630722046,-0.013942202553153038,0.2868417799472809,-0.04221498966217041,0.018824998289346695,0.026466965675354004,0.3791286835082798,-0.6122443130103727,-0.5182449142135624,-0.4613465084847215,0.013942654402736687,-1.861753860324339,-1.7470925700435307
1773062940396424192,2.2453513145446777,0.12827786803245544,0.7228214740753174,0.3771854341030121,-0.960133969783783,-0.010188834741711617,0.2793543338775635,0.0034537315368652344,-0.007602921687066555,-0.11896923184394836,0.3823157412017085,-0.6111565851915337,-0.5159116136672962,-0.4627715170907994,0.01018901086358712,-1.8539330430990413,-1.747056378983981
1773062940406479360,2.255406379699707,0.0044182357378304005,0.7326653003692627,0.3548244535923004,-0.9621303677558899,-0.006289207376539707,0.2725176513195038,0.024355590343475342,-0.09527330100536346,-0.23769709467887878,0.3852815055715275,-0.6103362007464098,-0.5135645475718098,-0.46400370742493524,0.006289248955320296,-1.8468106418687964,-1.7473347826618795
1773062940416535296,2.2654623985290527,0.0894184485077858,0.851084291934967,0.25954917073249817,-0.964280903339386,-0.0033339837100356817,0.2648608684539795,0.045015156269073486,-0.06458289176225662,-0.22334173321723938,0.3880773920085336,-0.6092233290934839,-0.5111529814683008,-0.4657955664101846,0.003333989816335857,-1.8388574878993227,-1.7479597683807477
1773062940426591232,2.2755181789398193,0.32906994223594666,0.9885063767433167,0.16284500062465668,-0.9667049646377563,-0.0006361777195706964,0.2558930516242981,0.05148279666900635,-0.060872018337249756,-0.2966644763946533,0.3916176548012639,-0.607201341984573,-0.5091689852435931,-0.46764210176516924,0.0006361777884597984,-1.8295677633715515,-1.7464636560299593
1773062940436646144,2.2855732440948486,0.5266487002372742,1.0670239925384521,0.04167879745364189,-0.969308614730835,0.00139558594673872,0.24584351480007172,0.11399245262145996,0.06211148202419281,-0.3581176996231079,0.3958042950087248,-0.604157502469679,-0.5078537846055214,-0.4694861957877862,-0.001395586429755984,-1.8191863604013483,-1.7424858768120892
1773062940446702336,2.2956292629241943,0.4729766845703125,0.9940437078475952,-0.04136202856898308,-0.9718397855758667,0.002666264306753874,0.2356276661157608,0.1543501615524292,0.05423375591635704,-0.3282637596130371,0.40006829903976504,-0.6006272496975562,-0.50701157418843,-0.4713083531075205,-0.0026662673715394636,-1.8086615387200196,-1.737334983973669
1773062940456757248,2.3056843280792236,-0.055394433438777924,0.7572356462478638,0.0057945335283875465,-0.9738804697990417,0.0029176122043281794,0.22704379260540009,0.17465531826019287,-0.06367813050746918,-0.05057579278945923,0.40294589177535145,-0.5979845975726913,-0.5059014874786998,-0.47340566635550874,-0.002917616432871226,-1.7998383770694533,-1.7349299537384715
1773062940466813440,2.3157403469085693,-0.5957290530204773,0.4697982370853424,0.17760756611824036,-0.9752453565597534,0.0029710254166275263,0.22110578417778015,0.11254394054412842,-0.06028303503990173,0.22893691062927246,0.4036285679238567,-0.5974751733090897,-0.5035636113828177,-0.4759528498523589,-0.002971029677302766,-1.7937454941107231,-1.7385988344814791
1773062940476869376,2.325796365737915,-0.6022513508796692,0.42389458417892456,0.3347706198692322,-0.9761795997619629,0.004201321396976709,0.21692347526550293,0.004332065582275391,0.03525789827108383,0.32584691047668457,0.40346547039810626,-0.5983890629344889,-0.5003921095767567,-0.47828225017935727,-0.004201333594912833,-1.7894600651950276,-1.7453293653121649
1773062940486924288,2.3358511924743652,-0.25361692905426025,0.5956621170043945,0.3979716897010803,-0.9772552251815796,0.006867691408842802,0.21195559203624725,-0.11083376407623291,0.09321470558643341,0.39052248001098633,0.40429117897049693,-0.5989928029703533,-0.4971774540702166,-0.4801779703221789,-0.006867745431819886,-1.7843770215955026,-1.7504925833144396
1773062940496980224,2.345907211303711,0.18261270225048065,0.7738544940948486,0.4292167127132416,-0.9786512851715088,0.010926634073257446,0.20523782074451447,-0.18884456157684326,0.13516099750995636,0.3994528353214264,0.40693550443110027,-0.5984285780543702,-0.49447158031876176,-0.4814402437508187,-0.010926851675973214,-1.7775155032147463,-1.7515933387448963
1773062940507036160,2.3559632301330566,0.3108375370502472,0.910174548625946,0.433218389749527,-0.9803035855293274,0.015419801697134972,0.1968940794467926,-0.1656009554862976,0.1748572736978531,0.3857170343399048,0.4107220590861949,-0.596913390498793,-0.49207870040155965,-0.4825561359026411,-0.015420412359140254,-1.7690091681808424,-1.7501089183084444
1773062940517091328,2.366018295288086,0.4626372158527374,0.9401973485946655,0.5646039843559265,-0.9820247888565063,0.0212634839117527,0.1875511109828949,-0.0715947151184082,0.1753307580947876,0.2920936644077301,0.41551857532388264,-0.5950375985723424,-0.48959759985548756,-0.48328961097874934,-0.021265085961435563,-1.7595079030960203,-1.7470238729883276
1773062940527147264,2.3760743141174316,0.2232765555381775,0.8008354902267456,0.6319497227668762,-0.9834973812103271,0.027765607461333275,0.17878009378910065,0.0918956995010376,0.09305346012115479,-0.06444595754146576,0.4201920518137579,-0.5935910828537475,-0.48686720646804416,-0.4837858209828892,-0.027769176493869088,-1.750612817844105,-1.7445338531829557
1773062940537202432,2.386129379272461,-0.22815722227096558,0.5691492557525635,0.6670873165130615,-0.9845015406608582,0.03428860008716583,0.17199134826660156,0.33324116468429565,0.06147557124495506,-0.15619850158691406,0.42344219075609224,-0.5935570779388751,-0.48341045302448815,-0.4844595490727593,-0.03429532111770384,-1.7437498291349978,-1.745812948953892
1773062940547258368,2.3961853981018066,-0.5135114789009094,0.34254908561706543,0.4869620203971863,-0.9850264191627502,0.03946816921234131,0.16782447695732117,0.4596664309501648,0.007101651281118393,-0.14782024919986725,0.4247990400236141,-0.5947285658304745,-0.4798022197072184,-0.48542092809761983,-0.03947842411569851,-1.7395515164254582,-1.7505735849496233
1773062940557314048,2.4062411785125732,-0.3874988853931427,0.3506357669830322,0.2793441116809845,-0.9854523539543152,0.042370691895484924,0.16458570957183838,0.4043824076652527,-0.04009713605046272,-0.19679701328277588,0.42507312159013866,-0.5958422672289179,-0.4767230322930514,-0.4868470165600689,-0.04238338111647197,-1.7362842877684275,-1.7561167880516078
1773062940567369216,2.4162962436676025,0.05901097506284714,0.4728381037712097,0.06834211200475693,-0.9860410094261169,0.043850839138031006,0.16062548756599426,0.2617976665496826,-0.0866059809923172,-0.2731894850730896,0.4259900738401266,-0.5956155417267255,-0.4749261738268426,-0.4880777305249295,-0.043864904633255535,-1.732277326656346,-1.7580227409243347
1773062940577425152,2.4263522624969482,0.45335087180137634,0.6463562846183777,-0.044388603419065475,-0.9869365692138672,0.04433272033929825,0.15489019453525543,0.1586132049560547,-0.15331099927425385,-0.26164066791534424,0.42816197149917457,-0.59365750992379,-0.47435836314073226,-0.4891137757604891,-0.04434725427586828,-1.7264669178044258,-1.755345574480939
1773062940587480320,2.4364073276519775,0.529180109500885,0.6751807332038879,-0.1054610162973404,-0.9879969358444214,0.04433318227529526,0.147974893450737,0.08052629232406616,-0.15000030398368835,-0.2434948831796646,0.4311030180836477,-0.5907031663747695,-0.474401957749748,-0.49006401060679505,-0.04434771868495285,-1.7194638941676668,-1.750117117301263
1773062940597536256,2.4464633464813232,0.47736287117004395,0.5559008717536926,-0.052198637276887894,-0.9888795018196106,0.04417826235294342,0.14200598001480103,0.042620956897735596,-0.08075357973575592,-0.16991424560546875,0.4336833758159161,-0.5880376204437803,-0.4745679575409612,-0.49083172676152204,-0.044192643776166156,-1.7134241603623228,-1.745257499837752
1773062940607592448,2.456519365310669,0.2749255895614624,0.562008798122406,-0.04394097253680229,-0.989702582359314,0.04418978467583656,0.1361476182937622,0.031435370445251465,-0.07391391694545746,0.06702315807342529,0.43603181529632934,-0.5856772262285588,-0.47440066763676664,-0.4917341570659062,-0.044204177926291784,-1.7075024699665344,-1.741429597877136
1773062940617647104,2.466574192047119,0.21293362975120544,0.4978255033493042,0.008478527888655663,-0.990425169467926,0.044364649802446365,0.13072814047336578,-0.037116944789886475,-0.024665575474500656,0.2195068597793579,0.43795032784623034,-0.5838156960052073,-0.47383889814297764,-0.49278341465461567,-0.04437921664171747,-1.7020296602351777,-1.7391073189903787
1773062940627703296,2.476630210876465,0.2844909131526947,0.4307977259159088,-0.016950931400060654,-0.991033673286438,0.04461308568716049,0.125944584608078,0.02025425434112549,0.06848505139350891,0.2115187644958496,0.43976649652632527,-0.5820977516612753,-0.47342845243334314,-0.49359210585757834,-0.04462789652581149,-1.697202793567342,-1.7366621190187754
1773062940637758208,2.486685276031494,0.20387445390224457,0.3724234104156494,0.00508699007332325,-0.991524338722229,0.04492038115859032,0.12190814316272736,0.05721348524093628,0.005906637758016586,0.18274879455566406,0.4415077746152989,-0.5804937253823844,-0.47326642068029046,-0.4940817522901219,-0.04493550164615871,-1.693132576548018,-1.7338613899675792
1773062940647814400,2.49674129486084,-0.03162914887070656,0.26452863216400146,0.11333835870027542,-0.9918792843818665,0.04545634984970093,0.11878253519535065,0.07349854707717896,-0.02088971808552742,0.14168500900268555,0.44257043237216814,-0.5796666717414054,-0.4726286254947555,-0.4947122151545312,-0.045472019390955035,-1.6899837566794786,-1.7331834311553638
1773062940657870336,2.5067973136901855,-0.30225345492362976,0.13929107785224915,0.29654139280319214,-0.9920250177383423,0.04738966375589371,0.11679217964410782,0.15169310569763184,0.028370220214128494,0.1674179881811142,0.44313600472315884,-0.5800019279602644,-0.47116223493900855,-0.49521139053869057,-0.0474074188532638,-1.6879879434561675,-1.734989872520256
1773062940667925248,2.516852378845215,-0.5552542805671692,0.08722148835659027,0.4805857837200165,-0.9919605851173401,0.05070113390684128,0.11594674736261368,0.1947193741798401,0.0017433054745197296,0.16971302032470703,0.4430489774164327,-0.5816320373066629,-0.4686977157060994,-0.4957159057897017,-0.05072288062028867,-1.6871547791515946,-1.7398773939073615
1773062940677981440,2.5269083976745605,-0.7305598258972168,-0.007531912066042423,0.5114293098449707,-0.9917527437210083,0.055114246904850006,0.11571113765239716,0.1460953950881958,-0.1025843620300293,0.23345577716827393,0.4426151996425402,-0.5841121556607979,-0.46547669977858264,-0.4962220357812358,-0.05514218616862697,-1.6869445658713562,-1.7468166449951612
1773062940688036096,2.5369632244110107,-0.8405853509902954,0.27271971106529236,0.5532116293907166,-0.991520345211029,0.05917055159807205,0.11570024490356445,0.069385826587677,-0.08446962386369705,0.03632308542728424,0.4416476076950479,-0.5869120249988914,-0.46193548859192257,-0.49708892510314945,-0.05920513460554851,-1.6869607076446949,-1.7552887983594407
1773062940698092288,2.5470192432403564,-0.30185288190841675,-0.09274361282587051,0.17671848833560944,-0.9913701415061951,0.062097348272800446,0.11545252054929733,0.07349294424057007,0.10867902636528015,-0.17992091178894043,0.44090660530988096,-0.588948760166087,-0.4592010651272469,-0.4978706325440229,-0.06213732571274132,-1.6867316221462956,-1.7617934422580623
1773062940708148224,2.557075262069702,-0.39278677105903625,0.20104247331619263,-0.015205150470137596,-0.9914456605911255,0.06287176162004471,0.11437898129224777,0.027273356914520264,-0.1236322745680809,-0.04840005189180374,0.44046031312652095,-0.5896759075660762,-0.45768090902211017,-0.4988037486039078,-0.06291325799473481,-1.6856544229745842,-1.7654516683471362
1773062940718203392,2.5671303272247314,0.12511509656906128,0.1368192881345749,-0.09596042335033417,-0.9916527271270752,0.06219704449176788,0.11294563114643097,0.062239766120910645,0.16773763298988342,-0.23425303399562836,0.44030636093482606,-0.5894478887586138,-0.45719142864155793,-0.4996575119392124,-0.062237217521269164,-1.6842039795261552,-1.7666353625641267
1773062940728259328,2.577186346054077,0.21507400274276733,0.034939270466566086,-0.24078257381916046,-0.9918796420097351,0.060602523386478424,0.11181313544511795,0.1722995638847351,-0.0072120241820812225,-0.13477766513824463,0.44064851497509583,-0.588352728219251,-0.4579821331778038,-0.4999223301699311,-0.06063967846207158,-1.6830509591823581,-1.7645221842374381
1773062940738314496,2.5872414112091064,0.09687352925539017,-0.044963203370571136,-0.2969500720500946,-0.992044985294342,0.05804542824625969,0.11170241236686707,0.13460785150527954,-0.04049782082438469,0.07447004318237305,0.4404190522116294,-0.5873765773650624,-0.45917312824921774,-0.5001797973766875,-0.058078071144897124,-1.6829221924735402,-1.7626752685992988
1773062940748370176,2.597297191619873,-0.12234776467084885,-0.07073301076889038,-0.2544819712638855,-0.9921351075172424,0.05540580675005913,0.11224011331796646,0.10596579313278198,-0.061509326100349426,0.10133717954158783,0.4396819396098004,-0.5868518606536842,-0.4601357937943649,-0.5005593207478526,-0.055434194646952206,-1.6834472349249214,-1.7621638877174735
1773062940758426112,2.6073532104492188,-0.5944110751152039,-0.17737285792827606,-0.06117123365402222,-0.992087185382843,0.0530770942568779,0.11378110945224762,0.07344692945480347,-0.1565622091293335,0.07654179632663727,0.4378064536484264,-0.5875553129361522,-0.4600753309942961,-0.5014330150552241,-0.0531020479291223,-1.6849860312732154,-1.765611774121683
1773062940768481280,2.617408275604248,-0.8710943460464478,-0.1771528720855713,0.15814460813999176,-0.9918439388275146,0.05297764390707016,0.11592795699834824,0.1037212610244751,-0.25387486815452576,0.05010296404361725,0.4353872777313503,-0.5898110492273542,-0.4583523811664587,-0.5024680007641904,-0.05300245777740935,-1.6871496480180619,-1.7731591898880086
1773062940778537216,2.6274642944335938,-0.9211854934692383,-0.21211445331573486,0.08039943128824234,-0.9915282726287842,0.053011588752269745,0.1185813918709755,0.1532103419303894,-0.21084851026535034,0.10236585140228271,0.4324867740024994,-0.59258014146663,-0.4562230489092247,-0.5036511836993596,-0.0530364507805148,-1.6898255533034903,-1.7822962657467019
1773062940788593408,2.6375203132629395,-0.6529505848884583,0.04057291895151138,0.1331350952386856,-0.9913589358329773,0.053164370357990265,0.11992114037275314,0.0723525881767273,-0.03747835010290146,-0.003008246421813965,0.4301076731937218,-0.594860411063627,-0.4539842095260376,-0.5050216237556469,-0.05318944556112602,-1.6911778468641523,-1.7906839598171806
1773062940798648320,2.6475753784179688,-0.14332455396652222,0.15722814202308655,0.020471369847655296,-0.9914429783821106,0.05345683917403221,0.11909251660108566,0.06663841009140015,0.09226461499929428,-0.18630756437778473,0.42938090664676504,-0.5956042771514256,-0.45255033202599143,-0.5060490932311457,-0.053482331531052675,-1.6903439339454556,-1.7946386305712745
1773062940808704256,2.6576313972473145,0.08650917559862137,0.18065224587917328,-0.10665889084339142,-0.9916776418685913,0.053071584552526474,0.11729774624109268,0.06546920537948608,0.011534146964550018,-0.272616982460022,0.4296443898595634,-0.5951006143042079,-0.4522213313452923,-0.5067117185862001,-0.05309652984093434,-1.688531431816621,-1.7947805311965461
1773062940818759168,2.6676862239837646,0.24952685832977295,0.07743857055902481,-0.20532573759555817,-0.9919199347496033,0.05167106166481972,0.11586674302816391,0.11870521306991577,0.0875806212425232,-0.2218543291091919,0.4300562976552168,-0.594019688373152,-0.4528509493588836,-0.5070683368614946,-0.051694080773299324,-1.6870799317598915,-1.7928666439364642
1773062940828815104,2.6777422428131104,0.212591752409935,-0.09859690815210342,-0.2512650191783905,-0.9920217394828796,0.049578066915273666,0.11590909957885742,0.21490693092346191,0.05930864065885544,-0.07693815231323242,0.43017606281502835,-0.5929577141319756,-0.4542639087651153,-0.5069458020255841,-0.049598399494645735,-1.687110224761705,-1.790000794136941
1773062940838871296,2.687798261642456,-0.18406033515930176,-0.1613623946905136,-0.16144557297229767,-0.9919787049293518,0.04753277078270912,0.11712929606437683,0.19043439626693726,-0.07658551633358002,0.07815267145633698,0.4294364457142373,-0.5927445491493364,-0.45521263990263333,-0.5069712614151439,-0.04755068947780576,-1.688328552370309,-1.7895130836914088
1773062940848926208,2.6978533267974854,-0.5253491997718811,-0.2341870665550232,0.01382424682378769,-0.9917578101158142,0.046296313405036926,0.11947084218263626,0.08653014898300171,-0.15675470232963562,0.08604979515075684,0.4276422916165735,-0.5939037696816043,-0.45498762010982474,-0.5073329519452678,-0.04631286747649163,-1.690682374851564,-1.7930753874429186
1773062940858982400,2.707909345626831,-0.5134789347648621,-0.09242941439151764,0.07930963486433029,-0.9915329813957214,0.0462336465716362,0.12134604156017303,0.0018173456192016602,-0.1483454704284668,0.07410384714603424,0.42576786510371756,-0.595648178572503,-0.45373590147726117,-0.5079849970444575,-0.046250132530756924,-1.6925730207369774,-1.7986966166637064
1773062940869037312,2.7179644107818604,-0.05255021154880524,-0.015188688412308693,-0.005623095203191042,-0.9914636611938477,0.046281274408102036,0.12189293652772903,-0.07289791107177734,-0.05635207146406174,-0.09811973571777344,0.4249039929443388,-0.5964691874566701,-0.45295802996871887,-0.5084389449997916,-0.04629781108680041,-1.6931248789057851,-1.8016580651076028
1773062940879093248,2.728020191192627,0.2880856990814209,-0.018771909177303314,-0.17395137250423431,-0.9914862513542175,0.045548342168331146,0.12198518961668015,-0.03286677598953247,0.043273068964481354,-0.23726534843444824,0.425043425604446,-0.596014626047613,-0.4536068350144921,-0.5082770143428811,-0.045564105367834916,-1.693213778073702,-1.8001969715550696
1773062940889149184,2.7380762100219727,0.43962571024894714,-0.0012933150865137577,-0.22981517016887665,-0.9915706515312195,0.0439414456486702,0.12188825756311417,0.0003292560577392578,0.04011920839548111,-0.15802109241485596,0.4256215358704524,-0.5947561679635854,-0.45520240457083616,-0.5078407060979694,-0.0439555992741467,-1.6931071604191095,-1.7961899337369054
1773062940899204352,2.748131275177002,0.44733843207359314,-0.10023434460163116,-0.27933719754219055,-0.991631269454956,0.041961919516325,0.12209253758192062,0.0008781552314758301,-0.1456301212310791,-0.11557710915803909,0.42620303783464664,-0.5933328733473366,-0.4571677693520183,-0.5072521050117592,-0.04197424365202235,-1.693302691378281,-1.7914730550471403
1773062940909260288,2.7581872940063477,0.5498049259185791,-0.36348941922187805,-0.3730652928352356,-0.9914888143539429,0.03940171003341675,0.12408661842346191,0.11833512783050537,-0.10011642426252365,-0.12411713600158691,0.4263826025909389,-0.5920787331267096,-0.4598761594609822,-0.5061171607993896,-0.039411912334371316,-1.6953007913488465,-1.7860440820404149
1773062940919315456,2.768242359161377,0.19464263319969177,-0.7030293941497803,-0.38084185123443604,-0.9909581542015076,0.035920143127441406,0.1292729675769806,0.19507509469985962,-0.0550088956952095,0.0871577113866806,0.4253441052507208,-0.591624919945749,-0.463267137314274,-0.5044262406390718,-0.03592787231858125,-1.7005162882883742,-1.7814167914120427
1773062940929371136,2.7782981395721436,-0.5825213193893433,-0.7222734093666077,-0.055063508450984955,-0.9900355935096741,0.03335581719875336,0.1368093490600586,0.012466073036193848,-0.13473519682884216,0.3115091323852539,0.4224062565338466,-0.593419713007997,-0.465035181114336,-0.5031582582928802,-0.033362003938308696,-1.7081129869560767,-1.78313606326732
1773062940939427072,2.7883541584014893,-0.8129016757011414,-0.4369530975818634,0.21819914877414703,-0.9891909956932068,0.03316813334822655,0.1428314596414566,-0.24474138021469116,-0.004008583724498749,0.1946471780538559,0.4189973321692693,-0.5967049089676771,-0.4640678644655688,-0.5030162963644987,-0.03317421753733635,-1.7141974134999702,-1.7908524753581674
1773062940949482240,2.7984092235565186,-0.48376187682151794,-0.09079700708389282,0.27776846289634705,-0.9887554049491882,0.034817032516002655,0.14543165266513824,-0.3210284113883972,0.15515489876270294,-0.037124767899513245,0.41711163805459583,-0.5993136944981227,-0.4621027216988707,-0.5032911308762567,-0.0348240690612864,-1.7168347754811208,-1.7978360760031562
1773062940959538176,2.8084652423858643,-0.1334920972585678,-0.05642802268266678,0.1738935112953186,-0.988593339920044,0.03669686242938042,0.1460692435503006,-0.16523033380508423,0.17462211847305298,-0.14713743329048157,0.4167005220122189,-0.6005938361049112,-0.4607837555680224,-0.5033149083458284,-0.036705104002268875,-1.717489602991919,-1.8010571550759111
1773062940969593344,2.8185203075408936,0.09971240162849426,-0.11958009749650955,0.010257708840072155,-0.9884177446365356,0.03764008730649948,0.14701472222805023,0.1052238941192627,0.00920441746711731,-0.17463316023349762,0.4166918671347311,-0.6010802044916013,-0.4606625119581426,-0.5028522685447321,-0.03764898067224292,-1.7184512697861518,-1.8013099332278042
1773062940979649280,2.8285763263702393,0.2720358073711395,-0.10414643585681915,-0.22272728383541107,-0.98828125,0.0369042232632637,0.14811542630195618,0.23408514261245728,-0.1726616770029068,-0.23547197878360748,0.4167232843567546,-0.6007522550431263,-0.4616865149190221,-0.5022787845343267,-0.03691260442829924,-1.7195608214845948,-1.7993086934012217
1773062940989705216,2.838632345199585,0.3176315128803253,-0.2999851703643799,-0.4963875710964203,-0.9881656169891357,0.03376085311174393,0.14962881803512573,0.275168240070343,-0.18610459566116333,-0.27131760120391846,0.4163507429278446,-0.5996813665854472,-0.4638929476246969,-0.501834222714801,-0.03376726810792299,-1.7210755086310359,-1.7957260121797238
1773062940999760128,2.848687171936035,0.20145782828330994,-0.5543839931488037,-0.5425070524215698,-0.9876358509063721,0.028819698840379715,0.15409420430660248,0.2605239152908325,-0.2168690264225006,-0.010341152548789978,0.41474996293187,-0.5989955576354538,-0.4671738674722061,-0.5009345609261041,-0.028823689273348312,-1.7255717616630937,-1.7921530081172992
1773062941009816064,2.858743190765381,0.11903592944145203,-0.390577495098114,-0.4075052738189697,-0.9869846105575562,0.02425326593220234,0.1589762270450592,0.0407869815826416,-0.3051981031894684,-0.010141953825950623,0.4127688838149847,-0.5988359332103824,-0.46998259752551874,-0.5001338509442214,-0.024255645067549545,-1.7304972935074885,-1.7900903846035479
1773062941019872256,2.8687992095947266,0.305168479681015,-0.15185683965682983,-0.322139710187912,-0.9866480231285095,0.021142935380339622,0.1614883691072464,-0.1519017219543457,-0.19443698227405548,-0.12106789648532867,0.4119388383317804,-0.5982045721038592,-0.47211807494083635,-0.4995619565253513,-0.021144510126632012,-1.7330315611867544,-1.7873548034690203
1773062941029927168,2.878854274749756,0.5193484425544739,0.06634660810232162,-0.41325947642326355,-0.9866377711296082,0.018152274191379547,0.16191479563713074,-0.08266764879226685,0.05962178111076355,0.025600433349609375,0.41208919049925474,-0.5966387537452229,-0.47432014325664806,-0.4992245158525738,-0.018153271375422813,-1.73345411357015,-1.7828218631584511
1773062941039983360,2.8889102935791016,0.8668784499168396,0.2552300691604614,-0.5469143986701965,-0.9870059490203857,0.014448133297264576,0.16003406047821045,0.02774679660797119,0.1732196807861328,-0.039001330733299255,0.41333598032429086,-0.593621330134847,-0.4771066412539315,-0.4991357638887115,-0.014448635906449644,-1.7315383772670425,-1.7752852339455503
1773062941050038272,2.898965358734131,1.0899133682250977,0.22028382122516632,-0.6433709263801575,-0.9874817728996277,0.010187908075749874,0.15740422904491425,0.16213387250900269,0.05345650017261505,-0.23539197444915771,0.41546467696517897,-0.5894585765708096,-0.48087493457683333,-0.4986853046139858,-0.010188083985272068,-1.7288661554651,-1.7643086738492828
1773062941060094208,2.9090211391448975,0.9395999908447266,-0.13684670627117157,-0.7535869479179382,-0.9876320958137512,0.004857710562646389,0.15671469271183014,0.39681166410446167,-0.047292403876781464,-0.20494769513607025,0.41689533983256954,-0.585453324475586,-0.4853882497211977,-0.4978363354197295,-0.004857729437769909,-1.7281615459363768,-1.7529981044293865
1773062941070150144,2.919077157974243,0.48825913667678833,-0.8466305732727051,-0.8428310751914978,-0.9869155287742615,-0.0019149869913235307,0.16122779250144958,0.4922559857368469,-0.14351657032966614,0.02347983419895172,0.4159497692624329,-0.5830754387708248,-0.4905475803536287,-0.4963587580249141,0.0019149882047091824,-1.7327311975044033,-1.7443647618322136
1773062941080205312,2.9291322231292725,-0.39877849817276,-1.3206446170806885,-0.5379877686500549,-0.9848909974098206,-0.009158160537481308,0.172933891415596,0.2772645354270935,-0.21514606475830078,0.3498932123184204,0.41136704689860226,-0.5840428404753241,-0.49533918595485216,-0.49427758974926794,0.009158288810616508,-1.744611335452488,-1.7424783532658794
1773062941090261248,2.939188241958618,-0.7699299454689026,-0.2763954997062683,0.045804817229509354,-0.9833528995513916,-0.012469412758946419,0.1812778115272522,-0.2531278133392334,-0.07593999803066254,0.5012173652648926,0.4067595572991697,-0.5869837419415299,-0.49607357526557355,-0.49387019487340517,0.012469735707660665,-1.753096290696407,-1.7486617918106708
1773062941100316160,2.9492433071136475,-0.26076972484588623,0.5487522482872009,0.04306923225522041,-0.9837502241134644,-0.012755447998642921,0.1790889948606491,-0.6245566606521606,0.17442230880260468,0.12308084964752197,0.4058853228837111,-0.5877152175393241,-0.49410051569850977,-0.4956940889298784,0.012755794182344361,-1.7508715281540155,-1.7540791992329228
1773062941110372352,2.959299325942993,0.41005122661590576,0.2810579538345337,-0.04012765362858772,-0.9845044612884521,-0.012668217532336712,0.1749015599489212,-0.24698662757873535,0.2971836030483246,-0.003850579261779785,0.40715608420918165,-0.5864840985798746,-0.4934442059097437,-0.49676270404578504,0.012668556854419817,-1.7466163643340473,-1.7532958159705654
1773062941120428288,2.969355344772339,0.632509708404541,0.04922730103135109,-0.11887764185667038,-0.9847455024719238,-0.01249943021684885,0.17355139553546906,0.31544923782348633,0.19745120406150818,-0.05480754375457764,0.40893013496867014,-0.5847997479396004,-0.4947574691353537,-0.495984336213599,0.012499755621665798,-1.7452447438859204,-1.7477139590573016
1773062941130483200,2.979410171508789,0.5126189589500427,0.001906122313812375,-0.18526172637939453,-0.9847820997238159,-0.01304599829018116,0.1733032912015915,0.4560193419456482,-0.014557138085365295,-0.1851898580789566,0.41032765469437293,-0.5831265663738154,-0.496603520128229,-0.4949541146322245,0.0130463686119834,-1.744994036749806,-1.7416734932499391
1773062941140539136,2.9894661903381348,0.37634149193763733,-0.2619185149669647,-0.35258248448371887,-0.9845413565635681,-0.014754947274923325,0.1745300143957138,0.5116714835166931,-0.04988127201795578,-0.3487701416015625,0.4107072129446626,-0.5818769564299958,-0.4986824773674182,-0.4940188352947453,0.0147554826296733,-1.7462440515601236,-1.7368471502687568
1773062941150594304,2.999521255493164,0.0753941759467125,-1.1853476762771606,-0.7105132341384888,-0.9832403659820557,-0.019574694335460663,0.18125949800014496,0.6294654607772827,-0.029161859303712845,-0.33659398555755615,0.4084155379390413,-0.5817008212932079,-0.5022488485059384,-0.49251083658454864,0.019575943690119564,-1.7530986821487027,-1.7334288767169017
1773062941160650240,3.0095772743225098,-0.5977518558502197,-1.8833153247833252,-0.583281397819519,-0.9799837470054626,-0.027045531198382378,0.197231724858284,0.44145530462265015,-0.29161903262138367,0.3370852470397949,0.40187795932638454,-0.584354464175057,-0.5070953755439588,-0.4897736347887946,0.027048829567565363,-1.7694033213224065,-1.7342798359296259
1773062941170706176,3.0196332931518555,-1.5167962312698364,-0.7316417694091797,0.13077807426452637,-0.9769814610481262,-0.031374815851449966,0.21100395917892456,-0.29152733087539673,-0.31049835681915283,0.4417518079280853,0.3944531634947295,-0.5895491588300171,-0.5078718001081556,-0.48877873915213726,0.03137996447623482,-1.783504593432034,-1.7447025191377032
1773062941180761344,3.0296883583068848,-1.0072802305221558,0.47438910603523254,0.11588940769433975,-0.9769995212554932,-0.032604292035102844,0.2107342779636383,-0.7743432521820068,0.11938104033470154,0.08061707019805908,0.39077722679889776,-0.5927100466571045,-0.5040455715820906,-0.4918597619167629,0.03261007238606319,-1.7832370436522997,-1.7584574934856319
1773062941190817024,3.0397441387176514,0.2784869968891144,-0.05379696935415268,-0.24686162173748016,-0.977550208568573,-0.03402804955840111,0.2079375684261322,-0.20804262161254883,0.18858428299427032,-0.11418755352497101,0.39019512990908467,-0.5926020620790641,-0.5027838299565612,-0.493739951529565,0.03403462078785495,-1.7803854349061834,-1.761981591383849
1773062941200872192,3.0497992038726807,1.0518373250961304,-0.2405482977628708,-0.4977771043777466,-0.9770095944404602,-0.03622932359576225,0.21009457111358643,0.5040024518966675,0.17278023064136505,-0.4190179109573364,0.3909319168452352,-0.5906859537581204,-0.506100175118884,-0.49206197960472325,0.03623725401750123,-1.7826091707503589,-1.7540089610132703
1773062941210928128,3.0598552227020264,0.9172460436820984,-0.20184724032878876,-0.591129720211029,-0.9763681888580322,-0.039485447108745575,0.21247531473636627,0.5660290122032166,0.012477409094572067,-0.46496254205703735,0.392084804489038,-0.5877541307338425,-0.5106689126001897,-0.4899303268052857,0.03949571510880804,-1.7850734860171424,-1.742749202662349
1773062941220984320,3.069911241531372,0.4785734713077545,-0.6793478727340698,-0.7065615057945251,-0.9752253293991089,-0.04425176605582237,0.21674248576164246,0.3221949338912964,-0.038450874388217926,-0.30492305755615234,0.3915491938935101,-0.5857039577434194,-0.5150942773666867,-0.4881781970376956,0.04426622141096921,-1.789490431721686,-1.7344191793290389
1773062941231039232,3.0799663066864014,0.006307115778326988,-1.0162242650985718,-0.8048891425132751,-0.9728797078132629,-0.05128785967826843,0.22555415332317352,0.24546271562576294,-0.05729367583990097,0.12242257595062256,0.3880158820515607,-0.5854377252376716,-0.519653486688739,-0.4864839198871482,0.05131037132174127,-1.7986132480927157,-1.7304913810959344
1773062941241095424,3.090022325515747,-0.37826746702194214,-0.37118783593177795,-0.5399214029312134,-0.9707157015800476,-0.05853459611535072,0.23299111425876617,-0.07123070955276489,-0.14817622303962708,0.367716908454895,0.3837581023148724,-0.5858378203304623,-0.522771084696887,-0.48603932920746484,0.058568072092292145,-1.8063601500210709,-1.7306292249942004
1773062941251151360,3.1000783443450928,-0.4191363453865051,0.1861390620470047,-0.36398711800575256,-0.9704368710517883,-0.06366772204637527,0.2328072041273117,-0.39569801092147827,-0.0632549300789833,0.10859304666519165,0.3814039732921078,-0.5856070881236944,-0.5229416202247451,-0.4879832083510445,0.06371081117174908,-1.806246160562112,-1.7339756461663838
1773062941261206272,3.110133171081543,-0.08575243502855301,-0.11231948435306549,-0.4134547710418701,-0.9702903628349304,-0.06815057247877121,0.23214676976203918,-0.16626054048538208,0.0942125990986824,-0.1108546257019043,0.3797930593109919,-0.584938549405248,-0.523373936775814,-0.4895751761666633,0.06820343701218755,-1.805636712250847,-1.735596626144699
1773062941271262208,3.1201891899108887,0.25463977456092834,-0.21556438505649567,-0.38593900203704834,-0.9695786237716675,-0.07176593691110611,0.2340240478515625,0.19333338737487793,0.19549942016601562,-0.06877133250236511,0.3786024394431625,-0.5841900201260379,-0.5251038432302879,-0.4895388546143538,0.0718276809878856,-1.8076332301159652,-1.7337879808312602
1773062941281317120,3.130244255065918,0.5775535106658936,-0.21011264622211456,-0.4233521819114685,-0.9687789678573608,-0.07478548586368561,0.23637747764587402,0.19059604406356812,0.2038290798664093,-0.16299797594547272,0.37826459375152066,-0.5828192891330479,-0.5277408564396745,-0.48859708864539914,0.07485537570756946,-1.8101155266124858,-1.7287029755432082
1773062941291373312,3.1403002738952637,0.5848559141159058,-0.5750653147697449,-0.40033766627311707,-0.9675832986831665,-0.07731010764837265,0.24042794108390808,0.14769810438156128,0.10105279833078384,-0.16553784906864166,0.37807052345698455,-0.5814670338724788,-0.5311403400399239,-0.48667100174060685,0.07738733070040062,-1.8143466612263925,-1.7217238306548102
1773062941301429248,3.1503562927246094,0.2658689320087433,-0.7446722984313965,-0.4552007019519806,-0.9655663371086121,-0.08034533262252808,0.24743963778018951,0.15994805097579956,0.035072505474090576,0.16724848747253418,0.37645814276236106,-0.5812025932607442,-0.5347180241689364,-0.4843134198699704,0.08043202750053187,-1.8216615290119176,-1.7164924749762254
1773062941311484416,3.1604113578796387,-0.05640869587659836,-0.4789290428161621,-0.3935256004333496,-0.963579535484314,-0.08439160883426666,0.2537572681903839,-0.09960711002349854,-0.06731129437685013,0.21952462196350098,0.3739567770351833,-0.5813641972275216,-0.5374888833772903,-0.48298837906392056,0.08449210058062934,-1.828298329655197,-1.7143230402508705
1773062941321540096,3.1704671382904053,-0.18615686893463135,-0.1676313281059265,-0.22613008320331573,-0.9625240564346313,-0.08768762648105621,0.2566290497779846,-0.25733983516693115,-0.09190832823514938,0.11046695709228516,0.37196055292651553,-0.5815729541222174,-0.5385976447778741,-0.48304334943493704,0.08780038955140142,-1.8313560083928568,-1.7149645776764533
1773062941331595264,3.1805222034454346,0.06419065594673157,-0.15439994633197784,-0.22633542120456696,-0.96197509765625,-0.08998920768499374,0.2578878104686737,-0.10272228717803955,0.012444011867046356,-0.055403679609298706,0.3708312899161106,-0.5814663639088385,-0.5392965489396002,-0.4832601386340283,0.09011110750725079,-1.8327192250379318,-1.7151680229758706
1773062941341651200,3.1905782222747803,0.46623966097831726,-0.2793615460395813,-0.2493063509464264,-0.9611729979515076,-0.09162171930074692,0.2602926790714264,0.17539101839065552,0.11542540043592453,-0.2700582444667816,0.3704065662466755,-0.5808724866350066,-0.5410485129995874,-0.4823409322653582,0.09175039561806551,-1.835260468576758,-1.711988088469476
1773062941351707136,3.200634241104126,0.6911457180976868,-0.35059791803359985,-0.42165735363960266,-0.9600876569747925,-0.09304908663034439,0.2637684643268585,0.35655665397644043,0.2088785171508789,-0.39806100726127625,0.3706077674148351,-0.5796041825581354,-0.544006639911264,-0.48038081596367,0.09318388070418428,-1.838914980382854,-1.7051953670966704
1773062941361762304,3.2106893062591553,0.3931025266647339,-0.9995806813240051,-0.7741842865943909,-0.9577219486236572,-0.09742898494005203,0.27069592475891113,0.3065378665924072,0.22264263033866882,-0.16660046577453613,0.36894689845115036,-0.5784847282780944,-0.5483642814549569,-0.47804835123200273,0.09758379009469684,-1.8462566426336877,-1.6980934446948863
1773062941371818240,3.220745325088501,0.20396828651428223,-0.5217941999435425,-0.4325305223464966,-0.9546698927879333,-0.10293588787317276,0.2793022096157074,-0.02515798807144165,-0.010467439889907837,0.4060767889022827,0.3658083014360929,-0.5782244911165114,-0.5525464204495596,-0.47595505948724093,0.10311854451214536,-1.855417391721779,-1.6935078279048024
1773062941381873152,3.230800151824951,-0.11330220848321915,0.26196587085723877,-0.13832791149616241,-0.9542281031608582,-0.10504348576068878,0.28002625703811646,-0.45360881090164185,-0.19311325252056122,0.17215263843536377,0.36522769977206904,-0.5776146979214996,-0.5535109611677933,-0.4760206204916961,0.10523763028162074,-1.8562409010284218,-1.6922335013613954
1773062941391929088,3.240856170654297,-0.12583690881729126,0.06771916151046753,-0.1959501951932907,-0.9546095132827759,-0.10718382149934769,0.2779066264629364,-0.39077305793762207,-0.05973203480243683,-0.017896920442581177,0.3648951743198456,-0.5769436444232007,-0.5532534171590087,-0.47738677073331565,0.10739011723905682,-1.854087228324103,-1.6933310706061455
1773062941401985280,3.2509121894836426,0.2938627004623413,-0.16946855187416077,-0.18131092190742493,-0.9542011022567749,-0.10874757170677185,0.27870050072669983,0.10317277908325195,0.08161748945713043,0.04902777075767517,0.3644703323660118,-0.5764606455039071,-0.5541149521494614,-0.4772955290178009,0.10896306317263897,-1.8549688641692776,-1.6920463368227134
1773062941412040192,3.260967254638672,0.6922771334648132,-0.06938616931438446,-0.2572610676288605,-0.9536054730415344,-0.1094028502702713,0.2804778218269348,0.2832258343696594,0.1493961215019226,-0.22673630714416504,0.3650477616749298,-0.5752484485580085,-0.5561727503676857,-0.47592152506217233,0.10962227404651843,-1.8568531865923708,-1.6865723353609257
1773062941422096128,3.2710232734680176,0.8315871953964233,-0.1819877028465271,-0.379094660282135,-0.9530103802680969,-0.11016654968261719,0.2821963429450989,0.2502972483634949,0.1066569983959198,-0.38601717352867126,0.3663239276517328,-0.5731414626155168,-0.5591127278249212,-0.4740344734596489,0.11039062012508079,-1.8586809462929192,-1.6780530883358848
1773062941432151296,3.281078338623047,0.42855560779571533,-0.6214614510536194,-0.5118686556816101,-0.951280415058136,-0.11263928562402725,0.2870161831378937,0.22648781538009644,0.056395359337329865,-0.1324140727519989,0.36593875788117786,-0.5716544692980191,-0.5627781614144052,-0.4717847787282454,0.11287884532943568,-1.8638263553819479,-1.6703324146186018
1773062941442207232,3.2911343574523926,0.15619350969791412,-0.33036696910858154,-0.36095568537712097,-0.9492554664611816,-0.11615577340126038,0.292270690202713,0.02886044979095459,-0.10885034501552582,0.22330859303474426,0.36419025061466836,-0.5710947511656234,-0.5656731693012702,-0.47035115016652373,0.11641856797571574,-1.8694801126014893,-1.6663462741724302
1773062941452263168,3.301190137863159,-0.204438716173172,-0.12719067931175232,-0.21258431673049927,-0.9483576416969299,-0.11882831901311874,0.2941047251224518,-0.19393056631088257,-0.22963663935661316,0.037102580070495605,0.3629516726828333,-0.5707865910109967,-0.5667936374950328,-0.470333624273664,0.11910975351781908,-1.8715115160979838,-1.6656314351619337
1773062941462318080,3.3112452030181885,-0.43027493357658386,-0.23874226212501526,-0.1468568593263626,-0.9476155042648315,-0.12155719101428986,0.29537883400917053,-0.11592203378677368,-0.040216490626335144,0.08094868063926697,0.3610198364330187,-0.5713387603084845,-0.5667992927286495,-0.47114247654669833,0.12185855948224474,-1.8729590186028628,-1.6684812755701754
1773062941472374272,3.321301221847534,-0.09433474391698837,-0.1614951342344284,-0.09056082367897034,-0.9468304514884949,-0.1235150694847107,0.2970793545246124,0.03989380598068237,0.1531781554222107,0.10892653465270996,0.3593049859511198,-0.5720406313632568,-0.5668414184818223,-0.4715509056786482,0.12383129939560751,-1.8748304456685612,-1.6709102834139122
1773062941482430208,3.33135724067688,0.44090479612350464,-0.20197589695453644,-0.14714547991752625,-0.9462003707885742,-0.12406919151544571,0.2988501489162445,0.08540648221969604,0.1773834228515625,-0.18816298246383667,0.3590662365051677,-0.5717975692542265,-0.5678667169348762,-0.47079321561179943,0.12438972113487912,-1.8767232701022267,-1.668907926730689
1773062941492485376,3.341412305831909,0.696717381477356,-0.41672733426094055,-0.23035594820976257,-0.9450631141662598,-0.12408415228128433,0.3024217188358307,0.15026330947875977,0.14567534625530243,-0.30774712562561035,0.359492654729954,-0.5708566192452149,-0.5703802123226841,-0.4685661120838949,0.12440479865486272,-1.8805007419436424,-1.6624954290375182
1773062941502541312,3.351468324661255,0.5159809589385986,-0.465813010931015,-0.17874273657798767,-0.9433333277702332,-0.12419656664133072,0.3077290654182434,0.13931739330291748,0.0742088258266449,0.011896789073944092,0.35940167956802316,-0.5702455659337239,-0.5733101430342725,-0.4657958732772356,0.12451809019373271,-1.8861263493213924,-1.6558481523672346
1773062941512596224,3.361523151397705,0.11160390824079514,-0.2678235173225403,-0.07612821459770203,-0.9420953392982483,-0.12438178062438965,0.31142500042915344,-0.07624566555023193,-0.05559564381837845,0.19318315386772156,0.3590327375482987,-0.5701098780767643,-0.5750541106465993,-0.4640937162055709,0.12470474637783004,-1.890054525644421,-1.6523356509826044
