time,seconds_elapsed,rotationRateX,rotationRateY,rotationRateZ,gravityX,gravityY,gravityZ,accelerationX,accelerationY,accelerationZ,quaternionW,quaternionX,quaternionY,quaternionZ,pitch,roll,yaw
1773063065727213056,0.03275609016418457,-0.07646828889846802,-0.028174063190817833,0.34427186846733093,0.026438867673277855,0.2511398494243622,-0.9675896763801575,0.0712631568312645,0.020344555377960205,-0.05744999647140503,0.9800115487113374,-0.12714130206992566,-0.006344704652344915,0.15287964805870666,-0.25385765723028875,0.02731766491312578,0.31298744150644664
1773063065737250304,0.04279327392578125,-0.1801479011774063,-0.05823822319507599,0.21122460067272186,0.02669101394712925,0.2523147761821747,-0.9672769904136658,0.076900914311409,0.01202845573425293,-0.013710498809814453,0.9797235979728611,-0.12774750966787551,-0.006485681390879449,0.15420795086227312,-0.25507169735233265,0.027586969718690953,0.3157749133539484
1773063065747288320,0.052831172943115234,-0.27146080136299133,-0.01654909923672676,0.03486182540655136,0.026646960526704788,0.2545090913772583,-0.9667031764984131,0.0021768901497125626,-0.0211106538772583,0.015241384506225586,0.9794813107413265,-0.1288513018049586,-0.006763527626309968,0.15481589326859224,-0.2573400403536567,0.027557801901710397,0.3170901784591534
1773063065757325056,0.06286811828613281,-0.33498358726501465,0.019984276965260506,-0.031227048486471176,0.026645274832844734,0.2574589252471924,-0.9659218192100525,-0.07492408901453018,-0.031155824661254883,0.02736896276473999,0.9792887210462944,-0.13034626284207876,-0.006996316592270133,0.15477276231778667,-0.2603915566045466,0.027578338932251322,0.3171103755643322
1773063065767362304,0.07290530204772949,-0.40352270007133484,0.0417415052652359,-0.029431279748678207,0.026883188635110855,0.261032372713089,-0.9649556279182434,-0.09696681052446365,-0.015060722827911377,0.039296507835388184,0.9790703370629628,-0.13217857108266684,-0.007141806467726488,0.15459333122339894,-0.264091514444427,0.027852303759911764,0.3169098271639878
1773063065777400320,0.08294320106506348,-0.40205103158950806,0.009778778068721294,-0.053651127964258194,0.02709735371172428,0.26502853631973267,-0.9638597369194031,-0.04745258018374443,-0.015303224325180054,0.030784785747528076,0.9788253405173847,-0.134225334708699,-0.007327185663227601,0.15437258511535212,-0.2682335321229415,0.028105975441747977,0.3166398402219535
1773063065787437312,0.09298014640808105,-0.3996185064315796,0.0086424071341753,-0.09041420370340347,0.026938891038298607,0.2688623070716858,-0.9628018140792847,0.003929637372493744,-0.02818542718887329,0.022036433219909668,0.9786148074741482,-0.13616303192571916,-0.0076626639575456835,0.1539936489640746,-0.2722116657847469,0.027972386680427848,0.3159890188767642
1773063065797475328,0.10301828384399414,-0.3817107081413269,0.005781373009085655,-0.0959559828042984,0.026761429384350777,0.27267947793006897,-0.9617326855659485,0.015871625393629074,-0.02409854531288147,-0.012357890605926514,0.9784201487118603,-0.1380936390585761,-0.007988223765686189,0.15349406177051605,-0.27617696309205714,0.027819087214133748,0.315088726771104
1773063065807512320,0.11305522918701172,-0.35197359323501587,0.02344292402267456,-0.08562584221363068,0.02664271555840969,0.27620431780815125,-0.9607295989990234,0.007384385913610458,-0.019658297300338745,-0.029932022094726562,0.9782363794435484,-0.13988174321843933,-0.008264694900046938,0.15303056927390307,-0.279842544842254,0.027724646821396106,0.31425999909329516
1773063065817549312,0.1230921745300293,-0.35123205184936523,0.019299179315567017,-0.08273031562566757,0.02663586102426052,0.2796323001384735,-0.9597375988960266,0.0001890864223241806,-0.0266568660736084,-0.03658497333526611,0.9780521994626226,-0.14163082686416983,-0.008479178950806516,0.152586908922536,-0.2834111169079915,0.027746151321237783,0.31348545412693546
1773063065827587328,0.13313031196594238,-0.295809268951416,-0.007741226814687252,-0.05907878279685974,0.026475997641682625,0.2827775478363037,-0.9588200449943542,-0.007738204672932625,-0.03602766990661621,-0.025692284107208252,0.9778735189678722,-0.1432245213218601,-0.008758603626758248,0.1522281592881087,-0.2866886116776708,0.027606088743502732,0.3128509523232872
1773063065837624320,0.14316725730895996,-0.24335891008377075,0.020634755492210388,-0.07096100598573685,0.02632065676152706,0.28535282611846924,-0.9580610394477844,-0.0013572871685028076,-0.040403515100479126,-0.0112229585647583,0.9777295841376382,-0.14452875723563907,-0.008994817239575886,0.15190629183136437,-0.2893745359138491,0.02746593032566946,0.31227032272179295
1773063065847661312,0.15320420265197754,-0.2583101689815521,0.05511443689465523,-0.10380657017230988,0.02645096927881241,0.287747323513031,-0.9573410153388977,0.018226759508252144,-0.021893441677093506,-0.020869433879852295,0.9776186844133514,-0.1457654598508555,-0.009050973973004821,0.1514342701241075,-0.29187385224843465,0.02762259335967557,0.31141986905309166
1773063065857699072,0.16324210166931152,-0.24514487385749817,0.06785672903060913,-0.12978212535381317,0.02672024630010128,0.29022642970085144,-0.9565848708152771,0.01533297635614872,0.003871440887451172,-0.0148354172706604,0.9775230884876134,-0.14705852866201302,-0.009019232941509452,0.1508013984898929,-0.29446345420622466,0.027925697819015917,0.3102663046293115
1773063065867736320,0.1732792854309082,-0.20226559042930603,0.06541647017002106,-0.12253271788358688,0.027020763605833054,0.2924034893512726,-0.955913245677948,0.004061389714479446,0.00921696424484253,0.000621497631072998,0.9774579116079524,-0.1482009257437743,-0.008937374505807538,0.15010897544975352,-0.2967392158517109,0.02825943781360311,0.30898480026190195
1773063065877774336,0.1833171844482422,-0.1418399214744568,0.0534941665828228,-0.0927768275141716,0.02726539596915245,0.29407814145088196,-0.9553924202919006,-0.000272601842880249,-0.005442887544631958,-0.016973912715911865,0.9774128108682917,-0.1490814981588535,-0.008860199073072473,0.14953411898648933,-0.2984908623827307,0.028530683496933565,0.30791546529593283
1773063065887811072,0.19335412979125977,-0.11230041831731796,0.0638437420129776,-0.07469210028648376,0.02758627012372017,0.29532676935195923,-0.9549979567527771,0.0053727105259895325,-0.01790672540664673,-0.0323982834815979,0.9773816046309166,-0.14974922784397637,-0.008728583003021508,0.14907784252866932,-0.29979751348664657,0.028878178665652593,0.30708418049371705
1773063065897848320,0.20339131355285645,-0.08973376452922821,0.07673690468072891,-0.06555479764938354,0.028035320341587067,0.2962993085384369,-0.9546836018562317,0.005503496155142784,-0.01617845892906189,-0.03207176923751831,0.9773638764367139,-0.1502852579990295,-0.008517497737041834,0.14866630736472103,-0.30081561445571064,0.029357648067588425,0.3063542686075613
1773063065907886336,0.21342921257019043,-0.06748891621828079,0.06436838209629059,-0.05798182636499405,0.02855181321501732,0.29706206917762756,-0.9544311761856079,-0.005068540573120117,-0.009250819683074951,-0.029226601123809814,0.9773527098173146,-0.15071856791733843,-0.008265062826278287,0.1483147622448702,-0.3016143445879946,0.029906085849569518,0.3057498569414898
1773063065917923328,0.223466157913208,-0.06657251715660095,0.0701996460556984,-0.09341226518154144,0.029012635350227356,0.29773661494255066,-0.9542070627212524,-0.010183285921812057,-0.023093700408935547,-0.025712311267852783,0.9773569254728203,-0.15110281508683943,-0.008024767705638982,0.14790842708752377,-0.3023208768476807,0.030395602684954358,0.3050211171731409
1773063065927961344,0.2335042953491211,-0.03317807987332344,0.04743893817067146,-0.09874524176120758,0.029264265671372414,0.2982197403907776,-0.9540485143661499,-0.008619116619229317,-0.042665570974349976,-0.016090035438537598,0.9773971634895405,-0.15137390477462662,-0.007853870206126295,0.14737337714702275,-0.3028269943705779,0.030664156846959317,0.3039873553549412
1773063065937998336,0.24354124069213867,-0.021482495591044426,0.06710171699523926,-0.08611506223678589,0.029532980173826218,0.2985196113586426,-0.9539464712142944,-0.007728166878223419,-0.026928424835205078,-0.017595887184143066,0.9774466952548858,-0.151552040361876,-0.007665016983433525,0.14687123742429595,-0.3031411752120469,0.030948855103800205,0.3030161805930369
1773063065948035328,0.25357818603515625,-0.029903145506978035,0.06747908890247345,-0.057393934577703476,0.029985370114445686,0.29874375462532043,-0.953862190246582,0.007917463779449463,0.0016560256481170654,-0.012675285339355469,0.9774845864725564,-0.15170442095305062,-0.007394736454428796,0.14647513522987995,-0.3033760251072966,0.031425397498811666,0.3022887701888676
1773063065958073088,0.26361608505249023,-0.049539078027009964,0.054946787655353546,-0.03686575964093208,0.030438493937253952,0.2991286814212799,-0.9537271857261658,0.0083798598498106,0.008686870336532593,0.012412488460540771,0.9774908383102842,-0.15193815879584224,-0.007155650944049646,0.14620310232471634,-0.30377938632343665,0.03190447531849988,0.30182236852023214
1773063065968110336,0.2736532688140869,-0.10533922165632248,0.06146274507045746,-0.05395100265741348,0.0308676864951849,0.2998533844947815,-0.9534857869148254,0.008652571588754654,0.008435189723968506,0.02271491289138794,0.9774675284431599,-0.1523440493942649,-0.006956931194955283,0.14594608487909322,-0.3045389756178871,0.032362212618443915,0.30139762632421163
1773063065978148096,0.2836911678314209,-0.1487552672624588,0.05264834687113762,-0.07511074841022491,0.031237466260790825,0.30111944675445557,-0.9530746340751648,0.009793411940336227,0.006696105003356934,0.02944493293762207,0.9774167893155922,-0.1530237181281719,-0.006812470878491193,0.1455810690336481,-0.3058663588000052,0.032763737287928155,0.3007660223789181
1773063065988185088,0.2937281131744385,-0.14927804470062256,0.04546766355633736,-0.08079979568719864,0.031463637948036194,0.3025475740432739,-0.9526148438453674,0.005676258355379105,0.006748080253601074,0.03785043954849243,0.9773631936599367,-0.15377626879671796,-0.006741440564413376,0.14515018799835164,-0.30736436183721244,0.0330167055900396,0.2999836531209273
1773063065998222336,0.30376529693603516,-0.17982734739780426,0.05197989568114281,-0.08014838397502899,0.03167242929339409,0.3041203022003174,-0.9521069526672363,0.009511038661003113,0.0014064311981201172,0.030094623565673828,0.9772981415627722,-0.15460198023071858,-0.006688558224669735,0.1447130910536695,-0.309014852779217,0.033253358367798275,0.29919254067620144
1773063066008260352,0.31380319595336914,-0.21324282884597778,0.048647213727235794,-0.07398556172847748,0.03193358704447746,0.30602574348449707,-0.9514875411987305,0.019595343619585037,-0.00654149055480957,0.01688671112060547,0.9772034373963785,-0.1556027568363197,-0.0066351095653928525,0.1442817926320889,-0.3110156837973294,0.03354915680939534,0.298437259294281
1773063066018297088,0.3238401412963867,-0.22774650156497955,0.031923893839120865,-0.07354561239480972,0.03209898993372917,0.30817607045173645,-0.9507876634597778,0.016820687800645828,-0.02012065052986145,0.019330143928527832,0.9770831267601084,-0.15672241801875172,-0.006652673230602454,0.14388312058390537,-0.31327519750567734,0.03374760367784646,0.2977443379854449
1773063066028334080,0.3338770866394043,-0.24502775073051453,0.028075361624360085,-0.08198437094688416,0.03214813023805618,0.3104441463947296,-0.9500478506088257,0.012361753731966019,-0.028171807527542114,0.008672118186950684,0.9769554035177005,-0.15789468560166556,-0.006733382830071813,0.14346448741104198,-0.31566021659033466,0.03382552636025439,0.29699682377423603
1773063066038372352,0.3439152240753174,-0.25043797492980957,0.02889561466872692,-0.09192674607038498,0.032146308571100235,0.31284987926483154,-0.9492584466934204,0.012638237327337265,-0.022459864616394043,0.00223696231842041,0.9768202144996833,-0.1591350255337113,-0.006843183234292545,0.1430088345630252,-0.3181920643216335,0.03385171887372853,0.29617145696261227
1773063066048409344,0.35395216941833496,-0.25289419293403625,0.03440036624670029,-0.1153833344578743,0.03212359547615051,0.31527620553970337,-0.9484561085700989,0.007472958415746689,-0.012969046831130981,0.005081474781036377,0.9766933558622168,-0.16038588452196945,-0.006950659011630935,0.14247176286669758,-0.3207476841056769,0.03385641057298029,0.2951770593359301
1773063066058447360,0.36399030685424805,-0.23360443115234375,0.03709135949611664,-0.11227822303771973,0.03209554776549339,0.3176381587982178,-0.9476686716079712,-0.002661343663930893,-0.0010640323162078857,0.011541962623596191,0.9765817434305524,-0.1616047365052757,-0.007041324905069483,0.14185353263334433,-0.3232375927062325,0.03385495914782291,0.29401288107175555
1773063066068484352,0.3740272521972656,-0.19152303040027618,0.024204587563872337,-0.046685099601745605,0.03215484693646431,0.3196839690208435,-0.9469784498214722,0.0008804276585578918,0.015063345432281494,0.021746516227722168,0.9764675720824273,-0.16266663572144077,-0.007094265451977856,0.14142263035068506,-0.32539593514279014,0.033942162764622426,0.29323360745557564
1773063066078521344,0.3840641975402832,-0.17159268260002136,0.042122732847929,-0.0042413691990077496,0.03238080069422722,0.32138970494270325,-0.9463932514190674,0.02485492080450058,0.012670964002609253,0.017895936965942383,0.9763388091655194,-0.16356402481796567,-0.007085017202839451,0.14127665105976872,-0.3271966865984263,0.034201612140425615,0.29305233381687945
1773063066088559104,0.3941020965576172,-0.14435173571109772,0.011292118579149246,0.0051068589091300964,0.032657500356435776,0.3229175806045532,-0.9458634853363037,0.027279023081064224,0.005085349082946777,0.02111983299255371,0.976207557199956,-0.16437295583520778,-0.007056202245593387,0.14124627807489262,-0.3288105907978839,0.034512943482610324,0.29310952285539704
1773063066098596352,0.40413928031921387,-0.09080848842859268,-0.01131478976458311,0.026006681844592094,0.03266385942697525,0.32401546835899353,-0.9454877376556396,0.016454175114631653,0.00845828652381897,0.0040509700775146484,0.97610218138599,-0.16493956047858566,-0.00714644084719049,0.14130985933249227,-0.32997085374058976,0.03453336549620024,0.2932917355341886
1773063066108634112,0.41417717933654785,-0.052129533141851425,0.007952115498483181,0.03801913559436798,0.03278033807873726,0.3246888518333435,-0.9452526569366455,0.010371506214141846,0.0010100007057189941,-0.006254911422729492,0.9760185589075759,-0.16529460583123606,-0.007166209061135734,0.1414717824355217,-0.33068272406143856,0.034665024874922186,0.29367564956744113
1773063066118671104,0.42421412467956543,-0.01305079460144043,0.004639543127268553,0.0371319018304348,0.03298627957701683,0.3250066339969635,-0.945136308670044,-0.00031721964478492737,0.005513995885848999,-0.007179975509643555,0.9759602289954318,-0.16547252545353536,-0.0071202625049206535,0.1416684321581412,-0.3310187497970439,0.03488692285741262,0.2941303690009033
1773063066128708352,0.4342513084411621,0.027790376916527748,0.012769374996423721,0.02684757485985756,0.033184491097927094,0.3249254822731018,-0.9451572299003601,-0.010799851268529892,0.008845239877700806,-0.019167661666870117,0.975945864865747,-0.16544439859244783,-0.007037660300240091,0.14180365827956992,-0.33093293714995,0.035095605091364675,0.29443921435950837
1773063066138746368,0.4442892074584961,0.00018400582484900951,0.04819434508681297,0.006219128146767616,0.03350217267870903,0.3247383236885071,-0.945210337638855,-0.01355893537402153,-0.00560075044631958,-0.02118980884552002,0.9759479471692125,-0.16537084964042942,-0.006877608453597254,0.14188276988072643,-0.3307350304553909,0.03542931308635906,0.2946495009313942
1773063066148783104,0.45432615280151367,-0.10232638567686081,0.07659082859754562,-0.06119879335165024,0.03406434506177902,0.3252161741256714,-0.9450259208679199,-0.004553847014904022,-0.021139055490493774,0.016727030277252197,0.9759273800405345,-0.16566066710662927,-0.006600660679504929,0.14169892627305228,-0.3312403206678504,0.03603033808834083,0.2943962067827704
1773063066158821376,0.46436429023742676,-0.21822747588157654,0.073936328291893,-0.09918838739395142,0.03451598808169365,0.32676684856414795,-0.9444745182991028,-0.01585448905825615,-0.02513110637664795,0.03810244798660278,0.9758550595930934,-0.16649821897487393,-0.006410302752956346,0.14122385073616525,-0.3328805833961115,0.036528919287649335,0.293577877379046
1773063066168858368,0.47440123558044434,-0.2829636037349701,0.044252730906009674,-0.10432509332895279,0.03474339097738266,0.32922661304473877,-0.9436115622520447,-0.0033865831792354584,-0.03108513355255127,0.04343456029891968,0.9757140348034712,-0.16778987923827196,-0.006386359063613978,0.1406697225065806,-0.3354844118801967,0.03680296610975411,0.29260158071283077
1773063066178895360,0.4844381809234619,-0.33502984046936035,0.04383208602666855,-0.11498266458511353,0.03477824106812477,0.33216410875320435,-0.9425802230834961,0.007488604635000229,-0.050471603870391846,0.038786888122558594,0.97553540052122,-0.16931572267831305,-0.006486329419717303,0.1400742024155704,-0.3385970190364945,0.03688012060409812,0.29152926842375326
1773063066188933120,0.4944760799407959,-0.34131836891174316,0.011340988799929619,-0.042835235595703125,0.03475939854979515,0.3354237675666809,-0.9414258599281311,0.0017701350152492523,-0.051198333501815796,0.03654921054840088,0.9753037887413452,-0.1710049251232736,-0.006661591113974667,0.13962624155702133,-0.342055022439386,0.036905314015539356,0.29076600709878775
1773063066198970368,0.5045132637023926,-0.28834277391433716,0.004583217203617096,0.05160258710384369,0.034828945994377136,0.338428795337677,-0.9403472542762756,0.025244902819395065,-0.032337456941604614,0.018365442752838135,0.9750243922177225,-0.17256706981448242,-0.006855091717462256,0.13964631055706866,-0.34524664791767284,0.03702146549635356,0.2909676814064524
1773063066209008128,0.5145511627197266,-0.19478175044059753,-0.005031060427427292,0.09654316306114197,0.035116009414196014,0.3407014012336731,-0.9395155310630798,0.04560297727584839,-0.007327377796173096,-0.003004610538482666,0.9747600088038874,-0.1737642194850555,-0.006944779839688652,0.1400029216519926,-0.3476628342019928,0.03735932979352317,0.2918662241372014
1773063066219045120,0.5245881080627441,-0.1462695598602295,0.0038682916201651096,0.08081786334514618,0.03542505204677582,0.3422657549381256,-0.9389351606369019,0.039175163954496384,0.023136496543884277,-0.013106465339660645,0.9745477585685494,-0.17459557960668576,-0.006986028279706429,0.14044309511046468,-0.349327221772711,0.03771107720812801,0.2929066546465246
1773063066229082368,0.5346252918243408,-0.0759434774518013,0.030378462746739388,-0.06526824086904526,0.03563762456178665,0.34336167573928833,-0.9385268688201904,0.011466257274150848,0.03867259621620178,0.001591503620147705,0.9744343868168872,-0.17517973957420807,-0.006972687751477205,0.14050277198133435,-0.3504938641688409,0.03795363981139002,0.29312513249621847
1773063066239120128,0.5446631908416748,0.07828737795352936,0.02823728136718273,-0.16646969318389893,0.03548923134803772,0.34338539838790894,-0.9385238289833069,-0.05062595009803772,0.03355243802070618,0.0015579462051391602,0.97452960256592,-0.1751858323562208,-0.006929038937055107,0.1398353310745125,-0.35051911965600413,0.037795875746109035,0.29172806906605137
1773063066249157120,0.5547001361846924,0.16506807506084442,0.02076737955212593,-0.09313768893480301,0.03525349125266075,0.34222733974456787,-0.9389556050300598,-0.06296344101428986,0.03272685408592224,-0.010461509227752686,0.9747394610605532,-0.1745722252813679,-0.006836399623930726,0.1391427169240324,-0.3492863576111518,0.03752780132089547,0.29020356652472584
1773063066259194112,0.56473708152771,0.1265973299741745,0.03443645313382149,-0.010023757815361023,0.03535959869623184,0.34079015254974365,-0.9394742250442505,0.005533948540687561,0.019469887018203735,0.006277203559875488,0.9749081954193762,-0.17383591445883287,-0.006631135914289664,0.13889275315953536,-0.347757228812751,0.0376198912789621,0.28963921139117366
1773063066269232384,0.574775218963623,0.006779057905077934,0.021492691710591316,-0.06361907720565796,0.03553716465830803,0.3401660919189453,-0.9396936297416687,0.036820005625486374,-0.014131546020507812,0.04163765907287598,0.9749883988944356,-0.17352629853436885,-0.006465445581032395,0.13872431483779538,-0.3470935093690674,0.037799806392095486,0.2892962391188879
1773063066279269120,0.5848121643066406,-0.04352680966258049,-0.01353400107473135,-0.13944460451602936,0.03521401435136795,0.340410053730011,-0.9396174550056458,-0.0033994391560554504,-0.032045185565948486,0.05503493547439575,0.975040886027018,-0.17363263849262833,-0.006555675336007358,0.13821743516882984,-0.3473529692708836,0.03745943643414041,0.28820740794216515
1773063066289307392,0.5948503017425537,-0.04405464977025986,0.0074458494782447815,-0.1598806381225586,0.03465798869729042,0.3409251570701599,-0.9394513368606567,-0.03552774339914322,-0.022794663906097412,0.02429020404815674,0.9751036415053531,-0.17386455808082846,-0.006740387560313319,0.13747235351087161,-0.3479008416110762,0.03687500812721843,0.28659910256299986
1773063066299344384,0.6048872470855713,-0.003218582132831216,0.015089254826307297,-0.14209458231925964,0.0342426560819149,0.341206431388855,-0.939364492893219,-0.0209064744412899,-0.0017898976802825928,-0.003872811794281006,0.9751884830984566,-0.17398581071223185,-0.006833838382086032,0.1367100506405795,-0.3482000472875029,0.03643687049449057,0.28497052621268354
1773063066309381120,0.6149241924285889,0.10572148114442825,-0.012441173195838928,-0.13492295145988464,0.033836618065834045,0.3409048020839691,-0.9394887089729309,0.009818773716688156,0.014274030923843384,-0.017771422863006592,0.9753191537997378,-0.17380501368388382,-0.006889839883877414,0.1360035680012247,-0.347879186385262,0.03600043251545428,0.28343002627737507
1773063066319419136,0.6249620914459229,0.2896786034107208,-0.04387978836894035,-0.026615917682647705,0.03322482109069824,0.33901748061180115,-0.9401931762695312,0.01728176698088646,0.027986884117126465,-0.031379640102386475,0.9755527830908269,-0.17278458404983796,-0.006991924466617231,0.1356220684870227,-0.3458723357308918,0.03532359373100867,0.2824417294712786
1773063066329456384,0.6349992752075195,0.3759314715862274,-0.008978264406323433,0.08907605707645416,0.033064063638448715,0.33578652143478394,-0.9413576126098633,0.040452782064676285,0.036650002002716064,-0.05311870574951172,0.9758207155829833,-0.17109618836428994,-0.006876094253255927,0.13584093653313134,-0.342440107835257,0.03510937262686616,0.28270740431358726
1773063066339494144,0.6450371742248535,0.31549882888793945,0.011987071484327316,0.11897683143615723,0.033441346138715744,0.3324052095413208,-0.942543625831604,0.039205752313137054,0.0264967679977417,-0.019324660301208496,0.976046095254728,-0.16936779431115645,-0.006538170400306921,0.1364027279501314,-0.33885264347493665,0.03546501734805018,0.28376950582190763
1773063066349531136,0.6550741195678711,-0.13465210795402527,0.015259829349815845,-0.0766960009932518,0.03375175967812538,0.3308005928993225,-0.943096935749054,0.0066382549703121185,-0.00023418664932250977,0.014202892780303955,0.9761570179757036,-0.16855803254298451,-0.006303401069850284,0.13662350328474857,-0.33715180954748103,0.03577295218127501,0.28420344307356443
1773063066359568384,0.6651113033294678,-0.28062117099761963,0.4483852982521057,-0.2198072075843811,0.03607536479830742,0.3347982168197632,-0.9415990114212036,-0.10745598375797272,-0.058034271001815796,0.1766911745071411,0.9759064123156286,-0.17080047147279778,-0.00526152599270016,0.1356696490998341,-0.34139107281749226,0.03829414550969295,0.2828692478937001
1773063066369606144,0.6751492023468018,0.19537334144115448,-0.29371917247772217,-0.19266746938228607,0.03473302721977234,0.33468949794769287,-0.9416881203651428,-0.27011510729789734,-0.03680744767189026,0.08170276880264282,0.9760861717959803,-0.17065491573142466,-0.005729713844596121,0.1345358777337961,-0.3412757194944057,0.036867079214279654,0.2802913203284337
1773063066379643136,0.6851861476898193,0.23701998591423035,-0.010125420987606049,0.23677536845207214,0.0336543470621109,0.33234021067619324,-0.9425589442253113,0.2048099935054779,0.027080535888671875,-0.20789271593093872,0.9762812207798139,-0.16936011776775786,-0.006137836653410042,0.13473908989184155,-0.3387837475579485,0.035690134899827114,0.2803971823372336
1773063066389681408,0.6952242851257324,-0.1777859926223755,-0.012548898346722126,0.35601523518562317,0.03478875383734703,0.3317829370498657,-0.9427140951156616,0.30279669165611267,0.00024831295013427734,0.0008653402328491211,0.9760899776629046,-0.16914233766622677,-0.005816059782425335,0.13640212233496743,-0.3381929322171,0.03688602282686337,0.28398667688640516
1773063066399718400,0.70526123046875,-0.4032052755355835,-0.07878197729587555,0.03192049637436867,0.03489280492067337,0.334695965051651,-0.9416799545288086,0.05302834138274193,-0.007745891809463501,0.1060171127319336,0.9756893067183747,-0.17065246928659156,-0.006145391179010888,0.13736920691310156,-0.3412825567890144,0.03703683861025923,0.28612795391680385
1773063066409755136,0.7152981758117676,-0.30343127250671387,-0.09716924279928207,-0.06355462968349457,0.033915650099515915,0.33819809556007385,-0.9404636025428772,-0.15908348560333252,-0.07220688462257385,0.0968356728553772,0.9753918214519167,-0.17239757478949905,-0.006876024089320588,0.13726784377735823,-0.34500149374763905,0.03604707346728997,0.28590677808839204
1773063066419793408,0.7253363132476807,-0.05621251463890076,-0.05287341773509979,0.018235577270388603,0.03311416134238243,0.3399530351161957,-0.9398592710494995,-0.14015457034111023,-0.02907043695449829,0.005945086479187012,0.9752465542394894,-0.17325032856963013,-0.0073959571809629815,0.137200099478339,-0.34686694615903413,0.03521853840642462,0.2857011735751052
1773063066429830400,0.7353732585906982,0.08846663683652878,-0.03925028443336487,0.12478332966566086,0.03298427537083626,0.3396247327327728,-0.9399824738502502,-0.011530429124832153,0.010991692543029785,-0.02887427806854248,0.9752254347788756,-0.17306776609571106,-0.007503460576581535,0.1375744515531366,-0.34651789819057305,0.03507591563696209,0.28642864212750224
1773063066439868160,0.7454111576080322,0.08596011996269226,-0.11101461946964264,0.19517213106155396,0.03283843770623207,0.33874863386154175,-0.9403036832809448,0.08601226657629013,0.04374343156814575,-0.024952054023742676,0.9751839234671651,-0.17259599922166402,-0.007666829609191801,0.13844925624729099,-0.34558656515569924,0.03490903803527873,0.28815332642453445
1773063066449904128,0.7554471492767334,0.09333334863185883,-0.10387787967920303,0.21301478147506714,0.032487835735082626,0.3378088176250458,-0.940653920173645,0.09446528553962708,0.044408589601516724,0.01478111743927002,0.9751143183149539,-0.17207418437035923,-0.007970393155348412,0.1395674912479049,-0.34458788532781837,0.03452377889611754,0.2903360432144704
1773063066459941120,0.765484094619751,0.07279042899608612,-0.08484453707933426,0.15202492475509644,0.0322440005838871,0.3369421064853668,-0.9409731030464172,0.0310799740254879,0.01797732710838318,0.011590778827667236,0.9750510384041181,-0.17159873347274976,-0.008205623071382775,0.14057738962046687,-0.3436671838442207,0.034253253887106296,0.29232048043704284
1773063066469979136,0.775521993637085,0.0013737729750573635,-0.04745455086231232,0.049457281827926636,0.0319829136133194,0.33655890822410583,-0.9411191344261169,-0.031265754252672195,-0.004588693380355835,0.027575433254241943,0.9750081490440824,-0.17137614538744672,-0.008405633117257998,0.14113409359245405,-0.3432602385214308,0.03397084129703267,0.293395413016831
1773063066480016128,0.7855591773986816,-0.05662374943494797,-0.046847350895404816,-0.04854464903473854,0.031538717448711395,0.33684030175209045,-0.9410334229469299,-0.0583331473171711,-0.014177978038787842,0.04488474130630493,0.9749794315133945,-0.17148855728485138,-0.008658028469613114,0.14118002445284963,-0.34355908142525043,0.03350244154003205,0.2934199402711355
1773063066490054144,0.7955970764160156,-0.05333155021071434,-0.05596734583377838,-0.09662748873233795,0.03080682083964348,0.33745232224464417,-0.9408383965492249,-0.04411248117685318,-0.017368674278259277,0.042156755924224854,0.9749766664275524,-0.1717543272897457,-0.0090143065356768,0.14085321196304265,-0.34420913825834065,0.03273231378009242,0.2926413844549105
1773063066500091136,0.8056340217590332,-0.04960636794567108,-0.04527755081653595,-0.10598011314868927,0.029972217977046967,0.3379225432872772,-0.9406965374946594,-0.011692184954881668,-0.01223897933959961,0.022834599018096924,0.9750052723825111,-0.17194057109133806,-0.00938949700359416,0.1404026883699917,-0.344708721591285,0.031850953850405206,0.29158272059149165
1773063066510128128,0.8156709671020508,-0.08745627850294113,-0.04858599603176117,-0.17339031398296356,0.029100725427269936,0.3386031687259674,-0.9404791593551636,0.017530137673020363,-0.006693989038467407,0.009448885917663574,0.9750407631901661,-0.17223542886732893,-0.009766318664289255,0.13976753794637223,-0.34543196426779504,0.03093257727870898,0.2901475844671506
1773063066520166144,0.8257091045379639,-0.10897146165370941,-0.04169386625289917,-0.23022229969501495,0.02798968367278576,0.3395880162715912,-0.9401577115058899,-0.0007680002599954605,-0.0043524205684661865,0.011767208576202393,0.9750960709130918,-0.1726746372185072,-0.010227736531559081,0.13880363540578106,-0.3464788481556705,0.02976247243757764,0.2880060393980006
1773063066530203136,0.8357460498809814,-0.11569701135158539,-0.030873708426952362,-0.2544296383857727,0.026824064552783966,0.3407393991947174,-0.9397750496864319,-0.01524263434112072,-0.006068378686904907,0.010423243045806885,0.9751646050706833,-0.17319987143549542,-0.010690583011637335,0.1376277602255623,-0.3477032603951455,0.02853532228192997,0.2854254854147921
1773063066540241152,0.8457841873168945,-0.07169227302074432,-0.05617933347821236,-0.23120659589767456,0.025552375242114067,0.34166786074638367,-0.9394733309745789,-0.008462533354759216,-0.011604994535446167,-0.0005443692207336426,0.9752498900729548,-0.17360315309230204,-0.011192625901712555,0.13647099096339713,-0.3486909726380305,0.027191911772594553,0.28285287035878615
1773063066550278144,0.8558211326599121,-0.07213142514228821,-0.03640323132276535,-0.24689236283302307,0.02430678904056549,0.34239163994789124,-0.9392428398132324,0.012421106919646263,-0.016311317682266235,-0.005932271480560303,0.9753481403361246,-0.1739032995075393,-0.011670804456474147,0.13534241134548378,-0.3494612058444979,0.02587335564850916,0.28033311491448965
1773063066560315136,0.8658580780029297,-0.02907232753932476,-0.06314150243997574,-0.2017846703529358,0.023033205419778824,0.34294188022613525,-0.9390742182731628,0.013496337458491325,-0.006989121437072754,0.009478271007537842,0.9754543058828434,-0.1741122592908212,-0.01215828283320333,0.13426080309725388,-0.35004690430170504,0.024522649754552397,0.2778962708407209
1773063066570353152,0.8758959770202637,0.048873066902160645,-0.0606708899140358,-0.13600406050682068,0.02186536230146885,0.3429097533226013,-0.9391138553619385,0.02522326074540615,0.008729040622711182,0.0015223026275634766,0.9755685045712428,-0.17402332206234308,-0.01260798415082933,0.13350298515595055,-0.35001271459531563,0.023278766305416834,0.2761193898930359
1773063066580390144,0.8859331607818604,0.12999513745307922,-0.06054212152957916,-0.10064274072647095,0.020902160555124283,0.3420650064945221,-0.939443826675415,0.03656243532896042,0.010901302099227905,-0.010339498519897461,0.9757246118267894,-0.17352436373063773,-0.012938145207983042,0.13297929188675356,-0.34911358167425266,0.022245835791187087,0.27482966028418165
1773063066590427136,0.8959701061248779,0.1782313734292984,-0.079803965985775,-0.049904197454452515,0.01996566914021969,0.3406035900115967,-0.9399949908256531,0.031029196456074715,0.01811528205871582,-0.012931644916534424,0.9759062289965375,-0.1727046833135139,-0.013251329867342697,0.1326825056747037,-0.3475588004478757,0.021236993914063744,0.27398774505985996
1773063066600465152,0.9060080051422119,0.21793892979621887,-0.09110269695520401,0.011727477423846722,0.019099514931440353,0.3387110233306885,-0.9406965970993042,0.035557471215724945,0.014362096786499023,-0.0131150484085083,0.9760858856949044,-0.1716627075522715,-0.013550901161768701,0.132682288051007,-0.34554660263971543,0.020300797873197312,0.2737527039116836
1773063066610502144,0.9160451889038086,0.2002832293510437,-0.0857742428779602,0.027252107858657837,0.018330426886677742,0.3366861641407013,-0.9414384961128235,0.027201805263757706,-0.003907233476638794,-0.020139873027801514,0.9762489492917706,-0.1705566758416462,-0.013826799126674252,0.1328802390103256,-0.34339537353003313,0.019468198916066867,0.27393938948045327
1773063066620540160,0.9260830879211426,0.1139422208070755,-0.06656965613365173,0.019998721778392792,0.017690612003207207,0.3351702392101288,-0.9419914484024048,-0.006505919620394707,-0.014522075653076172,-0.0062506794929504395,0.9763641547547603,-0.16972391589601488,-0.014073162508407904,0.1330739845029485,-0.3417859148651029,0.018777806153255933,0.2741621989067257
1773063066630577152,0.9361200332641602,0.034230343997478485,-0.03704558685421944,-0.0025715671945363283,0.017245296388864517,0.3344886302947998,-0.9422419667243958,-0.03415203094482422,-0.019776105880737305,0.010647118091583252,0.9764178863486773,-0.16933880546421207,-0.01426118409019106,0.13315036436308428,-0.34106256386398837,0.01830036454154369,0.27421185203884146
1773063066640614144,0.9461569786071777,-0.02413722313940525,0.004474826157093048,-0.010140404105186462,0.01705377735197544,0.33443397283554077,-0.9422648549079895,-0.04084222763776779,-0.02312418818473816,0.007694542407989502,0.9764254337402919,-0.1692973791281652,-0.014351421662365875,0.13313839874420452,-0.3410045673763938,0.01809673327694746,0.27415014129566695
1773063066650652160,0.9561951160430908,-0.09035326540470123,0.04072603955864906,-0.03781544044613838,0.017227713018655777,0.3349955677986145,-0.9420621991157532,-0.034607481211423874,-0.02322801947593689,0.014465153217315674,0.9763921321939468,-0.16960235315104927,-0.01428081949197204,0.13300249746889337,-0.34160053454036565,0.01828519756160285,0.27392407387038964
1773063066660689152,0.9662320613861084,-0.12926971912384033,0.0421440415084362,-0.06035870313644409,0.01746344193816185,0.33607548475265503,-0.9416731595993042,-0.03626226633787155,-0.019211500883102417,0.0267103910446167,0.9763321223973187,-0.17018255978003968,-0.014189130581654802,0.1327105750003842,-0.3427469121121375,0.01854299609602926,0.27340874239089363
1773063066670726912,0.9762699604034424,-0.128867045044899,0.05121130496263504,-0.03476172685623169,0.01772586815059185,0.3373139202594757,-0.9412253499031067,-0.041254922747612,-0.009494096040725708,0.03673011064529419,0.9762569246710344,-0.17084688483074612,-0.014095296009576387,0.13242011598398926,-0.34406211726384245,0.018830531021540284,0.2729075704276175
1773063066680764160,0.9863071441650391,-0.1492711752653122,0.07848647236824036,0.005651075392961502,0.018271148204803467,0.33860644698143005,-0.9407506585121155,-0.031424231827259064,-0.005705475807189941,0.041214585304260254,0.9761528408813237,-0.17155668448236627,-0.013891153289375352,0.1322913363894667,-0.34543546259156893,0.01941944043554689,0.2727929619206836
1773063066690801152,0.9963440895080566,-0.1857069432735443,0.08937107771635056,0.03999120369553566,0.019179493188858032,0.340178906917572,-0.940165102481842,-0.02116314135491848,-0.005553692579269409,0.056513428688049316,0.9759989851268559,-0.17243485227352545,-0.01355209792940513,0.13232000640209896,-0.3471071467015116,0.020397304056837998,0.27308079409177205
1773063066700839168,1.0063819885253906,-0.2008838653564453,0.08228280395269394,0.059867974370718,0.020184030756354332,0.3420020341873169,-0.9394824504852295,-0.012951366603374481,-0.009482502937316895,0.06822085380554199,0.9758011642307302,-0.1734483986648904,-0.013207610806039008,0.1324890720369602,-0.3490465713704248,0.02148089805368023,0.2736864945610002
1773063066710876160,1.0164191722869873,-0.166128009557724,0.07144160568714142,0.04980042576789856,0.021085165441036224,0.34375670552253723,-0.9388220310211182,-0.004041099920868874,-0.02020934224128723,0.054743051528930664,0.9756062968074724,-0.1744196814995352,-0.01291405486411086,0.13267777811537576,-0.35091447341030685,0.022455397171718204,0.2743130504591916
1773063066720914176,1.0264570713043213,-0.09648305922746658,0.07233430445194244,0.023308366537094116,0.02189009264111519,0.3449946939945221,-0.9383493661880493,0.0007539503276348114,-0.030312687158584595,0.051020264625549316,0.9754697566054987,-0.17511739301127965,-0.012618487851517998,0.13279092018488026,-0.35223311998225604,0.02332406736807415,0.2747480596326535
1773063066730951168,1.0364940166473389,-0.0454997718334198,0.0460001677274704,0.02590974234044552,0.022554034367203712,0.3456716537475586,-0.9380844831466675,0.00384366512298584,-0.025786399841308594,0.06047523021697998,0.9753948968011861,-0.17551477399603269,-0.01234248686480744,0.13284246944446992,-0.352954456409827,0.024038017286705047,0.2750083945554627
1773063066740987904,1.0465309619903564,0.014275412075221539,0.02302907034754753,0.07656200230121613,0.023054134100675583,0.34580689668655396,-0.9380224347114563,0.01802251860499382,-0.009884655475616455,0.0772283673286438,0.9753502113748685,-0.1756172774367415,-0.012138687621714302,0.13305375546915393,-0.35309859609533667,0.024572432455628943,0.2755431436072334
1773063066751026176,1.0565690994262695,0.0725800022482872,-0.006538409739732742,0.12195451557636261,0.02349875681102276,0.3453848361968994,-0.9381669163703918,0.04986549913883209,0.0006997883319854736,0.08628398180007935,0.9753192036175202,-0.17542281715421376,-0.011974158238132594,0.1335516393499068,-0.3526488101153611,0.025042286264727914,0.2766319356723371
1773063066761063168,1.066606044769287,0.14705437421798706,-0.037997134029865265,0.10789022594690323,0.02370268851518631,0.34431028366088867,-0.9385566711425781,0.06875032186508179,0.002094745635986328,0.08121109008789062,0.9753361388869883,-0.1748714061416852,-0.011902130885445665,0.1341552795898604,-0.3515040382022358,0.025249035926383376,0.27786405990701346
1773063066771101184,1.0766441822052002,0.2402983009815216,-0.0717412456870079,0.061974138021469116,0.02347845770418644,0.3424711525440216,-0.9392349123954773,0.06100945547223091,0.00021070241928100586,0.06829380989074707,0.9754444264057981,-0.1738946229461701,-0.011966303177739562,0.13463149452586914,-0.3495458585577369,0.024992224079684284,0.2787214842078594
1773063066781138176,1.0866811275482178,0.31232357025146484,-0.08832555264234543,0.004198188427835703,0.022827181965112686,0.3398563265800476,-0.9402002692222595,0.050979577004909515,-0.0032779574394226074,0.0526728630065918,0.9756563818327131,-0.17248842929224442,-0.012148783577565957,0.13488806014329127,-0.34676412553150854,0.024274294635477825,0.2790171348219446
1773063066791175168,1.0967180728912354,0.3591728210449219,-0.08207964152097702,-0.08067569136619568,0.021920032799243927,0.3367003798484802,-0.9413566589355469,0.04952162504196167,-0.006713777780532837,0.050014495849609375,0.9759641512444541,-0.17078904328422126,-0.012360145924715639,0.13480417216321247,-0.34341045178768903,0.023281369290244516,0.27854868990528286
1773063066801212928,1.1067559719085693,0.39915725588798523,-0.09272482246160507,-0.1579771339893341,0.020701386034488678,0.3331319987773895,-0.9426529407501221,0.045979514718055725,-0.008669078350067139,0.05076146125793457,0.976363615476279,-0.1688610634994122,-0.012628460586636558,0.134315525503014,-0.3396233644594813,0.021957242742992933,0.2771830933851678
1773063066811250176,1.116793155670166,0.4279519021511078,-0.08885711431503296,-0.24256259202957153,0.01917368732392788,0.3292250335216522,-0.9440568089485168,0.05766957253217697,-0.01883074641227722,0.031123459339141846,0.9768420602773383,-0.16674384758310448,-0.012964850507197511,0.13344693057389753,-0.3354827506466779,0.020307094857571872,0.274979015592376
1773063066821288192,1.1268310546875,0.4197640120983124,-0.07994005084037781,-0.3211729824542999,0.01744501292705536,0.32523655891418457,-0.9454717636108398,0.06521184742450714,-0.02843785285949707,0.014258384704589844,0.9773792845991609,-0.16457959933393282,-0.013329469356507266,0.13215765193235476,-0.331261883023944,0.018449025971540273,0.27188646009472106
1773063066831324928,1.1368680000305176,0.4121244549751282,-0.0845494493842125,-0.3525732457637787,0.015568642877042294,0.32134103775024414,-0.9468355178833008,0.06394490599632263,-0.02341321110725403,0.005475103855133057,0.9779398412631541,-0.16246117546761152,-0.01373299164361429,0.13058111382719645,-0.3271453067210015,0.016441334953864573,0.2681967556957508
1773063066841362176,1.1469051837921143,0.4379372298717499,-0.10482356697320938,-0.344556599855423,0.01355162262916565,0.3173694908618927,-0.9482051134109497,0.06548890471458435,-0.016573011875152588,-0.007941067218780518,0.9785039927135695,-0.1602988461952282,-0.014202727765545382,0.12896684900947875,-0.32295427276270794,0.014290895102257773,0.26441735319066934
1773063066851400192,1.1569430828094482,0.4506905972957611,-0.09876859933137894,-0.3085528016090393,0.011529340408742428,0.3131498396396637,-0.949633777141571,0.0692659467458725,-0.014245420694351196,-0.032482922077178955,0.9790637519893308,-0.15801090128326314,-0.014686009440815264,0.12747987286680934,-0.31850787489664983,0.012140231696351284,0.26090487996079437
1773063066861437184,1.1669800281524658,0.40783748030662537,-0.07860474288463593,-0.29209765791893005,0.009729912504553795,0.3090464770793915,-0.9509971737861633,0.06027740612626076,-0.01055404543876648,-0.04604262113571167,0.979589765605176,-0.15580019110665097,-0.015090272367156142,0.12610531805497577,-0.3141902607210793,0.010230916981919474,0.2576779088196212
1773063066871475200,1.177018165588379,0.34242597222328186,-0.06460531055927277,-0.25710347294807434,0.008211015723645687,0.30548691749572754,-0.9521608948707581,0.03721439838409424,-0.003637552261352539,-0.04918187856674194,0.9800501529826045,-0.15388969854188686,-0.015411777029743945,0.12482851443817165,-0.31044973536080545,0.00862334582414694,0.25472417280991805
1773063066881512192,1.1870551109313965,0.3088338375091553,-0.05281282961368561,-0.18957661092281342,0.0069817304611206055,0.3024100363254547,-0.9531523585319519,0.018393637612462044,-0.010692507028579712,-0.0648530125617981,0.9804342647539045,-0.15224489039239647,-0.015662504201425658,0.12379345502493669,-0.307220075164574,0.0073247529383812454,0.25233260501023597
1773063066891549184,1.197092056274414,0.27739202976226807,-0.04143234342336655,-0.11775941401720047,0.006074727978557348,0.29958781599998474,-0.9540494084358215,0.008787335827946663,-0.02041301131248474,-0.08168667554855347,0.9807510130382315,-0.15074789318389684,-0.0158233597793747,0.12309386112494279,-0.3042605958698903,0.006367223933844523,0.2506900167031947
1773063066901586944,1.207129955291748,0.22488702833652496,-0.0179845429956913,-0.05500894412398338,0.005516789387911558,0.2971653938293457,-0.9548100829124451,-0.002556590363383293,-0.019379138946533203,-0.08516794443130493,0.9809913734099039,-0.14947420916304244,-0.015887644208672166,0.12272375790880234,-0.3017225709349691,0.005777827630471154,0.2497887620499135
1773063066911624192,1.2171671390533447,0.1767360121011734,0.015494853258132935,-0.027141358703374863,0.0054078903049230576,0.2952538728713989,-0.9554035067558289,-0.013235647231340408,-0.012081295251846313,-0.06601977348327637,0.9811645819024662,-0.14848872705385735,-0.01579032030665187,0.12254700140707404,-0.2997212262056982,0.005660260333694345,0.24936679533111383
1773063066921662208,1.2272050380706787,0.16017921268939972,0.027403712272644043,-0.011144283227622509,0.005559524055570364,0.29364487528800964,-0.9558984041213989,-0.017522411420941353,-0.0025682449340820312,-0.06256473064422607,0.9813031813667329,-0.14767403984844354,-0.015594013562155186,0.12244682401285709,-0.29803759850756095,0.005815954248427207,0.24914952137688917
1773063066931698944,1.2372419834136963,0.1317417174577713,0.054358627647161484,-0.00498039647936821,0.005965884309262037,0.2922475039958954,-0.9563241004943848,-0.00746125215664506,0.013202935457229614,-0.06845611333847046,0.9814174039877884,-0.1469833052757331,-0.015292129081997539,0.12240100145065558,-0.29657608679414044,0.0062382687787891225,0.24908774347181697
1773063066941736192,1.247279167175293,0.08964157849550247,0.07514859735965729,-0.046370979398489,0.006531244143843651,0.29117316007614136,-0.956648051738739,0.00794934295117855,0.021586209535598755,-0.07426619529724121,0.9815204910026201,-0.14647026310949307,-0.014913883300938484,0.12223576080093099,-0.2954528925696035,0.006827110889269373,0.24881442537588108
1773063066951774208,1.257317066192627,0.040379226207733154,0.0733826532959938,-0.11258196085691452,0.0069788373075425625,0.29056981205940247,-0.9568283557891846,-0.0013483488000929356,0.018176555633544922,-0.07935023307800293,0.9816208114927061,-0.14619542632313534,-0.014585003134319752,0.12179834758900251,-0.2948222820420827,0.0072935900440833775,0.24797879659246494
1773063066961810944,1.2673540115356445,0.010786849074065685,0.10579053312540054,-0.17481671273708344,0.0074249133467674255,0.2903401255607605,-0.9568946957588196,-0.017770379781723022,0.006748467683792114,-0.08196938037872314,0.981732865006498,-0.14611671973284857,-0.014231933554608332,0.12102936300556284,-0.2945822654779274,0.007759227965120849,0.24647612880169953
1773063066971847936,1.277390956878662,-0.000785118667408824,0.1243562251329422,-0.233954057097435,0.007944660261273384,0.2903147041797638,-0.9568982720375061,-0.03368624299764633,-0.006302863359451294,-0.0808977484703064,0.981866642961752,-0.14615130217388153,-0.013808394858246288,0.1199464671902479,-0.29455569892587213,0.008302322209451506,0.24435042728823195
1773063066981886208,1.2874290943145752,0.0030426427256315947,0.14420528709888458,-0.28777679800987244,0.008471180684864521,0.29028716683387756,-0.9569020867347717,-0.041216544806957245,-0.008426815271377563,-0.08551734685897827,0.9820326281270798,-0.14618821360768877,-0.013340239869448095,0.1185878182574369,-0.2945269173399082,0.008852483228639435,0.24166442707323302
1773063066991923200,1.2974660396575928,-0.006976701319217682,0.15600523352622986,-0.3406256437301636,0.009014714509248734,0.2903456687927246,-0.9568793773651123,-0.031078925356268883,-0.006043910980224609,-0.0788719654083252,0.9822267453803478,-0.14627333415259122,-0.012822870750646278,0.11692031188560059,-0.29458804911544884,0.00942067315581351,0.2383546974454496
1773063067001961216,1.3075041770935059,0.03837546706199646,0.13514907658100128,-0.39686161279678345,0.009351813234388828,0.2902655005455017,-0.9569004774093628,-0.021268926560878754,-0.000455319881439209,-0.07126724720001221,0.9824599093989911,-0.14627702995448869,-0.012361317303511145,0.11499006542117965,-0.2945042633859087,0.009772714964099146,0.23447534873508058
1773063067011998208,1.3175411224365234,0.11261188238859177,0.12693029642105103,-0.41649872064590454,0.009391027502715588,0.2895423471927643,-0.9571191072463989,-0.013785555958747864,0.00243455171585083,-0.0828436017036438,0.9827614936372178,-0.14593442310681912,-0.011982449417828544,0.11286852947537906,-0.2937486684897458,0.009811449859036916,0.2301461828780698
1773063067022035968,1.3275790214538574,0.1330994963645935,0.153063103556633,-0.39355555176734924,0.009546163491904736,0.28837016224861145,-0.9574714303016663,-0.0073031214997172356,0.0064601898193359375,-0.09659045934677124,0.9830893751609637,-0.14536667456192967,-0.011524727510110421,0.11077448910833378,-0.29252424949246225,0.009969851193005204,0.2258820856359239
1773063067032072960,1.337615966796875,0.11748004704713821,0.14401474595069885,-0.37595048546791077,0.009882470592856407,0.2871818244457245,-0.9578251242637634,-0.0041909366846084595,-0.002986907958984375,-0.08061176538467407,0.983401527016866,-0.14479849581019566,-0.010992963442594018,0.10878381329424924,-0.29128343892512665,0.010317249293810924,0.22185735303692572
1773063067042110208,1.3476531505584717,0.0703098326921463,0.15335938334465027,-0.4014173448085785,0.010152384638786316,0.2862996757030487,-0.9580863118171692,-0.019963789731264114,-0.022337883710861206,-0.07601702213287354,0.98368934087645,-0.14438272145143252,-0.010510053129000184,0.10676360262271686,-0.29036260515631385,0.010596127059544326,0.21777065095489567
1773063067052148224,1.3576910495758057,0.014309944584965706,0.13633300364017487,-0.41005292534828186,0.0103820925578475,0.2859557271003723,-0.9581865668296814,-0.038381971418857574,-0.035909950733184814,-0.0703473687171936,0.9839421034600374,-0.14424077304787902,-0.010065127286049538,0.10464828128892723,-0.29000366369659747,0.01083472348410603,0.21349781467400525
1773063067062184960,1.3677279949188232,-0.01261785440146923,0.1407768726348877,-0.42285940051078796,0.010523579083383083,0.2860329747200012,-0.9581620097160339,-0.03638722747564316,-0.03575831651687622,-0.06941062211990356,0.984160806838914,-0.14430941220167237,-0.009684947171199743,0.10251122628092414,-0.2900842610405437,0.010982647776444556,0.20917781298340693
1773063067072222208,1.37776517868042,-0.0014616060070693493,0.14569012820720673,-0.41080406308174133,0.010715773329138756,0.28615379333496094,-0.9581238031387329,-0.029484083876013756,-0.030447006225585938,-0.07378232479095459,0.9843749441010093,-0.14440242763353858,-0.009276250913651952,0.10033900218488753,-0.29021036816429613,0.011183655512584276,0.20479601983228124
1773063067082260224,1.387803077697754,0.04277132451534271,0.12086428701877594,-0.3452475368976593,0.010912994854152203,0.28597649931907654,-0.958174467086792,-0.025988679379224777,-0.025081723928451538,-0.07185482978820801,0.984588554713055,-0.1443397818746419,-0.008876068000978917,0.09834968798609321,-0.2900253447703776,0.011388868546964429,0.2007809764828915
1773063067092296960,1.3978400230407715,0.024420814588665962,0.12104831635951996,-0.2946120798587799,0.011143524199724197,0.28567928075790405,-0.9582604765892029,-0.012272673659026623,-0.024952352046966553,-0.06314760446548462,0.9847755172199462,-0.14421337020625757,-0.008500478845593898,0.0966819194743419,-0.2897151708203942,0.011628384775449453,0.19742233247172356
1773063067102335232,1.4078781604766846,-0.02199595235288143,0.10720999538898468,-0.21953651309013367,0.011519528925418854,0.285648375749588,-0.9582652449607849,-0.015151126310229301,-0.020710021257400513,-0.03135871887207031,0.9849088806357326,-0.14422750820476843,-0.008111363476357509,0.09532660367853679,-0.289682913761453,0.012020653129909818,0.19472677857764964
1773063067112372224,1.4179151058197021,-0.09177050739526749,0.08684320747852325,-0.17289391160011292,0.011913474649190903,0.28623461723327637,-0.9580854773521423,-0.017421904951334,-0.024851560592651367,-0.007856905460357666,0.9849615887572666,-0.14455628501464174,-0.007792904612898195,0.09430547549541776,-0.2902946961406217,0.01243402700121186,0.1927263124871399
1773063067122409216,1.4279520511627197,-0.178916335105896,0.0671728327870369,-0.16178399324417114,0.012185504660010338,0.28753575682640076,-0.9576923847198486,-0.019051961600780487,-0.03704744577407837,-5.602836608886719e-05,0.9849449050024414,-0.14524518608491419,-0.0075922440003575375,0.09343300779516796,-0.2916529306368752,0.012723132966011524,0.19102493359966757
1773063067132447232,1.4379901885986328,-0.27117806673049927,0.04099555313587189,-0.1475861519575119,0.012275243178009987,0.28971248865127563,-0.9570350050926208,-0.018027804791927338,-0.046212732791900635,0.01875680685043335,0.9848552103206651,-0.14637537880290716,-0.007533145048056865,0.09261583928347523,-0.29392642723855406,0.01282562259892411,0.18942720934042798
1773063067142484224,1.4480271339416504,-0.32333633303642273,0.007455702871084213,-0.12816904485225677,0.012075030244886875,0.29259687662124634,-0.9561596512794495,-0.0018974142149090767,-0.045068830251693726,0.027860701084136963,0.984698945895841,-0.14785587425194502,-0.007669530038007362,0.0919117572031308,-0.29694145257525656,0.012628004579856758,0.1880293963300571
1773063067152521984,1.4580650329589844,-0.3770829439163208,-0.014091934077441692,-0.06278310716152191,0.011736996471881866,0.2959626019001007,-0.9551274180412292,0.011257991194725037,-0.031619369983673096,0.027011573314666748,0.9844830870082183,-0.1495775072073983,-0.007928338473515423,0.09141624115455806,-0.3004631194765545,0.012287790797885098,0.18704325109486886
1773063067162558976,1.468101978302002,-0.44078120589256287,-0.04580512270331383,0.0036672870628535748,0.011401932686567307,0.2999151647090912,-0.9538977146148682,0.017040451988577843,-0.015216678380966187,0.029321908950805664,0.984183179587698,-0.15160069831406447,-0.008268117176864978,0.09128129608626576,-0.30460372243509914,0.011952423612333006,0.18680198398777503
1773063067172596224,1.4781391620635986,-0.4719809591770172,-0.06754423677921295,0.043626684695482254,0.010909385979175568,0.30426448583602905,-0.9525251388549805,0.005005539394915104,-0.01327940821647644,0.02479076385498047,0.9838212975148698,-0.1538209625983952,-0.008749589350392809,0.09142268390552741,-0.30916622638808816,0.011452620698306559,0.18710462812601494
1773063067182634240,1.4881770610809326,-0.49886998534202576,-0.07335605472326279,0.07025589793920517,0.01042324211448431,0.3089035451412201,-0.951036274433136,-0.017671167850494385,-0.013935893774032593,0.033815205097198486,0.9834124489455222,-0.15619182682707292,-0.009272850389276843,0.09175036683716294,-0.31403998382874954,0.01095943969486459,0.1877924651028316
1773063067192670976,1.4982140064239502,-0.5342614054679871,-0.08095671981573105,0.05725488066673279,0.00988706760108471,0.3138066530227661,-0.9494354128837585,-0.02873167023062706,-0.011697888374328613,0.039553821086883545,0.9829712226452338,-0.15869911784544494,-0.009842687998604839,0.09211527486519462,-0.3191995617864076,0.010413251915401909,0.18855257150339425
1773063067202709248,1.5082521438598633,-0.5720504522323608,-0.07433343678712845,0.015081595629453659,0.009266934357583523,0.31907087564468384,-0.9476855397224426,-0.0275011844933033,-0.0004673600196838379,0.04538756608963013,0.9825055100963678,-0.16139390188161465,-0.010451584354849181,0.09233438296699892,-0.3247489593823087,0.009778179005634964,0.18900837913307036
1773063067212746240,1.5182890892028809,-0.62119060754776,-0.08012181520462036,-0.029356706887483597,0.008521148934960365,0.32474878430366516,-0.9457619190216064,-0.023566313087940216,0.008869379758834839,0.056983232498168945,0.9820168670232512,-0.16430350775593355,-0.011108390677585596,0.09232426926539929,-0.33074609960744084,0.009009580318690398,0.18898250989030824
1773063067222782976,1.5283260345458984,-0.6407062411308289,-0.0989539623260498,-0.0745307132601738,0.007509562186896801,0.3307519853115082,-0.9436878561973572,-0.020250650122761726,0.007504880428314209,0.05994457006454468,0.9815081317422595,-0.16737642604860098,-0.011883313134527139,0.09211780850193993,-0.33710028700744654,0.007957508161195342,0.18851251389914833
1773063067232821248,1.5383641719818115,-0.6310781240463257,-0.10870113223791122,-0.13244780898094177,0.006164316553622484,0.33680620789527893,-0.9415538311004639,-0.027786018326878548,-0.005995661020278931,0.05419421195983887,0.9810083567523809,-0.17046895981913485,-0.012783886197765337,0.09164869337293895,-0.343522852177961,0.006546867872336074,0.18744082728291261
1773063067242858240,1.548401117324829,-0.6038739681243896,-0.10539654642343521,-0.17250241339206696,0.004615245386958122,0.34263452887535095,-0.9394574165344238,-0.03824561461806297,-0.01008450984954834,0.042530596256256104,0.9805397007277743,-0.173443612478551,-0.013732995827667922,0.09094235372492195,-0.34971973178091215,0.0049126316645144085,0.18583320391944114
1773063067252896000,1.558439016342163,-0.5751270055770874,-0.08130878210067749,-0.18190151453018188,0.0031082462519407272,0.3481953740119934,-0.9374168515205383,-0.03898165374994278,0.004938751459121704,0.034462690353393555,0.9800973573971288,-0.17628908948880756,-0.014620014749725924,0.09009724304087396,-0.3556453335319346,0.0033157446810753834,0.18393427825243225
1773063067262932992,1.5684759616851807,-0.5500074625015259,-0.06457015126943588,-0.1738133579492569,0.0017987731844186783,0.3534754812717438,-0.9354420304298401,-0.02776923030614853,0.021097242832183838,0.03358662128448486,0.9796724301425552,-0.17900340779092722,-0.015386752914039056,0.08923497276181971,-0.36128383527177005,0.001922910104859769,0.18202293116208024
1773063067272970240,1.5785131454467773,-0.4971005618572235,-0.050392016768455505,-0.14285703003406525,0.0006748720770701766,0.3584338426589966,-0.9335548877716064,-0.008365296758711338,0.030756831169128418,0.043982744216918945,0.9792611163709729,-0.18156197874220564,-0.016056406309259422,0.08845932675845669,-0.3665897325729243,0.0007229054998884078,0.18031043402943853
1773063067283008000,1.5885510444641113,-0.425601989030838,-0.060063686221838,-0.11253415793180466,-0.0002849660813808441,0.3627379238605499,-0.931891143321991,0.005060968920588493,0.037576377391815186,0.04411953687667847,0.9788916380263993,-0.1837868049467488,-0.01663842491661498,0.08784489169550593,-0.37120426037088816,-0.00030579331356612836,0.17894138569391288
1773063067293044992,1.598587989807129,-0.3473372757434845,-0.05614351108670235,-0.10007056593894958,-0.00123060483019799,0.36636316776275635,-0.9304711222648621,0.007273088674992323,0.04237401485443115,0.02998894453048706,0.9785729671530603,-0.18565707260093822,-0.017201493637770862,0.08735252594020512,-0.37509741489953696,-0.001322560251958241,0.17780748742073232
1773063067303083264,1.608626127243042,-0.2534951865673065,-0.04736720025539398,-0.08988489955663681,-0.0020548326428979635,0.3691783845424652,-0.9293562769889832,0.0021006071474403143,0.03907051682472229,0.022541701793670654,0.9783278636977351,-0.18710847513370946,-0.017671333489863234,0.08690649442739991,-0.3781247897177901,-0.002211024195245024,0.17677514172866643
1773063067313120000,1.6186630725860596,-0.15849649906158447,-0.023555342108011246,-0.08932697027921677,-0.0027200656477361917,0.37107470631599426,-0.9285990595817566,-0.007030307315289974,0.03488537669181824,0.006037414073944092,0.9781713372563724,-0.18808436935323508,-0.01802078689741031,0.08648982592391154,-0.38016609152118563,-0.002929206043606648,0.17581755750450243
1773063067323156992,1.6287000179290771,-0.10301651060581207,-0.005200969986617565,-0.08032934367656708,-0.0031860333401709795,0.37226852774620056,-0.9281195998191833,-0.013018794357776642,0.03454604744911194,0.0016974806785583496,0.9780852211232786,-0.18869998552073786,-0.018235135853571286,0.0860757892505131,-0.3814520458621954,-0.0034327697791437352,0.17489370369185708
1773063067333195264,1.6387381553649902,-0.0907617062330246,0.021984044462442398,-0.07820121198892593,-0.0033820250537246466,0.3731602728366852,-0.9277607202529907,-0.009786317124962807,0.03171643614768982,0.006282448768615723,0.9780288873018815,-0.18916857022138348,-0.01829982055127658,0.08567353749862983,-0.38241301947376244,-0.0036453472947349463,0.1740446477191607
1773063067343232256,1.6487751007080078,-0.06099892407655716,0.02902863919734955,-0.09240224957466125,-0.003466562367975712,0.37385183572769165,-0.9274819493293762,-0.004284909926354885,0.018436342477798462,0.012030959129333496,0.9779976221991786,-0.18953783605132185,-0.018287257546600714,0.08521577310290766,-0.38315853225315316,-0.003737588764113203,0.17310187064613597
1773063067353270016,1.6588129997253418,-0.04593634977936745,0.050005294382572174,-0.10385624319314957,-0.003469487652182579,0.3743288218975067,-0.9272895455360413,-0.003976799547672272,0.0051572322845458984,0.01217418909072876,0.9779940492176462,-0.18979895425527601,-0.018209544083195472,0.08469004460403401,-0.3836728758737021,-0.003741519089633479,0.17203365899309728
1773063067363307264,1.6688501834869385,-0.025315184146165848,0.06350685656070709,-0.10171172767877579,-0.003351702354848385,0.3746702969074249,-0.9271520376205444,-0.003194312797859311,0.0038392245769500732,0.008374571800231934,0.9780081171840274,-0.18999470554574147,-0.018055136904890683,0.08411928782033913,-0.38404114508615517,-0.003615035599429601,0.17089649283411154
1773063067373344256,1.678887128829956,0.007411869242787361,0.08191941678524017,-0.0791664719581604,-0.003026233986020088,0.3747752606868744,-0.9271107316017151,0.00902294646948576,0.013438820838928223,0.009737074375152588,0.9780417430053736,-0.1900736129347495,-0.017794744643240278,0.08360385139588453,-0.3841543697396662,-0.0032641442755263067,0.1699123209192619
1773063067383382016,1.68892502784729,0.06664607673883438,0.07687831670045853,-0.044912632554769516,-0.002528444631025195,0.3744484484195709,-0.9272443056106567,0.022410642355680466,0.022142738103866577,0.012983441352844238,0.9781091684389293,-0.18992974971595347,-0.017451147776156264,0.08321447952586929,-0.3838018624777685,-0.002726830984312048,0.16921521899273825
1773063067393419008,1.6989619731903076,0.10970991849899292,0.08099023997783661,0.00017202110029757023,-0.0018962505273520947,0.3735939860343933,-0.9275904297828674,0.034931525588035583,0.03132849931716919,0.016594886779785156,0.978212320200448,-0.18950952228017603,-0.017056968516419104,0.08304179811861909,-0.38288053910079417,-0.0020442728491272826,0.1689804808291005
1773063067403457280,1.7090001106262207,0.11385481804609299,0.08256562799215317,0.006998102180659771,-0.0010782473254948854,0.37255391478538513,-0.9280099272727966,0.04102574661374092,0.03622904419898987,0.01724332571029663,0.9783231483117345,-0.18899724555847175,-0.016585316020699688,0.08299948974005349,-0.3817595283259017,-0.0011618914354903198,0.16904721343091425
1773063067413494016,1.7190370559692383,0.12049221992492676,0.07955466210842133,-0.010636018589138985,-0.0003796326636802405,0.37143370509147644,-0.9284594058990479,0.025480343028903008,0.02331116795539856,0.0030138492584228516,0.9784432534620873,-0.18843815338394723,-0.01616670340380936,0.08293641849759467,-0.3805527118779107,-0.00040888447166572225,0.16904426149689888
1773063067423531008,1.7290740013122559,0.11960601061582565,0.0994037315249443,-0.050705939531326294,0.00037221243837848306,0.37030351161956787,-0.9289107322692871,0.0041749062947928905,0.002255082130432129,0.0014357566833496094,0.97857719300721,-0.18787876067129095,-0.01569072693951762,0.08271660772161951,-0.37933573466280085,0.00040069772482719906,0.16873085807136817
1773063067433569280,1.739112138748169,0.11365357786417007,0.10922999680042267,-0.08178769052028656,0.0011271454859524965,0.3692261874675751,-0.9293388724327087,-0.011106387712061405,-0.009393423795700073,-0.0015082955360412598,0.9787217641331414,-0.1873504484341952,-0.01517803144396767,0.08229840179153615,-0.3781762251386853,0.0012128460560198002,0.1680126623617247
1773063067443606016,1.7491490840911865,0.11114150285720825,0.11727087944746017,-0.1101791188120842,0.001786304754205048,0.36815494298934937,-0.9297627210617065,-0.015091969631612301,-0.013967931270599365,-0.00013840198516845703,0.9788782808082831,-0.18682341406257905,-0.014684814269069923,0.08172315127370672,-0.37702380462249574,0.0019212456024243433,0.16695326960057374
1773063067453645824,1.7591886520385742,0.13236050307750702,0.11027555912733078,-0.09771792590618134,0.0024725052062422037,0.36705002188682556,-0.9301978945732117,-0.011002171784639359,-0.0073698461055755615,0.011100053787231445,0.9790409319634537,-0.18628012533760824,-0.014168759984107182,0.08110392105759684,-0.37583569215466267,0.0026580357992873273,0.16580836917747044
1773063067463682560,1.7692255973815918,0.14607307314872742,0.12082713097333908,-0.05727662518620491,0.0032460386864840984,0.36573687195777893,-0.9307126402854919,0.002308163559064269,0.0030375421047210693,0.012103021144866943,0.9792120381708628,-0.1856286962200868,-0.013626216857443649,0.08062317509499167,-0.37442441871662774,0.00348767744016279,0.16495957359630561
1773063067473719552,1.7792625427246094,0.1144951805472374,0.13815099000930786,-0.01797662302851677,0.004345007706433535,0.36450445652008057,-0.9311915040016174,0.0134620051831007,0.013104796409606934,0.02282053232192993,0.9793575585671377,-0.18503048560493074,-0.012960265825947998,0.0803393994227254,-0.37310058492617726,0.004666039198024307,0.16457964549703272
1773063067483757824,1.7893006801605225,0.10120449960231781,0.12127134948968887,-0.002081013284623623,0.005536096170544624,0.36351802945137024,-0.9315707087516785,0.003939604852348566,0.01769229769706726,0.024435698986053467,0.9794677789567693,-0.18456379659952996,-0.012281878817668165,0.08017689818004188,-0.3720415068639352,0.005942684787354526,0.1644694436819681
1773063067493794560,1.79933762550354,0.0958254486322403,0.14491648972034454,-0.005061089992523193,0.006768315564841032,0.3625623285770416,-0.9319349527359009,-0.009972664527595043,0.012651294469833374,0.009998917579650879,0.979571154547891,-0.18411457218035673,-0.011590897832729413,0.08004943180171686,-0.3710158368013533,0.007262520234632213,0.1644382926064661
1773063067503832832,1.8093757629394531,0.08357379585504532,0.14527109265327454,-0.02710154466331005,0.00810180976986885,0.36173978447914124,-0.9322438836097717,-0.02177368849515915,0.003708183765411377,0.012825608253479004,0.9796665708181792,-0.18374040004143619,-0.010840456284756985,0.07984600946192198,-0.37013338755088965,0.0086904362822883,0.1642739340778952
1773063067513869824,1.8194127082824707,0.07757369428873062,0.14321912825107574,-0.04687977582216263,0.009311108849942684,0.3609873056411743,-0.9325242638587952,-0.03012409247457981,-0.008509278297424316,0.010496675968170166,0.9797633446579698,-0.18339884404251078,-0.010136203662519992,0.07953504545675269,-0.36932635952670784,0.00998451230711167,0.16386541654321224
1773063067523906816,1.8294496536254883,0.06386853009462357,0.14752651751041412,-0.05531001091003418,0.010505910031497478,0.3603215217590332,-0.9327690005302429,-0.02962517738342285,-0.009247303009033203,0.024413347244262695,0.9798583858858458,-0.18310279523991738,-0.009426431029130322,0.07913326642321486,-0.368612529202688,0.01126266541170587,0.1632696500074447
1773063067533944576,1.8394875526428223,0.07680217176675797,0.11871404945850372,-0.028124462813138962,0.011573494412004948,0.3596671223640442,-0.9330089092254639,-0.023383796215057373,-0.00041419267654418945,0.030710935592651367,0.9799451264595124,-0.18280631663742758,-0.008797796714058635,0.07881623387353266,-0.3679111329255405,0.012403848714976386,0.16282082373449588
1773063067543981824,1.849524736404419,0.0860593244433403,0.1180967316031456,-0.0010734058450907469,0.012646161019802094,0.35890281200408936,-0.9332892298698425,0.0012240782380104065,0.0055228471755981445,0.032746076583862305,0.9800306232248428,-0.1824508553720244,-0.008188789315143873,0.07864224492202446,-0.3670921303590735,0.013549269022519926,0.16266147274874743
1773063067554019584,1.859562635421753,0.07627513259649277,0.10288049280643463,0.014985721558332443,0.013735390268266201,0.3581196069717407,-0.9335746765136719,0.012311363592743874,0.004627585411071777,0.030941009521484375,0.9801075576188445,-0.1820851401064349,-0.007593599760630706,0.0785909253301489,-0.3662531595026359,0.014711623669656355,0.162754307546171
1773063067564056576,1.8695995807647705,0.06044961139559746,0.08375486731529236,0.026020130142569542,0.014670983888208866,0.3574821949005127,-0.9338046908378601,0.013801918365061283,0.0018470287322998047,0.022076785564422607,0.9801641060473797,-0.18178910230658743,-0.007097003346002016,0.07861703383278765,-0.3655705456588921,0.015709684323116695,0.16297734457790286
1773063067574093824,1.8796367645263672,0.058265283703804016,0.0648067444562912,0.031205570325255394,0.015458356589078903,0.35691511631011963,-0.9340088963508606,0.010573138482868671,-0.007000565528869629,0.019961655139923096,0.9802099159635171,-0.1815235939701645,-0.006688224584863411,0.07869523698260658,-0.3649634118943985,0.01654903402979405,0.16327840730928378
1773063067584131840,1.8896746635437012,0.04400716349482536,0.05399111285805702,0.01704234816133976,0.016126010566949844,0.35643625259399414,-0.934180498123169,0.002932211384177208,-0.01528024673461914,0.018134355545043945,0.9802482062673212,-0.18129958475681884,-0.006342217204067914,0.07876439673457476,-0.3644508507667868,0.01726048632502892,0.16353912897007844
1773063067594168576,1.8997116088867188,0.06530526280403137,0.03040349669754505,0.0023254533298313618,0.016532696783542633,0.3559378981590271,-0.9343633651733398,-0.006507674232125282,-0.0155295729637146,0.014121055603027344,0.980294710321573,-0.1810550359399249,-0.006115019127446824,0.07876538418260089,-0.3639174947720663,0.017692230645415193,0.16360822174122974
1773063067604206848,1.9097497463226318,0.08105315268039703,0.03357398882508278,-0.001330800587311387,0.01683918759226799,0.35524284839630127,-0.9346223473548889,-0.012292075902223587,-0.01327812671661377,0.019125521183013916,0.9803628370331754,-0.18070336426698835,-0.005925365594468805,0.0787401053889539,-0.3631738536307838,0.018015153797373937,0.16359839693906073
1773063067614243840,1.9197866916656494,0.062484532594680786,0.029988043010234833,-0.0038698583375662565,0.017125146463513374,0.35454466938972473,-0.9348822236061096,-0.0056505389511585236,-0.007407248020172119,0.02127748727798462,0.980432095344622,-0.18034935247733594,-0.005743735498477128,0.07870233792969952,-0.36242706714153944,0.01831592290884706,0.16355871894319693
1773063067624280576,1.929823637008667,0.039036285132169724,0.013922257348895073,-0.02441667951643467,0.01730513572692871,0.3540869653224945,-0.9350523948669434,0.0021803323179483414,-0.0020056962966918945,0.02028799057006836,0.980482393390546,-0.1801173325294747,-0.005617287265770314,0.07861664001217872,-0.36193760697720334,0.018505017886935145,0.16340682749170712
1773063067634318848,1.93986177444458,0.014537867158651352,0.011809570714831352,-0.04476669058203697,0.01728028431534767,0.35381782054901123,-0.9351547360420227,0.0019915644079446793,-0.006176799535751343,0.019078075885772705,0.9805228354284246,-0.17997622705230967,-0.005585453350228592,0.0784370631932444,-0.36164981956076475,0.018476426922685755,0.1630283119061378
1773063067644355840,1.9498987197875977,0.0066832285374403,-0.004477522801607847,-0.05041366070508957,0.017164526507258415,0.3537221848964691,-0.9351930618286133,-0.0009139198809862137,-0.011208117008209229,0.01896381378173828,0.9805519044187156,-0.17992268109891713,-0.005595728724334375,0.07819562045967905,-0.36154757155827877,0.018351932522241373,0.1625105313082113
1773063067654393600,1.9599366188049316,0.007592431269586086,-0.01365664042532444,-0.03428635373711586,0.01687447726726532,0.3536423444747925,-0.9352285265922546,-0.0030347630381584167,-0.01337134838104248,0.01660364866256714,0.9805774364532936,-0.17987006438558076,-0.005701378788677979,0.07798897577992597,-0.3614622193583866,0.018041202131779902,0.16203000321150385
1773063067664430592,1.9699735641479492,0.01609235256910324,-0.02519878000020981,-0.006385480053722858,0.016626372933387756,0.35356032848358154,-0.935263991355896,5.6996941566467285e-06,-0.006529659032821655,0.014914870262145996,0.9805933572221842,-0.17981737525141167,-0.005807734895648024,0.07790244360598914,-0.36137453267283765,0.017775326389706168,0.1618026653033501
1773063067674467840,1.980010747909546,0.013276860117912292,-0.02189060114324093,0.019659435376524925,0.016424592584371567,0.3533859848976135,-0.9353333711624146,0.0074248965829610825,-0.0013962388038635254,0.01458752155303955,0.9806064556819146,-0.1797173817170405,-0.0059130095111089714,0.07795924608390364,-0.36118817862218094,0.01755834304583362,0.16187431984921738
1773063067684505600,1.9900486469268799,-0.03543896973133087,-0.02265319786965847,0.039965640753507614,0.016346773132681847,0.35349810123443604,-0.9352924227714539,0.009471096098423004,-0.0019203424453735352,0.012044131755828857,0.9805826773088155,-0.17977191597961437,-0.005987973002079367,0.0781272710682074,-0.3613080178605892,0.017475934755463,0.16220474790414013
1773063067694542592,2.0000855922698975,-0.029909981414675713,-0.03530267998576164,0.03275912627577782,0.016198953613638878,0.3538074791431427,-0.9351779818534851,0.012060318142175674,-0.0066395103931427,0.009152591228485107,0.9805369518512297,-0.17992671505297528,-0.006114109634993423,0.07833515482693418,-0.3616387761162796,0.01732005420095345,0.1626079673977051
1773063067704580864,2.0101237297058105,-0.01795518398284912,-0.021315358579158783,0.02637140080332756,0.01603066176176071,0.35401397943496704,-0.9351027011871338,0.0072389934211969376,-0.008020967245101929,-0.0077683329582214355,0.9805050798045661,-0.18002704382402096,-0.006237006250624782,0.0784923578485288,-0.36185955690172705,0.017141530098482315,0.16290102769398337
1773063067714617856,2.020160675048828,-0.027614735066890717,-0.013566624373197556,0.04103796184062958,0.01597909815609455,0.3542085587978363,-0.935029923915863,0.005840977653861046,-0.0017458200454711914,-0.006650984287261963,0.9804721816928338,-0.18012578222736533,-0.006304250003660874,0.07867108715369234,-0.36206762413871063,0.017087734977166227,0.16326060934984538
1773063067724654592,2.0301976203918457,-0.03171129524707794,-0.01972838118672371,0.040770046412944794,0.01595713570713997,0.3544970154762268,-0.9349209666252136,0.011508682742714882,-0.0005541443824768066,0.002242743968963623,0.9804269742072915,-0.18027468501481764,-0.006367724501624424,0.07888881689766178,-0.3623760906243236,0.01706624047047326,0.16370807232827675
1773063067734692864,2.040235757827759,-0.0175709780305624,-0.024705829098820686,0.048654600977897644,0.01590883918106556,0.3547406792640686,-0.9348293542861938,0.0040496475994586945,-0.003635972738265991,0.012603461742401123,0.9803848072381187,-0.18039889656018468,-0.0064456981879255255,0.07912290034160008,-0.3626366941148775,0.01701626357258758,0.16418255522663525
1773063067744729856,2.0502727031707764,-0.026706641539931297,-0.022182084619998932,0.04878842458128929,0.015855934470891953,0.35494908690452576,-0.9347511529922485,-0.0034352820366621017,-0.002165853977203369,0.011853814125061035,0.9803441296836118,-0.1805042821675755,-0.006528508079464532,0.07937846097590985,-0.36285959230034986,0.016961107059408505,0.16469901082816563
1773063067754767616,2.0603106021881104,-0.03894519805908203,-0.00911661610007286,0.03506249189376831,0.015868674963712692,0.35525766015052795,-0.934633731842041,-0.006545552983880043,0.001569122076034546,0.012255191802978516,0.980296481595429,-0.18066517134678928,-0.006575593230393611,0.07959679445724578,-0.36318968893899967,0.016976865263813118,0.1651551547832736
1773063067764804608,2.070347547531128,-0.016072595492005348,-0.016712883487343788,0.03725866973400116,0.015893174335360527,0.3555773198604584,-0.9345117211341858,-0.013146601617336273,0.009397685527801514,0.01704651117324829,0.9802508850766362,-0.18083261857626834,-0.006610017210296334,0.07977577513981647,-0.3635316690113714,0.017005288889978147,0.16553367999269503
1773063067774841856,2.0803847312927246,0.04642859846353531,-0.011504806578159332,0.0836741030216217,0.015961920842528343,0.35540148615837097,-0.934577465057373,-0.00424317829310894,0.014502078294754028,0.008231639862060547,0.9802426450813992,-0.18074123479721846,-0.006624158880872315,0.08008268437357069,-0.36334356799336354,0.017077630804465786,0.16616873921102512
1773063067784879616,2.0904226303100586,0.06664726883172989,-0.002461376367136836,0.1224655732512474,0.016279546543955803,0.35482558608055115,-0.9347907900810242,0.014970457181334496,0.013323217630386353,-0.01035386323928833,0.9802536197432385,-0.18044917268961216,-0.006535565439424866,0.08061153526866911,-0.36272751601913794,0.01741341640292744,0.1672948455119903
1773063067794916608,2.100459575653076,0.07914335280656815,-0.018635286018252373,0.10695026814937592,0.016610177233815193,0.3541213274002075,-0.9350519776344299,0.017508480697870255,0.0005386769771575928,0.006630957126617432,0.9802723752122896,-0.18009024430895892,-0.006443780375097009,0.0811912304403511,-0.3619743570800912,0.017762040078153032,0.16852345726052806
1773063067804954880,2.1104977130889893,0.08003605157136917,-0.024240974336862564,0.10370493680238724,0.016790950670838356,0.3533395826816559,-0.935344398021698,-0.0038514938205480576,-0.0050119757652282715,0.0046956539154052734,0.9803022663905951,-0.17968478342230337,-0.006416313280584298,0.08172869111179742,-0.36113857626876805,0.017949696111914746,0.16963402069957986
1773063067814991616,2.120534658432007,0.07949143648147583,0.006236507557332516,0.1255689561367035,0.01708041876554489,0.3525407016277313,-0.9356405735015869,-0.015539271757006645,-0.005342245101928711,0.008745431900024414,0.9803309695357867,-0.17927508942280657,-0.006336651514875652,0.08228820145949171,-0.36028474161937085,0.018253292226680446,0.17081008242043907
1773063067825028608,2.1305716037750244,0.06758155673742294,0.007862234488129616,0.126203715801239,0.017648741602897644,0.35183921456336975,-0.9358940720558167,-0.009393740445375443,0.003888934850692749,0.01467519998550415,0.9803429152269262,-0.17892838386889465,-0.006132022386733158,0.08291504717451571,-0.35953523244884134,0.01885539238251996,0.1721802683114313
1773063067835066880,2.1406097412109375,0.10631057620048523,-0.011081096716225147,0.12540583312511444,0.01805941015481949,0.3510131537914276,-0.9361963868141174,-0.0032126102596521378,0.006637603044509888,0.006218969821929932,0.9803693296806035,-0.17851014144862043,-0.0059956730502023735,0.08351166457843219,-0.3586528842868624,0.019287802598909925,0.1734539520521969
1773063067845103616,2.150646686553955,0.1345534473657608,-0.015803813934326172,0.13942912220954895,0.018385643139481544,0.34985706210136414,-0.936622679233551,0.007249126210808754,0.011471062898635864,-0.0015029311180114746,0.9804201321835823,-0.17791529062178407,-0.005901075567233163,0.08418812607304942,-0.3574185234620899,0.019627202321428328,0.17486411289456233
1773063067855141632,2.160684585571289,0.12369520217180252,-0.0018073038663715124,0.12224160879850388,0.01875876635313034,0.3485462963581085,-0.937103807926178,0.011194240301847458,0.012430846691131592,-0.0037378668785095215,0.9804855647434175,-0.17724210586102634,-0.0057726666057567105,0.08485229433250509,-0.3560196979197055,0.020015136639682584,0.17625314317828839
1773063067865178880,2.1707217693328857,0.06471874564886093,0.009178634732961655,0.08289673179388046,0.019159719347953796,0.347623348236084,-0.9374384880065918,0.004827100783586502,-0.0034003257751464844,0.006942272186279297,0.9805268675943628,-0.17677439545964077,-0.00561895451724172,0.08535962130907869,-0.35503518078622043,0.020435529772393286,0.1773382351462697
1773063067875215872,2.1807587146759033,0.022982483729720116,0.0010892830323427916,0.0464835949242115,0.01943986304104328,0.34720534086227417,-0.9375876188278198,-0.008178876712918282,-0.00340956449508667,0.020946383476257324,0.9805387602571801,-0.17656672466509726,-0.00551193639083806,0.08565939239899906,-0.3545893941971811,0.020730944761597175,0.17799120458855522
1773063067885253632,2.1907966136932373,0.0354297012090683,0.0047616492956876755,0.04476918280124664,0.019597100093960762,0.3469392657279968,-0.9376828074455261,-0.01701836660504341,-0.008316248655319214,0.011855840682983398,0.9805445936842713,-0.1764335392584036,-0.0054580015301966415,0.08587008922894253,-0.3543056901194288,0.0208964550989086,0.17844325946912404
1773063067895290624,2.200833559036255,0.03800923749804497,-0.004485645331442356,0.021634571254253387,0.01977946236729622,0.34659531712532043,-0.9378061890602112,-0.008610032498836517,-0.022941142320632935,-0.010847926139831543,0.980560939757395,-0.17626102087400397,-0.005380815850050915,0.08604255630336485,-0.35393897440356187,0.021088077527257422,0.1788197749666118
1773063067905328640,2.210871696472168,0.031437575817108154,-0.01299697533249855,-0.05391651391983032,0.01962965913116932,0.34625235199928284,-0.937936007976532,-0.0034858621656894684,-0.03327932953834534,-0.018988430500030518,0.9805973786856044,-0.1760751538606412,-0.005433884870011908,0.0860046549189796,-0.35357338074727385,0.020925514553332,0.17870357275426424
1773063067915365632,2.2209086418151855,0.014941157773137093,-0.00013337424024939537,-0.1132967546582222,0.01926763355731964,0.3460618257522583,-0.9380138516426086,-0.013103079050779343,-0.0262070894241333,-0.009953677654266357,0.9806547613475877,-0.175961605800226,-0.005531166543404061,0.08557537999014457,-0.35337031556066156,0.020537995263919837,0.17775315631247682
1773063067925402624,2.230945587158203,0.041929807513952255,0.005534631200134754,-0.07810734212398529,0.018940191715955734,0.3458356559276581,-0.9381039142608643,-0.022770138457417488,-0.003748863935470581,-0.011069059371948242,0.9807212197684697,-0.17583151594821353,-0.005596609462269085,0.08507467524871641,-0.35312925127439604,0.02018712188842864,0.17666280685758626
1773063067935440896,2.240983724594116,0.04255059361457825,0.04641042649745941,-0.016319870948791504,0.019023651257157326,0.34541836380958557,-0.9382559657096863,-0.000331636518239975,0.007822602987289429,-0.01520472764968872,0.9807815780050446,-0.17561853098572053,-0.005490789213739611,0.08482641693247266,-0.35268455639402746,0.020272767902971257,0.17616039854177723
1773063067945477632,2.251020669937134,-0.001317173708230257,0.041182905435562134,0.0055731781758368015,0.01945841871201992,0.3452286422252655,-0.9383168816566467,0.011394843459129333,0.0021987557411193848,0.012901842594146729,0.9808022745173918,-0.17553910642480114,-0.005251584682183098,0.08476729611100964,-0.3524823867896818,0.020734604790781066,0.17611727585038361
1773063067955515648,2.2610585689544678,-0.016570961102843285,0.014447965659201145,-0.005103700794279575,0.019749071449041367,0.3453613221645355,-0.9382619857788086,-0.0012401528656482697,-0.0025115907192230225,0.029906272888183594,0.9807903781290832,-0.1756216008754611,-0.00510597113621324,0.08474141627516149,-0.3526237751401285,0.021045461299917183,0.17612382876822374
1773063067965552896,2.2710957527160645,0.016491029411554337,0.023920830339193344,-0.01846584491431713,0.019856609404087067,0.34537091851234436,-0.9382561445236206,-0.008504077792167664,0.001690208911895752,0.01094907522201538,0.9807956668307317,-0.17563180166726763,-0.005038198239606157,0.08466432263916604,-0.35263400909216913,0.021160154227753632,0.17598744665302582
1773063067975589632,2.281132698059082,0.09246356040239334,0.025791434571146965,-0.0034147240221500397,0.02005179040133953,0.34491729736328125,-0.9384188652038574,-0.003328172490000725,0.00543975830078125,-0.008282124996185303,0.9808439223957,-0.17540381423577878,-0.00490478949047226,0.08458611909633645,-0.3521506603458049,0.021364381351121443,0.1758518074004677
1773063067985627648,2.291170597076416,0.16790013015270233,0.036161117255687714,0.009140348993241787,0.020368667319417,0.3436836898326874,-0.938864529132843,0.012132553383708,0.003636866807937622,-0.030907809734344482,0.980957665945041,-0.1747734295958754,-0.004687814259818772,0.0845831167505548,-0.3508367325060451,0.021691599146757237,0.17586936948352946
1773063067995664640,2.3012075424194336,0.24419356882572174,0.02530607208609581,0.006337106227874756,0.020702945068478584,0.34172147512435913,-0.9395732283592224,0.014239685609936714,-0.005387246608734131,-0.03322035074234009,0.9811363337739395,-0.17376345655301348,-0.0044334933269551385,0.08460544034221891,-0.34874803441532853,0.02203084863017279,0.17591977705131145
1773063068005702656,2.3112456798553467,0.17244268953800201,-0.0026616461109369993,-0.04302884265780449,0.020852552726864815,0.3394658863544464,-0.9403871893882751,-0.0004973281174898148,-0.01720026135444641,-0.025722980499267578,0.9813460923261901,-0.17259297094593995,-0.004250517537391229,0.08457763221858107,-0.346348992235457,0.02217079874002107,0.17582416311863822
1773063068015739648,2.3212826251983643,-0.13315318524837494,-0.03228052332997322,-0.19050271809101105,0.019955100491642952,0.33965232968330383,-0.9403393268585205,-0.02613491378724575,-0.03562095761299133,0.025452852249145508,0.9813827795306947,-0.17265296861518983,-0.00461271242584906,0.08400890658240691,-0.34654721542418293,0.02121798521130454,0.17450271095748623
1773063068025776640,2.331319570541382,-0.0766947939991951,-0.11548566818237305,-0.13732685148715973,0.018808681517839432,0.34074079990386963,-0.9399691224098206,-0.09873422235250473,-0.08390486240386963,0.11999231576919556,0.9813582413287808,-0.1731746529988948,-0.0050970487467060935,0.08318983937870426,-0.34770472898770166,0.02000722306471169,0.17264973161004796
1773063068035814656,2.341357707977295,-0.05281050503253937,-0.1136438250541687,-0.08468920737504959,0.017283422872424126,0.3413091003894806,-0.9397922158241272,0.006718648597598076,-0.02346852421760559,-0.008465230464935303,0.981346379467619,-0.17340695154163704,-0.00582458687742646,0.08279742243571213,-0.3483092670350585,0.018388612404732524,0.1715791360892919
1773063068045851648,2.3513946533203125,-0.029621249064803123,0.03259687498211861,-0.019336165860295296,0.016480790451169014,0.3420292139053345,-0.9395447969436646,0.06317008286714554,0.013012290000915527,0.006149411201477051,0.9813071537212803,-0.17374983459704527,-0.0062127805270329175,0.0825154209773695,-0.34907550077522587,0.017539450622990425,0.17087267144239215
1773063068055889664,2.3614325523376465,0.08688005805015564,-0.01908123306930065,0.12864238023757935,0.016705969348549843,0.3416747450828552,-0.9396697878837585,0.013842115178704262,0.037475645542144775,0.013903796672821045,0.9813157863591957,-0.17357277299257307,-0.006131885542564855,0.0827912147549855,-0.34869830118275086,0.017776680447490208,0.17146771668222904
1773063068065926912,2.371469736099243,0.1468927562236786,0.05612443760037422,0.16302073001861572,0.01742958277463913,0.3404884934425354,-0.9400871396064758,0.05483604222536087,0.0306052565574646,-0.03508681058883667,0.9813592158175714,-0.17298060931555834,-0.005843572882368364,0.08353211219313653,-0.3474363731486779,0.018538267354407653,0.173081538174932
1773063068075963648,2.3815066814422607,0.11830904334783554,0.06381644308567047,0.17175403237342834,0.018537800759077072,0.3392142355442047,-0.9405264854431152,0.029435833916068077,-0.016216188669204712,-0.005808353424072266,0.9814057233337389,-0.17236017555786248,-0.00536021740285644,0.08429701676125606,-0.3460814721914636,0.019707474081809676,0.1748124433893072
1773063068086001664,2.3915445804595947,0.13764280080795288,0.12389229983091354,0.2861279845237732,0.02025700733065605,0.33789363503456116,-0.9409662485122681,0.0027837641537189484,-0.022586047649383545,0.011141479015350342,0.9814318275418941,-0.17174298495735763,-0.004605244522416219,0.08529161804144537,-0.3446780077322681,0.021524553043260262,0.1771218020190519
1773063068096038912,2.4015817642211914,0.07681699842214584,0.043441664427518845,0.43105828762054443,0.022388353943824768,0.3367389142513275,-0.9413318634033203,0.015773875638842583,0.024268776178359985,-0.0032787322998046875,0.98137362680359,-0.17123029207138782,-0.0037759428029263313,0.08701607064768946,-0.3434513979286469,0.023779215388217728,0.18099702234106255
1773063068106076672,2.4116196632385254,-0.0984211266040802,-0.06355349719524384,0.19439169764518738,0.023251300677657127,0.33699899911880493,-0.941217839717865,0.03164982050657272,0.0009374022483825684,0.02894061803817749,0.9811999547196796,-0.17139972444327486,-0.003634170585990754,0.08863198618637344,-0.3437276338237579,0.024698396696771364,0.18445869322710765
1773063068116113664,2.421656608581543,-0.1134333685040474,-0.07833004742860794,0.03459670767188072,0.022929567843675613,0.33801063895225525,-0.9408629536628723,-0.06043567508459091,-0.09509068727493286,0.07533866167068481,0.9810621403452051,-0.17190997020975213,-0.003936399177436887,0.08915501787940194,-0.34480230647791954,0.024365962102481906,0.18549722105771138
1773063068126150656,2.4316935539245605,-0.01919315569102764,-0.05502232164144516,0.10281677544116974,0.022479834035038948,0.33865681290626526,-0.9406414031982422,-0.0831030011177063,-0.05174580216407776,0.0052013397216796875,0.9809707400757262,-0.17222410349433137,-0.004261857457752443,0.08953842453067179,-0.3454889892033192,0.02389386317447195,0.18621550056856423
1773063068136188672,2.4417316913604736,0.009815860539674759,0.0019245834555476904,0.13957399129867554,0.022657468914985657,0.3385823369026184,-0.9406639337539673,-0.009031377732753754,0.0013072192668914795,-0.039667487144470215,0.9809183390598111,-0.1721909118780967,-0.004279976164506828,0.09017341170276956,-0.34540982668305076,0.024082021775168567,0.18754093638982153
1773063068146225664,2.451768636703491,-0.0774153620004654,0.015329072251915932,0.1241455003619194,0.023252077400684357,0.3388492166996002,-0.9405533075332642,0.009416984394192696,0.016695797443389893,-0.028181374073028564,0.9808304910072121,-0.17235567120442535,-0.004106019516681258,0.09082003227241318,-0.34569348000228095,0.024716665303625603,0.18897899081358238
1773063068156263936,2.4618067741394043,-0.14463567733764648,-0.01868055947124958,0.10382691025733948,0.02362080104649067,0.33990949392318726,-0.9401614665985107,0.008559981361031532,0.0009871125221252441,0.014075040817260742,0.9806775517426038,-0.17292391301263788,-0.004071966898383916,0.09139098422724126,-0.34682064641075777,0.02511891048052141,0.190246887630234
1773063068166300672,2.471843719482422,-0.13054972887039185,-0.009216884151101112,0.044764790683984756,0.023710519075393677,0.3412052392959595,-0.9396897554397583,0.002992367371916771,-0.018100380897521973,0.0191575288772583,0.9805220167028112,-0.1736025788525715,-0.004156889390457837,0.09176811173452627,-0.34819878640196944,0.025226931645368076,0.19107561184170874
1773063068176337664,2.4818806648254395,-0.10031139850616455,-0.0026948025915771723,0.023165220394730568,0.023763231933116913,0.34229588508605957,-0.9392916560173035,-0.01935345120728016,-0.013957291841506958,0.015753507614135742,0.9804069114695352,-0.17417359144955316,-0.004209883991297394,0.09191413854447364,-0.3493593004318414,0.025293702982942045,0.1914196012719463
1773063068186375680,2.4919185638427734,-0.08153188973665237,-0.0004027530085295439,0.03830329328775406,0.023834632709622383,0.34311845898628235,-0.9389896988868713,-0.02224772796034813,-0.0019319355487823486,0.016458570957183838,0.9803160259948134,-0.1746057445025574,-0.004240778307857146,0.0920623743493382,-0.35023489438937705,0.025377824668420416,0.19176293505646205
1773063068196412928,2.50195574760437,-0.04886742681264877,-0.014992880634963512,0.06739220023155212,0.023962976410984993,0.34370604157447815,-0.9387714862823486,-0.006064418703317642,0.0021954476833343506,0.014394044876098633,0.9802359511382932,-0.1749176244197539,-0.004251188248593611,0.09232148883606545,-0.35086053122293703,0.025520345802565503,0.19233561794778753
1773063068206450688,2.511993646621704,-0.07583566009998322,-0.006362374871969223,0.0787748172879219,0.024102121591567993,0.3442497253417969,-0.9385687112808228,0.007163131609559059,0.002948760986328125,0.001663804054260254,0.9801489808467037,-0.17520665315765976,-0.004274617998818789,0.0926952427464958,-0.35143954241991887,0.025674013319401553,0.19314301781332313
1773063068216487680,2.5220305919647217,-0.11600998044013977,-0.01729198917746544,0.03355887159705162,0.024191195145249367,0.34516456723213196,-0.9382303357124329,0.009622279554605484,-0.013697922229766846,0.004819750785827637,0.9800349260490283,-0.17568748858499755,-0.004327585857782168,0.09298773998128454,-0.35241413077895933,0.025778142413573683,0.1937878728593109
1773063068226524672,2.5320675373077393,-0.14653943479061127,-0.006905526388436556,-0.008747970685362816,0.02411060594022274,0.34641849994659424,-0.9377701878547668,-0.00416736863553524,-0.027601391077041626,0.0032609105110168457,0.979911017336456,-0.17633822516117434,-0.004443364970548497,0.0930564280121604,-0.3537505017651853,0.02570490753130152,0.19395527901535442
1773063068236562688,2.5421056747436523,-0.14696422219276428,-0.0038633975200355053,-0.03679744899272919,0.02398357354104519,0.3478398323059082,-0.9372471570968628,-0.006374938413500786,-0.026718616485595703,-0.003975987434387207,0.979788065432522,-0.17707521538605456,-0.004558876166492251,0.09294648602773979,-0.35526606567760904,0.02558379586238205,0.19375486276031476
1773063068246599680,2.55214262008667,-0.08348114788532257,-0.008036971092224121,-0.03912678360939026,0.023792142048478127,0.3489662706851959,-0.9368332028388977,-0.009570952504873276,-0.024076133966445923,-0.005747973918914795,0.9797009421385237,-0.17765562178882288,-0.0046765635528208905,0.09275081825619065,-0.35646780261490496,0.02539088870198238,0.19335679488657467
1773063068256637696,2.562180757522583,0.025048520416021347,-0.024320602416992188,-0.015386298298835754,0.02355206198990345,0.3492561876773834,-0.936731219291687,-0.006691101938486099,-0.01643151044845581,-0.009328961372375488,0.9796870689742825,-0.17779607534684366,-0.004789145739794694,0.09262237892384578,-0.3567771949085707,0.025137521425870363,0.19305793839314309
1773063068266674688,2.5722177028656006,0.10813062638044357,-0.019357267767190933,0.03000222146511078,0.02335875667631626,0.34859615564346313,-0.9369819164276123,0.0020929016172885895,0.0011810660362243652,-0.007628679275512695,0.9797460692760317,-0.17744123830636607,-0.004863504337227999,0.09267506197434472,-0.35607289652767427,0.024924621840888735,0.19310579548491866
1773063068276711680,2.582254648208618,0.13199573755264282,-0.027627982199192047,0.08125688880681992,0.023344146087765694,0.3474246561527252,-0.9374172687530518,0.009004482999444008,0.02051052451133728,0.008919954299926758,0.9798285648946902,-0.17682667357325269,-0.004866834225890597,0.09297656480714067,-0.3548232754557874,0.024897474828562024,0.19367899838423402
1773063068286749696,2.592292547225952,0.13641490042209625,-0.04124578833580017,0.06889422982931137,0.023320700973272324,0.34613895416259766,-0.9378933906555176,0.012979954481124878,0.021201133728027344,0.020245075225830078,0.9799098385590779,-0.17615162952771599,-0.004890361890452767,0.0933994443018814,-0.353452502338986,0.024859858708942945,0.19449443954647555
1773063068296786688,2.602329730987549,0.1251973956823349,-0.036702435463666916,0.00669396948069334,0.023065801709890366,0.3448869287967682,-0.9383608102798462,-0.0007574576884508133,0.0035170018672943115,0.009268403053283691,0.9800079432175746,-0.1754840157236008,-0.004996006600857312,0.09362121495322522,-0.3521183140510159,0.02457600237916581,0.19485642490719554
1773063068306824704,2.612367630004883,0.07690776884555817,-0.030727503821253777,-0.03923850134015083,0.022693073377013206,0.3439160883426666,-0.9387261271476746,-0.015933426097035408,-0.004362255334854126,-0.0034583210945129395,0.980107373393201,-0.17495909272835247,-0.005123683888743593,0.0935549942622946,-0.3510842132793507,0.0241696203025304,0.19461807846429854
1773063068316861696,2.6224045753479004,0.030663838610053062,-0.0065883444622159,-0.06440777331590652,0.02233918569982052,0.34342923760414124,-0.9389128088951111,-0.01686127856373787,-0.005416542291641235,-0.008261263370513916,0.9801779460146748,-0.17468879766789677,-0.005235133138092369,0.09331425640905035,-0.3505657885747,0.023788121442715807,0.19404363335822541
1773063068326898688,2.632441759109497,0.03308851271867752,-0.018227554857730865,-0.08776675164699554,0.021996354684233665,0.34318557381629944,-0.9390100240707397,-0.014092305675148964,-0.01568618416786194,-0.003693222999572754,0.9802371857345052,-0.17454672553452927,-0.005331677946049216,0.09295211035599985,-0.3503063449715415,0.023420764763725115,0.19323176037461465
1773063068336936704,2.642479658126831,0.029081523418426514,-0.008492903783917427,-0.07436119765043259,0.021581795066595078,0.3428807258605957,-0.9391310214996338,-0.011922979727387428,-0.018799304962158203,-0.010576009750366211,0.9803059442599503,-0.17436957415681825,-0.005454683952842882,0.0925514507169097,-0.3499818288475681,0.02297655812914407,0.19232594611773887
1773063068346973696,2.6525166034698486,-0.01892608404159546,-0.00456647202372551,-0.02681725099682808,0.02132502757012844,0.34284114837646484,-0.9391513466835022,-0.00261775404214859,-0.0033941268920898438,0.0014835000038146973,0.9803349675724907,-0.17433781992508263,-0.00553754749801145,0.09229876132678375,-0.3499396754927393,0.02270279817898256,0.1917605369143463
1773063068357011712,2.6625547409057617,-0.04877585917711258,-0.012734387069940567,0.025615863502025604,0.02125392109155655,0.34318840503692627,-0.9390261173248291,0.013322491198778152,0.0017670392990112305,0.0244600772857666,0.9803029539992067,-0.17451560246008144,-0.00559091092112645,0.09229975365686202,-0.3503093655762969,0.022630141044897766,0.19176011312188035
1773063068367048704,2.6725916862487793,-0.06220848858356476,-0.021804846823215485,0.0753762274980545,0.021265210583806038,0.34369000792503357,-0.9388423562049866,0.017980387434363365,0.006102472543716431,0.025817453861236572,0.9802310074590692,-0.17477645503133496,-0.005657650978537916,0.09256630331218106,-0.3508434686969025,0.022646587059672537,0.1923220359663882
1773063068377086720,2.6826295852661133,-0.0832567811012268,-0.031118454411625862,0.09931191802024841,0.021330133080482483,0.3443591594696045,-0.9385956525802612,0.02151654101908207,0.00712701678276062,0.01273810863494873,0.9801235495132996,-0.17512623753735146,-0.005742192450802511,0.09303645795201657,-0.35155611704174766,0.02272167207755316,0.19331506743173502
1773063068387123712,2.69266676902771,-0.1003519669175148,-0.04247603565454483,0.1026826798915863,0.02134460210800171,0.345248281955719,-0.9382686614990234,0.013887934386730194,-0.0010557770729064941,0.0023860931396484375,0.9799894879465458,-0.17558805055715915,-0.0058747711172085345,0.09356852579722577,-0.35250331335100826,0.0227450009828595,0.19443217657448225
1773063068397160704,2.7027037143707275,-0.09845393151044846,-0.027149012312293053,0.07998961955308914,0.021329032257199287,0.346170574426651,-0.937929093837738,0.005099188536405563,-0.014124095439910889,-0.015989303588867188,0.979855678056527,-0.17606600307586848,-0.006017573522819163,0.09406057714092982,-0.3534862216106309,0.022736640742248345,0.1954632407135239
1773063068407198720,2.7127416133880615,-0.07785113900899887,-0.020024124532938004,0.06274445354938507,0.021358070895075798,0.34698179364204407,-0.9376286268234253,-0.00806766003370285,-0.021481305360794067,-0.025750279426574707,0.9797432262453192,-0.17648891926418622,-0.006110990586985762,0.09443219906930461,-0.354351037710451,0.02277487756190538,0.1962537087666353
1773063068417235712,2.722778558731079,-0.060142453759908676,-0.0018720189109444618,0.06178491562604904,0.02147470787167549,0.34762611985206604,-0.9373872876167297,-0.021200045943260193,-0.021255850791931152,-0.026388347148895264,0.9796521658435564,-0.17682946363532231,-0.006139980476847255,0.09473759990229462,-0.3550381200329138,0.022905102668395155,0.19692063903646434
1773063068427273728,2.732816696166992,-0.049134187400341034,0.000442268094047904,0.08729853481054306,0.02171468548476696,0.3480735719203949,-0.9372156858444214,-0.02168416604399681,-0.013463586568832397,-0.023248791694641113,0.979574035328143,-0.1770730739326242,-0.006105655502479497,0.09509229128632166,-0.35551539003173827,0.023165212877086547,0.19770574963430626
1773063068437310720,2.7428536415100098,-0.06735686957836151,0.006296961568295956,0.11495625972747803,0.022113775834441185,0.348585844039917,-0.937015950679779,-0.0077552516013383865,-0.011000394821166992,-0.013545572757720947,0.979474154601899,-0.17735775384682717,-0.00602110872086529,0.09559440040772235,-0.3560618836762605,0.02359583249558114,0.19882502061977547
1773063068447347712,2.7528905868530273,-0.08840525150299072,0.002580786356702447,0.12404989451169968,0.02255057357251644,0.3492741882801056,-0.9367491602897644,-0.00277518667280674,-0.01164296269416809,0.007427871227264404,0.9793501168056451,-0.17773613040840844,-0.005939646093305304,0.0961666029003363,-0.3567963996694911,0.024068576148303614,0.2001011813573543
1773063068457384960,2.762928009033203,-0.12493103742599487,0.006482849828898907,0.10966110229492188,0.023001352325081825,0.3502648174762726,-0.9363682270050049,-0.0026003606617450714,-0.011672288179397583,0.012250244617462158,0.9791954523099872,-0.17827345454083882,-0.005869254325013563,0.09674925327189123,-0.3578538022614916,0.024559491483502362,0.20141245711525876
1773063068467421952,2.7729649543762207,-0.1320192962884903,-0.0006986302323639393,0.08456213772296906,0.023387182503938675,0.35145294666290283,-0.9359133839607239,-0.007746931165456772,-0.01299777626991272,0.010956108570098877,0.9790327542305336,-0.17891172314299184,-0.005822276491151574,0.09721996125188051,-0.3591226162611419,0.02498341931250498,0.20249029360103998
1773063068477459968,2.7830028533935547,-0.1305372565984726,0.01754109375178814,0.04907471686601639,0.023712793365120888,0.3526841700077057,-0.9354419112205505,-0.014160796999931335,-0.014625698328018188,-0.008649885654449463,0.978880429968819,-0.1795706452811879,-0.005781104789184205,0.09754047809666687,-0.36043804498617993,0.025343866537390052,0.20325198544329667
1773063068487496960,2.7930397987365723,-0.13579624891281128,0.030662089586257935,0.003920154180377722,0.024032549932599068,0.35390254855155945,-0.9349734783172607,-0.023422205820679665,-0.024617880582809448,-0.023492097854614258,0.9787500342773086,-0.18022408263068757,-0.005703561934791069,0.09764863678100101,-0.36174041115524164,0.025698331008871624,0.20357900989721028
1773063068497533952,2.803076982498169,-0.1358465850353241,0.040538955479860306,-0.03560994565486908,0.024313051253557205,0.3552025556564331,-0.9344731569290161,-0.033025823533535004,-0.033669352531433105,-0.026403307914733887,0.978634185379683,-0.1809198262735816,-0.005608140930021393,0.09752852770949103,-0.36313075002015016,0.026012056480457686,0.20343541879856603
1773063068507571968,2.813114881515503,-0.10301011055707932,0.04956081137061119,-0.05308494344353676,0.02455376461148262,0.35633164644241333,-0.9340368509292603,-0.032503604888916016,-0.03072434663772583,-0.021132826805114746,0.9785492241725952,-0.18152506611470473,-0.005496627893488078,0.09726262070497112,-0.3643388901497165,0.026281737313696867,0.2029803544562988
1773063068517608960,2.8231518268585205,-0.07257524132728577,0.059873901307582855,-0.05386711284518242,0.024875521659851074,0.3571738302707672,-0.9337066411972046,-0.020892975851893425,-0.021648317575454712,-0.02471315860748291,0.9784975502397163,-0.18198467308584362,-0.005316704389422029,0.09693202734213492,-0.3652403828158383,0.026635389201829417,0.2023991535296204
1773063068527646976,2.8331899642944336,-0.026183418929576874,0.045003876090049744,-0.0480494350194931,0.0251852348446846,0.35766252875328064,-0.9335112571716309,-0.007240906357765198,-0.01639971137046814,-0.01988840103149414,0.9784772823562277,-0.18225822859368992,-0.005129958346625785,0.09663303368039339,-0.36576363430147535,0.02697249552856421,0.20186759381560532
1773063068537683968,2.843226909637451,0.0026357118040323257,0.04812004044651985,-0.045897871255874634,0.025435825809836388,0.3577611446380615,-0.9334666728973389,0.004257779568433762,-0.017337560653686523,-0.024770021438598633,0.9784922361898406,-0.18232413746551995,-0.004958405429588306,0.09636504737510991,-0.36586924283463745,0.027242037440774983,0.20137344268860535
1773063068547720960,2.8532638549804688,0.003561160294339061,0.055898070335388184,-0.037964314222335815,0.025776708498597145,0.3577420711517334,-0.9334645867347717,0.007044946774840355,-0.014388829469680786,-0.026023268699645996,0.9785157748405194,-0.182332765777373,-0.00473934023431278,0.09612026504498918,-0.36584881970374084,0.027607003244464152,0.20094046459823767
1773063068557758976,2.863301992416382,-0.024446239694952965,0.06838776916265488,-0.038011450320482254,0.026235591620206833,0.3578367829322815,-0.9334155321121216,0.0011081621050834656,-0.018755942583084106,-0.025080561637878418,0.9785272295579767,-0.18240694284647757,-0.004466475881713949,0.09587554133482874,-0.3659502373292106,0.028099690107831206,0.20053539622913316
1773063068567795968,2.8733389377593994,-0.04671066626906395,0.06118537858128548,-0.04349636659026146,0.026687081903219223,0.35817402601242065,-0.9332733750343323,-0.002532416954636574,-0.027531325817108154,-0.027511537075042725,0.9785165644558634,-0.18260784100044053,-0.004206655450564048,0.09561376240130945,-0.3663114274786007,0.028587348788687295,0.20010314500876866
1773063068577833984,2.8833768367767334,-0.05772576481103897,0.0683538094162941,-0.017465028911828995,0.02718403749167919,0.35868310928344727,-0.9330635070800781,-0.0036397352814674377,-0.030207157135009766,-0.028087615966796875,0.9784838134068488,-0.18290084345575347,-0.003941704808165885,0.09540094424217942,-0.3668567519305005,0.029125939015666007,0.1997867710437035
1773063068587870976,2.89341402053833,-0.04100186750292778,0.06889749318361282,0.012015231885015965,0.02783125638961792,0.3591678738594055,-0.9328579306602478,0.0016029458492994308,-0.027777493000030518,-0.0369449257850647,0.9784380044331156,-0.18318815035554548,-0.0036261768983859967,0.0953315882668023,-0.36737612006812775,0.02982555315538059,0.19979319150380512
1773063068597907968,2.9034509658813477,-0.05140550807118416,0.09770011156797409,0.029303409159183502,0.028664710000157356,0.3595333993434906,-0.9326918721199036,-0.0018245037645101547,-0.02966892719268799,-0.051271140575408936,0.9783926517909631,-0.18342206428161562,-0.0032287982629341633,0.09536141339065132,-0.3677678145655951,0.030723641463124923,0.2000356389298651
1773063068607945984,2.9134888648986816,-0.11305356025695801,0.11203071475028992,0.03696092963218689,0.029788581654429436,0.3602774143218994,-0.9323694705963135,-0.011081311851739883,-0.028597086668014526,-0.04054617881774902,0.9783047588424787,-0.18386931109689914,-0.002708938036158247,0.0954180872271686,-0.36856525418421754,0.031938467835138346,0.20040693059222073
1773063068617982976,2.923525810241699,-0.17400692403316498,0.11426031589508057,0.022714881226420403,0.030950037762522697,0.3616454005241394,-0.9318018555641174,-0.014821499586105347,-0.03902879357337952,-0.03121083974838257,0.978153862037661,-0.18464619714149658,-0.0022026395102016025,0.09547740361203608,-0.3700321287516915,0.033203050156058705,0.20081783868158865
1773063068628020992,2.9335639476776123,-0.2025790512561798,0.11443062126636505,-0.02295393869280815,0.032033275812864304,0.3634166419506073,-0.9310758113861084,-0.014592479914426804,-0.05401420593261719,-0.023529231548309326,0.9779787750940208,-0.18563164954066966,-0.0017249536314871013,0.09536954643320507,-0.37193267642398997,0.03439101873642067,0.20089018672242304
1773063068638057984,2.94360089302063,-0.22612139582633972,0.11787515133619308,-0.012020062655210495,0.03302891552448273,0.365418940782547,-0.9302570223808289,-0.02155430242419243,-0.04600667953491211,-0.027003109455108643,0.9777909108130137,-0.18673472188725324,-0.0012816767218702643,0.09514925335208932,-0.3740828163345476,0.03549024250741634,0.20072733974710533
1773063068648094976,2.9536378383636475,-0.23051831126213074,0.12881314754486084,0.031993601471185684,0.0342179574072361,0.367548406124115,-0.9293746948242188,-0.004997372627258301,-0.02558368444442749,-0.02538299560546875,0.9775721901498382,-0.18791503434412488,-0.00077499790132709,0.09507805332239382,-0.3763715199433485,0.036801636734034394,0.20091806272322602
1773063068658132992,2.9636759757995605,-0.213760107755661,0.11892670392990112,0.05627790093421936,0.03553982824087143,0.36961090564727783,-0.9285067319869995,0.01273898035287857,-0.020154118537902832,-0.02449619770050049,0.9773400246533288,-0.18906769214050725,-0.00023138679000957423,0.09518314088701421,-0.37859022604834097,0.038257650842537634,0.20149826091429035
1773063068668169984,2.973712921142578,-0.22467108070850372,0.12783844769001007,0.0696919783949852,0.03692759573459625,0.3715944290161133,-0.9276604652404785,0.011335965245962143,-0.02592182159423828,-0.024991512298583984,0.9771044828591186,-0.1901832407795593,0.00033212816594211574,0.09537787944892846,-0.38072584572610746,0.03978622724220442,0.2022766230805574
1773063068678208000,2.983750820159912,-0.25610223412513733,0.11995814740657806,0.06730684638023376,0.038341641426086426,0.3737868070602417,-0.9267218112945557,0.005161162465810776,-0.030387789011001587,-0.00903862714767456,0.9768429513809265,-0.1914113166957837,0.0008932167553938762,0.09559668886607857,-0.38308843253117153,0.04134982640556521,0.20312426408783033
1773063068688244992,2.993788003921509,-0.28132250905036926,0.1111951470375061,0.034071531146764755,0.03964356333017349,0.3762959837913513,-0.925650954246521,-0.001649182289838791,-0.03547567129135132,0.0006173849105834961,0.9765552643599411,-0.19280187466261323,0.001396427605981543,0.09573606451981026,-0.3857951852685507,0.04280160916120572,0.20380591235470055
1773063068698281984,3.0038249492645264,-0.27137187123298645,0.11773800104856491,-0.0033144562039524317,0.0407276414334774,0.37885338068008423,-0.9245601296424866,-0.011247668415307999,-0.04737144708633423,0.0031734108924865723,0.9762802242504867,-0.19420767423072682,0.0018227861781313548,0.09569276729213852,-0.3885569920056609,0.04402236925936075,0.20407446694972545
1773063068708320000,3.0138628482818604,-0.242294579744339,0.10323415696620941,-0.007093747612088919,0.04173331707715988,0.38125452399253845,-0.9235276579856873,-0.007858812808990479,-0.04620203375816345,0.002491891384124756,0.9760292333858814,-0.19552792009725667,0.002236479412196922,0.0955556047678911,-0.391152927862011,0.04515830466004467,0.20413052661090117
1773063068718356736,3.023899793624878,-0.22784534096717834,0.10203839838504791,0.017354870215058327,0.04269052669405937,0.3834362030029297,-0.9225801825523376,0.007541395723819733,-0.03783988952636719,-2.7239322662353516e-05,0.9757936672466981,-0.19673081385054592,0.0026244003943456705,0.0954827047746555,-0.3935140036452829,0.046239987232045705,0.20430050354955476
1773063068728395008,3.033937931060791,-0.1842057704925537,0.08901567757129669,0.04723034054040909,0.04370570555329323,0.3853447735309601,-0.9217370748519897,0.01578832045197487,-0.030959397554397583,0.004378676414489746,0.9755704185481222,-0.19779361342319737,0.0030265759577093113,0.09555523448647679,-0.39558143486580466,0.047381186475915785,0.20477064661879096
1773063068738432000,3.0439748764038086,-0.14425328373908997,0.07875610888004303,0.090431347489357,0.04476070776581764,0.38682353496551514,-0.9210667610168457,0.012200351804494858,-0.03356730937957764,0.006256580352783203,0.9753736532221567,-0.19863235933000947,0.003433918036298487,0.09581017594037008,-0.39718447431394055,0.048558392628306045,0.20560412438746734
1773063068748470016,3.0540130138397217,-0.08287431299686432,0.06677841395139694,0.14231811463832855,0.045884646475315094,0.3878190815448761,-0.920592725276947,0.002958729863166809,-0.0427568256855011,0.01602119207382202,0.9752032971679258,-0.19922048058972927,0.003851549405558799,0.0963067628712634,-0.3982643082514197,0.049801290846623526,0.20692504194298175
1773063068758507008,3.0640499591827393,-0.013835584744811058,0.048333361744880676,0.24759046733379364,0.04715416952967644,0.3881760239601135,-0.9203780889511108,-0.003910761326551437,-0.046531736850738525,0.02879178524017334,0.9750624380025613,-0.1994804604268279,0.004300518283005506,0.09717148092578491,-0.39865160289802143,0.051188721306265624,0.2090001412219285
1773063068768544000,3.074086904525757,0.04954880103468895,0.03783651068806648,0.370863139629364,0.048736996948719025,0.3878379166126251,-0.9204381704330444,-0.0030827149748802185,-0.05331951379776001,0.04487365484237671,0.9749285970793671,-0.19939331189284257,0.004817501175606098,0.09865817110762634,-0.39828474087340127,0.052900376413966346,0.21238253512057792
1773063068778581760,3.084124803543091,0.09673016518354416,-0.011038086377084255,0.4904009699821472,0.05055581405758858,0.38693252205848694,-0.9207211136817932,-0.009479153901338577,-0.07441729307174683,0.06903654336929321,0.9747903219690706,-0.19902423114513548,0.005367655096297422,0.10071923650879624,-0.39730268433859367,0.05485385059448218,0.2169623804070141
1773063068788619008,3.0941619873046875,0.21293394267559052,-0.09292323142290115,0.700774073600769,0.052348408848047256,0.38524535298347473,-0.9213281869888306,-0.030192643404006958,-0.08327394723892212,0.09387463331222534,0.9746360712734904,-0.19824894216930003,0.005767015894171504,0.10367501718985772,-0.3954736785715755,0.05675739085863645,0.22332362235757075
1773063068798657024,3.1041998863220215,0.3779444694519043,-0.13258543610572815,0.7880751490592957,0.054161444306373596,0.382066011428833,-0.9225465059280396,-0.030067823827266693,-0.0809948742389679,0.09739702939987183,0.9745363748607212,-0.19669668912356414,0.0060947783850449815,0.1074809114048741,-0.392030883197304,0.05864132119698602,0.23133800143403394
1773063068808693760,3.114236831665039,-0.09120333939790726,0.033451616764068604,1.0814493894577026,0.056930121034383774,0.3795360326766968,-0.923423707485199,-0.07743794471025467,-0.048694998025894165,0.09569549560546875,0.9742686768735611,-0.19555659397795835,0.006764322364625603,0.11185914480203873,-0.3892947467505533,0.06157320434274932,0.24076826430466156
1773063068818731008,3.1242740154266357,-0.21548506617546082,-0.11042406409978867,1.2939046621322632,0.06157240271568298,0.38112160563468933,-0.9224722981452942,-0.05551466345787048,0.012402564287185669,0.2972739338874817,0.9733042270458606,-0.19673129712601245,0.007787287179456512,0.11796191946426701,-0.3910091566304816,0.06664829518094123,0.2544216030983217
1773063068828769024,3.1343119144439697,0.24371765553951263,-0.32847651839256287,0.917707622051239,0.06372030079364777,0.380193829536438,-0.9227092266082764,-0.02206379920244217,-0.040487438440322876,0.31568408012390137,0.972663196231292,-0.19642981507834398,0.007791342634789914,0.12361565365648329,-0.3900058650052616,0.06894837120828916,0.26644774152455464
1773063068838806016,3.1443488597869873,0.5392228364944458,-0.3217616081237793,0.6189571022987366,0.0634780079126358,0.3760647773742676,-0.9244164824485779,-0.2599654197692871,-0.04977083206176758,0.07778257131576538,0.9725839668356518,-0.19426984851508244,0.007140781587751069,0.1276265597545861,-0.38554563344027026,0.06856056177019301,0.2743451647409787
1773063068848844032,3.1543869972229004,0.9074311852455139,-0.24098314344882965,0.46286603808403015,0.06287223100662231,0.3690696358680725,-0.9272727370262146,-0.3395903706550598,0.00597614049911499,0.1457938551902771,0.9729334888801374,-0.19057324114557905,0.006744025385717772,0.1305252815267774,-0.37800779599912804,0.06769976572168014,0.2796752006572318
1773063068858881024,3.164423942565918,1.3514610528945923,-0.13190858066082,0.355583518743515,0.06261217594146729,0.3582462966442108,-0.9315252900123596,-0.3812462091445923,-0.025513172149658203,0.10233217477798462,0.9737390635124487,-0.18490238933021635,0.006962401388944175,0.13264579566557197,-0.3663888336403819,0.06711373352090187,0.2832183576826939
1773063068868918016,3.1744608879089355,1.6574703454971313,-0.1255982220172882,0.3756086230278015,0.06278067827224731,0.3438332676887512,-0.9369297027587891,-0.4019072651863098,-0.10436183214187622,0.05690956115722656,0.9748763655640658,-0.17741311708200416,0.007728533956734836,0.1344656796630941,-0.3509960127613444,0.06690680478452044,0.28600067436768994
1773063068878955776,3.1844987869262695,1.8709378242492676,-0.12711834907531738,0.4104824662208557,0.0628831684589386,0.326923131942749,-0.9429565072059631,-0.3726518452167511,-0.14773917198181152,0.09015804529190063,0.9761453604932032,-0.16866299576430108,0.008633466883843225,0.1364500001959116,-0.33304596066291714,0.06658864765794938,0.2889654094779623
1773063068888993024,3.194535970687866,2.1487438678741455,-0.16990803182125092,0.39021459221839905,0.06278816610574722,0.30760422348976135,-0.9494405388832092,-0.3685285449028015,-0.15771713852882385,0.11901146173477173,0.9775240043455566,-0.1587035942837428,0.009638897690651493,0.13844569131759313,-0.3126741424249661,0.06603559741556567,0.29179890160896754
1773063068899031040,3.2045738697052,2.4702858924865723,-0.20691238343715668,0.3809974193572998,0.06210768595337868,0.28530174493789673,-0.956423282623291,-0.3790632486343384,-0.12537440657615662,0.1355920433998108,0.9790381403948352,-0.14722664196230326,0.010614158894718421,0.14034265065309456,-0.2893212561394361,0.06484639863772135,0.29420507905397203
1773063068909067776,3.2146108150482178,2.7634499073028564,-0.24038977921009064,0.39942634105682373,0.061027318239212036,0.2597986161708832,-0.9637324810028076,-0.35756662487983704,-0.04304751753807068,0.19699358940124512,0.9806270125977085,-0.1341562959850401,0.011654808613223735,0.14225675805397167,-0.2628136614595291,0.06323948137374855,0.2964853834510036
1773063068919106048,3.224648952484131,3.023547649383545,-0.30924367904663086,0.44619250297546387,0.05939166247844696,0.2314421385526657,-0.971034049987793,-0.33296650648117065,0.0716431736946106,0.26096630096435547,0.9821850351477006,-0.11967864461745098,0.012648538442386538,0.14432504579014943,-0.2335598168543184,0.061087215254610965,0.29896603081528167
1773063068929143040,3.2346858978271484,3.385794162750244,-0.4066388010978699,0.48573926091194153,0.05697375163435936,0.1999315470457077,-0.9781520366668701,-0.31225329637527466,0.1976819783449173,0.3173701763153076,0.9836559859148302,-0.10364079542139232,0.013512058172046457,0.1466185004542844,-0.2012880518266931,0.05818057845659323,0.3018075885255271
1773063068939179776,3.244722843170166,3.8807995319366455,-0.5780185461044312,0.43902528285980225,0.05299031361937523,0.16391338407993317,-0.9850504994392395,-0.2897151708602905,0.31312212347984314,0.338550865650177,0.9850635270538955,-0.08531573701523631,0.013999642453019778,0.1489129599771141,-0.16465639725071765,0.05374271374966081,0.3045054305480046
1773063068949218048,3.254760980606079,4.5165324211120605,-0.7332935929298401,0.3225007951259613,0.04704635217785835,0.12216091901063919,-0.9913946390151978,-0.28120774030685425,0.4048471450805664,0.34440678358078003,0.9863941248931768,-0.06407107407454884,0.014056067055981817,0.1507443775485147,-0.12246681512273565,0.04741914295489398,0.3062084667590364
1773063068959255040,3.2647979259490967,5.241140842437744,-0.9686379432678223,0.20651081204414368,0.03880619630217552,0.07335194945335388,-0.9965508580207825,-0.2759582996368408,0.4682435095310211,0.33425837755203247,0.98752059579992,-0.03923358488285286,0.013612757511894532,0.15191627933361243,-0.07341788552768252,0.038920844686028036,0.3067085239217737
1773063068969292800,3.2748358249664307,5.930479526519775,-1.1380012035369873,0.13257984817028046,0.028263669461011887,0.01722218655049801,-0.9994521141052246,-0.250950425863266,0.5043232440948486,0.3522811532020569,0.9881635417960553,-0.01066731636612038,0.012654765864261213,0.15250853803948983,-0.017223038035618567,0.02827162868031548,0.30649777768559544
1773063068979330048,3.2848730087280273,6.349222660064697,-1.1956713199615479,0.10536954551935196,0.016433482989668846,-0.04458705335855484,-0.998870313167572,-0.2157132625579834,0.5025643706321716,0.4183650016784668,0.9879911069392753,0.020783078544228593,0.011528177546808736,0.15267205426788272,0.04460184109880917,0.016450584493643155,0.3062632897305413
1773063068989367040,3.294909954071045,6.534346103668213,-1.2237130403518677,0.12883372604846954,0.004297632724046707,-0.10917696356773376,-0.9940130114555359,-0.1691383272409439,0.48507723212242126,0.49511170387268066,0.986763517600595,0.053698634611140286,0.010485101079760896,0.1526574925014282,0.10939502846374842,0.004323490419070434,0.30674018533474573
1773063068999404800,3.304947853088379,6.500784873962402,-1.3621009588241577,0.22074687480926514,-0.008738466538488865,-0.17404389381408691,-0.9846991300582886,-0.10838799178600311,0.4380209445953369,0.5299872159957886,0.9843917278516093,0.08699649506280827,0.009058019924472421,0.15271733919467,0.17493475992138038,-0.008874017581574651,0.30860186500695125
