time,seconds_elapsed,rotationRateX,rotationRateY,rotationRateZ,gravityX,gravityY,gravityZ,accelerationX,accelerationY,accelerationZ,quaternionW,quaternionX,quaternionY,quaternionZ,pitch,roll,yaw
1773064425726388480,0.04756951332092285,-0.13242068886756897,-0.11764029413461685,-0.03398142009973526,-0.3366200029850006,0.6365491151809692,0.6938964128494263,0.01638379693031311,-0.007093548774719238,-0.01718437671661377,-0.377996412287507,0.8969546852358264,0.20596234720261608,0.10084898875290231,-0.6900154749433081,-2.689923266290789,-2.525405322247047
1773064425736425728,0.05760669708251953,-0.08216257393360138,-0.13137954473495483,-0.00032146251760423183,-0.3358899652957916,0.6357215046882629,0.6950081586837769,0.02822697162628174,-0.010294198989868164,-0.03727799654006958,-0.3773723781450738,0.897194026489943,0.2062691297124527,0.10042945699426593,-0.6889428364257834,-2.691402799865113,-2.5257034835424825
1773064425746463488,0.06764459609985352,-0.053173668682575226,-0.12151399254798889,0.06790140271186829,-0.3347802460193634,0.6353844404220581,0.69585120677948,0.023516207933425903,-0.010598063468933105,-0.05446326732635498,-0.37696366762115524,0.8974202449246156,0.20630684049446538,0.0998639553044162,-0.6885062446721433,-2.693171789409622,-2.526508695090251
1773064425756501760,0.0776827335357666,-0.02997327595949173,-0.111298106610775,0.06134176626801491,-0.333530068397522,0.6353338956832886,0.6964974403381348,0.0021702051162719727,-0.006168246269226074,-0.054224491119384766,-0.3766962857716024,0.8976260990870042,0.20619436742369224,0.09925333797142777,-0.688440792776186,-2.694993424449595,-2.5275459486884255
1773064425766539520,0.08772063255310059,-0.00773463724181056,-0.11136095970869064,0.0014909518649801612,-0.3325512409210205,0.6353083848953247,0.6969885230064392,-0.027952909469604492,-0.010048985481262207,-0.041455626487731934,-0.3765111853065292,0.8977521479178199,0.2062409797030617,0.09871720468857897,-0.6884077826975986,-2.696411248944641,-2.5280478368847232
1773064425776577792,0.09775876998901367,0.010022787377238274,-0.11577542126178741,-0.0233645960688591,-0.33184412121772766,0.635262668132782,0.6973667740821838,-0.040867000818252563,-0.012551605701446533,-0.033701181411743164,-0.37638793100184864,0.8977916951869432,0.20652715091441345,0.09822738202015811,-0.6883485940031732,-2.6974485367732846,-2.527864736029862
1773064425786615552,0.10779666900634766,0.017446216195821762,-0.11745759844779968,-0.000651161652058363,-0.3311064839363098,0.6353254318237305,0.6976602077484131,-0.026437371969223022,-0.010279715061187744,-0.024518847465515137,-0.37632903766211334,0.897805453131109,0.2068223497911524,0.09770489480275724,-0.6884298323524117,-2.698474311302223,-2.5276102955689566
1773064425796653568,0.11783456802368164,0.0048428066074848175,-0.10398440062999725,0.029222847893834114,-0.3302328288555145,0.6354560256004333,0.6979552507400513,-0.0055214762687683105,-0.0087319016456604,-0.01272892951965332,-0.3762731423862948,0.8978533221335762,0.20697109172148567,0.09716370642240414,-0.6885989777809198,-2.699660315636881,-2.5277201734886234
1773064425806691584,0.12787270545959473,-0.030645234510302544,-0.07697729021310806,0.03376460075378418,-0.3293786942958832,0.6354855298995972,0.6983324885368347,-0.005078732967376709,-0.014239132404327393,-0.003691256046295166,-0.37614173721738353,0.8979554544004338,0.2069836783504676,0.09670206988312545,-0.6886372148745565,-2.700869229295459,-2.528186310524836
1773064425816729600,0.1379106044769287,-0.06811670958995819,-0.05844435095787048,0.03317897394299507,-0.3286972641944885,0.6352562308311462,0.6988617181777954,-0.019020020961761475,-0.023516058921813965,0.00719296932220459,-0.37587101520840605,0.8981122180268937,0.20694276529562278,0.09638533669892525,-0.6883402184334702,-2.701959592702893,-2.5288315049827497
1773064425826767616,0.1479487419128418,-0.10444959253072739,-0.07181315124034882,0.04201853647828102,-0.3280234932899475,0.6347607970237732,0.6996281147003174,-0.022119969129562378,-0.029444575309753418,0.009188473224639893,-0.37542782808306646,0.8983460933841595,0.20685346597563983,0.09612465234309989,-0.6876989337441064,-2.7031707568079657,-2.5297472878179974
1773064425836805632,0.15798664093017578,-0.11289448291063309,-0.08723311871290207,0.05054305121302605,-0.3271859884262085,0.6341108083724976,0.7006092071533203,-0.004173964262008667,-0.028458774089813232,0.005994975566864014,-0.37485582490475794,0.8986449180752814,0.20674120802809232,0.0958051955277041,-0.686858014449283,-2.7046900659157194,-2.530906642975576
1773064425846843648,0.16802477836608887,-0.05360173061490059,-0.10938329994678497,0.055248189717531204,-0.32616281509399414,0.6336660981178284,0.70148766040802,0.012915164232254028,-0.020140767097473145,-0.004985034465789795,-0.3743829050787651,0.8989135504380812,0.20663554242087098,0.09536022387043724,-0.6862830510885163,-2.7063688868354685,-2.532028755638037
1773064425856881664,0.17806267738342285,0.07128241658210754,-0.15140531957149506,0.042925477027893066,-0.3249412178993225,0.6338725686073303,0.7018678188323975,0.018972039222717285,-0.004951179027557373,-0.03504359722137451,-0.37430196824376544,0.8990136431477279,0.20666005840970658,0.09467858789582893,-0.6865499827349307,-2.70800833981948,-2.5325701147525383
1773064425866918656,0.18809962272644043,0.20154596865177155,-0.18715424835681915,0.024696938693523407,-0.32351988554000854,0.6349387168884277,0.7015610337257385,0.021502673625946045,0.010645389556884766,-0.05780792236328125,-0.3747527828837226,0.89887429817488,0.206894898692465,0.09370109892663805,-0.6879292108148243,-2.7095110002896123,-2.5322265054023627
1773064425876956672,0.19813776016235352,0.2931171655654907,-0.19723618030548096,0.007007690146565437,-0.3220703601837158,0.63675457239151,0.7005813717842102,0.024661332368850708,0.020090460777282715,-0.0647476315498352,-0.3756929246086223,0.8985059814102526,0.2073105884983849,0.09254258136944994,-0.6902818931008858,-2.7106860893985782,-2.5310294436371805
1773064425886994688,0.2081756591796875,0.30082231760025024,-0.20277902483940125,0.016678426414728165,-0.32059556245803833,0.638933539390564,0.6992728114128113,0.02629929780960083,0.01467663049697876,-0.036919236183166504,-0.3768660438495856,0.8980316631882374,0.20778722182531068,0.09129948674896152,-0.6931111332475778,-2.7117174888927007,-2.5294829762175755
1773064425897032448,0.21821355819702148,0.19841285049915314,-0.18059596419334412,0.047604650259017944,-0.31905487179756165,0.6408078074455261,0.6982616782188416,0.022042542695999146,-0.007659614086151123,-0.003818988800048828,-0.37782125398672534,0.8976706620250313,0.208130317993548,0.09011253281762831,-0.6955500494699771,-2.712992891025325,-2.528463759715263
1773064425907070720,0.22825169563293457,0.04768224060535431,-0.154679536819458,0.06727196276187897,-0.3174833655357361,0.6418708562850952,0.698001503944397,0.01087331771850586,-0.030298590660095215,0.030773460865020752,-0.37823115500469456,0.8975747397561771,0.20823148505013933,0.08910907520580268,-0.696935531127531,-2.7147158970414376,-2.5285150969950756
1773064425917108480,0.23828959465026855,-0.08436927199363708,-0.11613054573535919,0.045290231704711914,-0.3161734938621521,0.6419019103050232,0.6985671520233154,-0.008792877197265625,-0.04206365346908569,0.052867114543914795,-0.37801959654986905,0.8977345470197835,0.20822162619332565,0.08841689183980549,-0.6969760288229642,-2.716576263038067,-2.5293075555909366
1773064425927146752,0.24832773208618164,-0.16814370453357697,-0.08932530134916306,0.022306617349386215,-0.31525707244873047,0.6410902738571167,0.6997257471084595,-0.034092873334884644,-0.041694581508636475,0.04916030168533325,-0.37734147779908456,0.8980599368110973,0.20820958409284596,0.08803690598213709,-0.6959180382582534,-2.718286646080876,-2.530394535650155
1773064425937184512,0.2583656311035156,-0.17908130586147308,-0.07848011702299118,0.0201670341193676,-0.31455397605895996,0.6398795247077942,0.7011492848396301,-0.042059242725372314,-0.02789515256881714,0.040809452533721924,-0.37644827483177096,0.8984590465590554,0.20819696802044751,0.08781879912363938,-0.6943414523477758,-2.719881726802379,-2.5315977320187004
1773064425947222784,0.2684037685394287,-0.10413067787885666,-0.08524121344089508,0.029247215017676353,-0.3138188421726227,0.6389292478561401,0.7023444175720215,-0.021783053874969482,-0.002790212631225586,0.022585570812225342,-0.37571569826984075,0.8987954876139074,0.2081798894093543,0.08755381092178913,-0.6931055645559573,-2.721389537336896,-2.5326618013959736
1773064425957260544,0.2784416675567627,-0.001921223010867834,-0.0922277495265007,0.03227602690458298,-0.3130020499229431,0.6386439204216003,0.7029674053192139,0.0035691261291503906,0.021481633186340332,-0.003306269645690918,-0.37539273469248086,0.8989688966572361,0.20817932155120034,0.08715764699361249,-0.6927347253770004,-2.722688963849626,-2.5333238278819206
1773064425967298560,0.2884795665740967,0.10034078359603882,-0.09551648050546646,0.016421165317296982,-0.3121664226055145,0.6390689611434937,0.7029533386230469,0.012727916240692139,0.03912323713302612,-0.0172385573387146,-0.3755247447693136,0.8989453416064894,0.20826410211198337,0.0866291730733416,-0.6932871578665416,-2.723673981508113,-2.5333711919113973
1773064425977336576,0.29851770401000977,0.17925025522708893,-0.09047352522611618,-0.009571285918354988,-0.3115001618862152,0.6400634050369263,0.7023436427116394,0.00037342309951782227,0.049588143825531006,-0.014706313610076904,-0.37606126507899235,0.8987221495970839,0.20849537256078318,0.08605890685317426,-0.6945807924630224,-2.7241444676407642,-2.532642047779407
1773064425987374592,0.30855560302734375,0.2365962713956833,-0.0722590982913971,-0.02781154215335846,-0.31103354692459106,0.6414812803268433,0.701256275177002,-0.015474081039428711,0.047865211963653564,-0.014152824878692627,-0.3769107558729036,0.8983431273307708,0.20882469222904587,0.08550018893186292,-0.6964276169136766,-2.724125788284555,-2.531313696929057
1773064425997412608,0.31859374046325684,0.2456323802471161,-0.052341852337121964,-0.031272854655981064,-0.31078654527664185,0.6430960893630981,0.6998851895332336,-0.020756453275680542,0.035294413566589355,-0.008448362350463867,-0.3779281964727364,0.8978760889231685,0.2091915661205658,0.08501604779187805,-0.6985344763588944,-2.7236947363849784,-2.529643643433034
1773064426007450624,0.3286316394805908,0.17854447662830353,-0.0239444300532341,-0.02513866126537323,-0.31071737408638,0.6445243954658508,0.6986010074615479,-0.016675233840942383,0.015998125076293945,0.0019300580024719238,-0.37885219590365354,0.8974505065003857,0.20948294577294108,0.08467944924742438,-0.7004010681473056,-2.7230957888491876,-2.528145234777211
1773064426017487616,0.3386685848236084,0.04416295886039734,0.004175886511802673,-0.015567261725664139,-0.31078577041625977,0.6452565789222717,0.6978939771652222,-0.009389370679855347,-0.002602219581604004,0.014065802097320557,-0.37934477221297985,0.897218279701084,0.20963383718274542,0.08456067424383787,-0.7013590760379628,-2.7226378806118894,-2.527308319259994
1773064426027525632,0.3487067222595215,-0.13046760857105255,0.02841731160879135,-0.005651512648910284,-0.31098172068595886,0.6449263691902161,0.6981117129325867,-0.002433687448501587,-0.019499242305755615,0.03472203016281128,-0.3791695723494963,0.8972772548775174,0.20964107185750233,0.08470218876966233,-0.7009269106185119,-2.722519542202123,-2.527380689462888
1773064426037563648,0.35874462127685547,-0.28901997208595276,0.02942664921283722,0.014985855668783188,-0.31117141246795654,0.6434500813484192,0.6993889212608337,0.008681118488311768,-0.04110920429229736,0.04170018434524536,-0.37824717449792905,0.897672636883903,0.20947145340025491,0.08505742627746277,-0.6989967975580755,-2.7229721076459943,-2.528568152001017
1773064426047601664,0.36878275871276855,-0.38800665736198425,0.022310947999358177,0.03636198118329048,-0.31119245290756226,0.641117513179779,0.7015182971954346,0.02072608470916748,-0.047504723072052,0.032276928424835205,-0.37673978622465754,0.8983374739277492,0.20916242575606148,0.08548726351806879,-0.6959535018700801,-2.7240749703267024,-2.530691416939581
1773064426057639680,0.37882065773010254,-0.41489046812057495,0.009426042437553406,0.044994886964559555,-0.311029851436615,0.6383824348449707,0.7040793299674988,0.023935824632644653,-0.02584904432296753,0.010107994079589844,-0.37494088297693556,0.8991419237372369,0.20876655880471173,0.0859039063026845,-0.6923948944232786,-2.7256172568795045,-2.5333472616598676
1773064426067677440,0.3888585567474365,-0.34101924300193787,-0.013637730851769447,0.03413344919681549,-0.31075596809387207,0.6357911229133606,0.7065408825874329,0.026316910982131958,0.009792923927307129,-0.016004502773284912,-0.37322360357227513,0.8999048871824833,0.2084265736224632,0.08621829795561461,-0.6890330402247677,-2.727230477363892,-2.5358358102641736
1773064426077715712,0.3988966941833496,-0.2024696320295334,-0.03303379938006401,-0.0008801936637610197,-0.3104759454727173,0.6339145302772522,0.7083479762077332,0.02463310956954956,0.04070699214935303,-0.03860926628112793,-0.37197829023235857,0.9004406602079937,0.20828010632147553,0.0863602618984926,-0.6866041812244491,-2.7285026173939175,-2.5374511056150215
1773064426087753472,0.4089345932006836,-0.07541173696517944,-0.03959875926375389,-0.022823842242360115,-0.3102782964706421,0.6328964233398438,0.7093443870544434,0.01788938045501709,0.05646514892578125,-0.05385732650756836,-0.37130977451450864,0.9007021256128345,0.20834553481897097,0.08635309417411992,-0.6852885491776707,-2.729253044923459,-2.5380276753635984
1773064426097791744,0.4189727306365967,0.0033669713884592056,-0.02671784721314907,-0.02519591897726059,-0.31020236015319824,0.6325989365577698,0.7096428871154785,0.013479948043823242,0.05468738079071045,-0.04751831293106079,-0.3711242745778599,0.9007495932085958,0.20849849029044779,0.08628627066902955,-0.6849043873626485,-2.7294973696087546,-2.5379089330683247
1773064426107829504,0.42901062965393066,-0.018493719398975372,-0.009400509297847748,-0.024337181821465492,-0.31022199988365173,0.6324992179870605,0.7097234129905701,0.015895187854766846,0.02910667657852173,-0.02173513174057007,-0.3710791790626424,0.9007374714959707,0.20864736625756367,0.08624745092266657,-0.6847756258598688,-2.7295157556319123,-2.5376263166873763
1773064426117867776,0.43904876708984375,-0.11687541753053665,-0.0027127789799124002,-0.025384603068232536,-0.3103725016117096,0.6319612860679626,0.7101368308067322,0.02013501524925232,-0.007144331932067871,0.008002936840057373,-0.37077574269036573,0.9008308152651465,0.20873967356678477,0.08635433291430046,-0.6840812906613445,-2.729551458381205,-2.537653230508503
1773064426127905536,0.44908666610717773,-0.23364943265914917,0.007264754269272089,-0.0069035980850458145,-0.31051355600357056,0.630656898021698,0.7112337350845337,0.02630332112312317,-0.03579294681549072,0.032784879207611084,-0.3699800122576838,0.9011370461741113,0.20873162644393506,0.08659088027788159,-0.6823993485034665,-2.729950967065366,-2.5383605992371208
1773064426137943552,0.4591245651245117,-0.3272414207458496,0.003818623721599579,0.010096690617501736,-0.3105599880218506,0.6286427974700928,0.7129942178726196,0.042600393295288086,-0.04061484336853027,0.02667558193206787,-0.36871121552370684,0.9016586154415385,0.20858777579429522,0.08691908754476192,-0.6798067802605965,-2.730802005712263,-2.5398360237391238
1773064426147981568,0.4691627025604248,-0.3565746247768402,-0.011907609179615974,0.019523482769727707,-0.310429185628891,0.6262048482894897,0.7151931524276733,0.05437144637107849,-0.025237441062927246,0.01324617862701416,-0.36714300006544204,0.9023171837520979,0.20837529070319002,0.08723214025499576,-0.6766759066686997,-2.7320820834972817,-2.541800556397043
1773064426158019584,0.4792006015777588,-0.3190493583679199,-0.028820013627409935,0.01387917809188366,-0.31017136573791504,0.6238037347793579,0.7173998355865479,0.057592689990997314,-0.0046936869621276855,-0.003395378589630127,-0.3655819836813759,0.9029723819194423,0.20818448842125659,0.08746357408747628,-0.6736000452615057,-2.7335088014994255,-2.543751918389221
1773064426168056576,0.48923754692077637,-0.2693740725517273,-0.0410471186041832,0.012424559332430363,-0.3098416328430176,0.6217224597930908,0.7193465828895569,0.0554928183555603,0.015087902545928955,-0.018449366092681885,-0.3642179711189953,0.9035395685342739,0.20806140989728883,0.08759008287108193,-0.6709399486003002,-2.7348816539676886,-2.545396451539044
1773064426178094592,0.49927568435668945,-0.22343425452709198,-0.057308379560709,0.01808830350637436,-0.30940118432044983,0.6200039982795715,0.7210173010826111,0.05219903588294983,0.026541411876678467,-0.02382802963256836,-0.3630667101290155,0.9040224603961585,0.2079712675568732,0.08760085873046682,-0.6687477986623236,-2.7362395892437315,-2.5468128884851082
1773064426188132608,0.5093135833740234,-0.21365101635456085,-0.08535692095756531,0.01969645358622074,-0.3087688684463501,0.6184900999069214,0.7225868701934814,0.05516776442527771,0.020258069038391113,-0.013999223709106445,-0.3620168501764739,0.9044659560325145,0.2079296976070355,0.0874663909589483,-0.666819763335029,-2.7377667304252635,-2.5481044883781503
1773064426198170624,0.5193517208099365,-0.2282310128211975,-0.1145923063158989,0.020548664033412933,-0.3079242408275604,0.6169490218162537,0.7242628931999207,0.06608766317367554,0.015161633491516113,-0.010548293590545654,-0.3609191217992019,0.9049322442769162,0.20791605350057085,0.08721231737093875,-0.664860078480312,-2.739590446356513,-2.5494577208508495
1773064426208208640,0.5293896198272705,-0.2099984735250473,-0.17605194449424744,0.015670819208025932,-0.3067675828933716,0.6153813600540161,0.7260851860046387,0.0889788568019867,0.022100448608398438,-0.010356366634368896,-0.35976326063591607,0.9054188832197808,0.20798855246841658,0.08676332795381872,-0.6628696699998039,-2.7418454058309454,-2.5507958169219775
1773064426218246656,0.5394277572631836,-0.12261271476745605,-0.2397363781929016,0.0056485459208488464,-0.30517593026161194,0.6141809225082397,0.7277699112892151,0.11535665392875671,0.0459752082824707,-0.022127389907836914,-0.3587805837947448,0.9058271408955577,0.20823580219667515,0.08597335244244836,-0.661347641010447,-2.7445341476519935,-2.551772938951549
1773064426228284672,0.5494656562805176,0.03246178478002548,-0.2638820707798004,0.028701001778244972,-0.30322328209877014,0.613861083984375,0.728855550289154,0.13702452182769775,0.08041387796401978,-0.04050105810165405,-0.3582946373360691,0.9060389559349598,0.20861734970954232,0.0848364938100396,-0.6609424012430709,-2.7473470582152704,-2.5521649729841855
1773064426238322432,0.5595035552978516,0.30415186285972595,-0.3061765134334564,0.09538576006889343,-0.30085432529449463,0.6152241230010986,0.7286880016326904,0.15845927596092224,0.13044244050979614,-0.052403151988983154,-0.35876319350386426,0.9059382295818549,0.20885383342602284,0.08333691959678886,-0.662670217129196,-2.75003983395264,-2.552195167000359
1773064426248360704,0.5695416927337646,0.538760781288147,-0.384326308965683,0.010554887354373932,-0.297879159450531,0.6185446381568909,0.7270973324775696,0.1917542815208435,0.17515653371810913,-0.08000266551971436,-0.36036745487498445,0.905372812025795,0.2094009009788057,0.08115806915130282,-0.6668891649922004,-2.7527671377890695,-2.5508193989842853
1773064426258398464,0.5795795917510986,0.6377155780792236,-0.43432316184043884,-0.06704109907150269,-0.2951452434062958,0.6227872371673584,0.7245867252349854,0.211862713098526,0.12136876583099365,-0.061409056186676025,-0.36263509393591703,0.9044183429713615,0.21052507980834995,0.07875652139681917,-0.6723001058871327,-2.7547840950671594,-2.5475370162690383
1773064426268436736,0.5896177291870117,0.6125142574310303,-0.539654552936554,-0.022537684068083763,-0.29194676876068115,0.6272228956222534,0.7220515012741089,0.2568668723106384,0.04510980844497681,-0.021688401699066162,-0.364968062995181,0.9033963678059902,0.2118979510279477,0.07597706398811613,-0.6779823512514515,-2.7573594541454156,-2.543849591826921
1773064426278474496,0.5996556282043457,0.5050677061080933,-0.6390788555145264,0.10790608078241348,-0.2874186933040619,0.6314151883125305,0.7202122807502747,0.3234751522541046,-0.021475613117218018,-0.007291018962860107,-0.36690458403471093,0.9026268560301218,0.2130044506393191,0.07262916233479134,-0.6833768658444658,-2.7618839802150057,-2.541633676584094
1773064426288512768,0.6096937656402588,0.375644713640213,-0.764485776424408,0.20635195076465607,-0.2813425064086914,0.635050892829895,0.7194141745567322,0.3683634102344513,-0.0629836916923523,-0.004722952842712402,-0.36820312278465905,0.9022383944418485,0.21371234444874393,0.06869770514574226,-0.68807440222047,-2.7688067079117684,-2.541500354961309
1773064426298550528,0.6197316646575928,0.3132399320602417,-0.9320401549339294,0.24185322225093842,-0.2737617492675781,0.6381178498268127,0.7196253538131714,0.38292303681373596,-0.06811034679412842,-0.02205437421798706,-0.368893185872768,0.9021417551563821,0.2143663294396202,0.0640726298743395,-0.6920512539271528,-2.7780764148598736,-2.542679224639489
1773064426308588544,0.6297695636749268,0.462943971157074,-1.075872540473938,0.24233831465244293,-0.2648978531360626,0.641476571559906,0.7199559211730957,0.3874412477016449,-0.04641443490982056,-0.07530272006988525,-0.3695707909578722,0.902023818609282,0.21524634802331127,0.05864608408661361,-0.6964215271946821,-2.789029226907408,-2.5439578611254254
1773064426318625792,0.6398067474365234,0.7217108011245728,-1.2255208492279053,0.2626081705093384,-0.25497958064079285,0.6464033126831055,0.7191302180290222,0.39011138677597046,-0.01885509490966797,-0.12969839572906494,-0.37107313996463304,0.901517101635091,0.21640705701866295,0.05234170001226929,-0.7028610990375601,-2.800855377596846,-2.5444250995770714
1773064426328663552,0.6498446464538574,1.0456117391586304,-1.3749526739120483,0.30718135833740234,-0.24374058842658997,0.6534399390220642,0.7166634202003479,0.39884623885154724,0.015779852867126465,-0.15106600522994995,-0.37369284632527283,0.9005043216825441,0.21776975427856338,0.04496512963176853,-0.712119898992417,-2.8137603044513524,-2.544168188539769
1773064426338701824,0.6598827838897705,1.3637765645980835,-1.502986192703247,0.34838685393333435,-0.2312338650226593,0.6628791689872742,0.712125301361084,0.40017908811569214,0.02677243947982788,-0.16087085008621216,-0.3776509899501969,0.8987555340632831,0.21977518972688428,0.03629309018205798,-0.7246577003962733,-2.8276234975638643,-2.5420816970336175
1773064426348739584,0.6699206829071045,1.5552978515625,-1.6240090131759644,0.3827695846557617,-0.21764647960662842,0.6741735935211182,0.7057762742042542,0.38816341757774353,0.014852344989776611,-0.13177114725112915,-0.38260592174740815,0.8966017740371915,0.22134451898137383,0.026918881166109576,-0.739845219183681,-2.8424666713034874,-2.5407972584334804
1773064426358777600,0.6799585819244385,1.6606889963150024,-1.7460235357284546,0.4007781445980072,-0.2030676156282425,0.6863447427749634,0.6983513832092285,0.3797491192817688,0.009532392024993896,-0.08052301406860352,-0.38799836979827124,0.8941143546647808,0.2230139297331331,0.016781706882555158,-0.7564510637379523,-2.8586145747687794,-2.5396400479920844
1773064426368815616,0.6899967193603516,1.7903614044189453,-1.8515126705169678,0.40905967354774475,-0.1876988708972931,0.6991481781005859,0.6898993253707886,0.3659062683582306,-0.009511947631835938,-0.044864535331726074,-0.39371897614308204,0.8912909512214758,0.22483352727601108,0.005978083598095398,-0.7742053982118098,-2.8759552289010517,-2.5385642069574894
1773064426378853632,0.7000346183776855,1.935096025466919,-1.8529858589172363,0.31279438734054565,-0.1722584366798401,0.7126860618591309,0.6800041198730469,0.3493519425392151,-0.04403066635131836,-0.05501943826675415,-0.3999636207415834,0.8879894320492169,0.22688508668655127,-0.005198897052884849,-0.7933198882153406,-2.8934920385087133,-2.5369264842965724
1773064426388891648,0.7100727558135986,1.9753564596176147,-1.9170892238616943,0.258484810590744,-0.15762685239315033,0.7263345122337341,0.6690232753753662,0.31645554304122925,-0.06726157665252686,-0.07454079389572144,-0.40647625350110383,0.8842594841461164,0.2293399128193602,-0.016293637782307042,-0.8129739865677122,-2.9102051332908947,-2.534092427193771
1773064426398929664,0.7201106548309326,2.216036558151245,-2.0643956661224365,0.335485577583313,-0.14213567972183228,0.7406238317489624,0.656714677810669,0.3258819878101349,-0.10181456804275513,-0.10674208402633667,-0.4133388639616514,0.8800956334992279,0.23192458644564237,-0.028173760108495687,-0.8339983189519731,-2.9284458204589128,-2.531556665867288
1773064426408967424,0.7301485538482666,2.500845193862915,-2.129364013671875,0.4695761501789093,-0.12546898424625397,0.7565684914588928,0.6417648196220398,0.3413808345794678,-0.16568702459335327,-0.18952471017837524,-0.42123175606245916,0.8752501059858208,0.23413598251681023,-0.041006585080855786,-0.8580494535379956,-2.9485217860250046,-2.5302822124304023
1773064426419005696,0.7401866912841797,2.6021780967712402,-2.202033042907715,0.5742942690849304,-0.10762026160955429,0.7734994292259216,0.624593198299408,0.3145904541015625,-0.18362510204315186,-0.2009175419807434,-0.42978437021310884,0.8698676421528204,0.23585350950370051,-0.054670411779518945,-0.8843441068892385,-2.9709635149428166,-2.5311152530176533
1773064426429043456,0.7502245903015137,2.4997317790985107,-2.225281238555908,0.5835146903991699,-0.08935491740703583,0.789950966835022,0.6066242456436157,0.280456006526947,-0.15686392784118652,-0.136302649974823,-0.43815368272280547,0.8642835293486726,0.23733119387466256,-0.06862340221421809,-0.9107290326788213,-2.9953456693295,-2.5338936396183462
1773064426439081728,0.7602627277374268,2.1813511848449707,-2.2550811767578125,0.5181683897972107,-0.07147073745727539,0.80450040102005,0.5896363854408264,0.2250656932592392,-0.13286948204040527,0.010262906551361084,-0.44542149794649405,0.8588874139976213,0.23902011409438817,-0.08234994338039334,-0.9348338814339273,-3.0209695621026897,-2.537811300720847
1773064426449119488,0.7703006267547607,1.8409727811813354,-2.2436153888702393,0.4517452120780945,-0.054346963763237,0.8165397644042969,0.5747251510620117,0.1753186732530594,-0.10564815998077393,0.1005677580833435,-0.45111706055078116,0.853946645267876,0.24111761867023787,-0.09555490455269865,-0.9553913810430111,-3.0473113493246866,-2.5423724390685907
1773064426459157760,0.7803387641906738,1.550657868385315,-2.184014081954956,0.4284665286540985,-0.0381028950214386,0.8264079689979553,0.5617812275886536,0.1410844624042511,-0.08284717798233032,0.12465071678161621,-0.4554442925459186,0.8494953681941754,0.2434095853557151,-0.1080736436387785,-0.9726981210842753,-3.0738712246601594,-2.547662684917214
1773064426469195520,0.7903766632080078,1.282295823097229,-2.147599935531616,0.43050169944763184,-0.02240793965756893,0.8344069123268127,0.5506934523582458,0.1312183439731598,-0.0665387511253357,0.1220361590385437,-0.45852956833617015,0.8455491299414829,0.2457506683600812,-0.12001665531898079,-0.9870557942925696,-3.100924684339464,-2.5540182124747015
1773064426479232512,0.8004136085510254,1.0902470350265503,-2.0432443618774414,0.3832670748233795,-0.007405347656458616,0.840956449508667,0.5410521030426025,0.1411639004945755,-0.07395821809768677,0.11992806196212769,-0.46067798592293246,0.8420074401431842,0.24809176237374353,-0.13133819767045649,-0.9990483647965571,-3.1279065683056566,-2.5610541074389324
1773064426489270784,0.8104517459869385,0.7283107042312622,-1.9242397546768188,0.30539998412132263,0.006158172152936459,0.8459581136703491,0.53321373462677,0.13425321877002716,-0.1003527045249939,0.16830909252166748,-0.4618774244854199,0.8389305039230345,0.25060422149972356,-0.1416416710876813,-1.0083593769729382,3.130044004203836,-2.567402828531002
1773064426499308544,0.8204896450042725,0.2212778627872467,-1.8411415815353394,0.25261053442955017,0.018587952479720116,0.8484717607498169,0.528913676738739,0.11863435059785843,-0.08097010850906372,0.26432955265045166,-0.461297883393266,0.8367934738199273,0.2534433254859747,-0.15082197653784837,-1.0130909719270258,3.10646347050328,-2.5729011335338257
1773064426509346816,0.8305277824401855,-0.18278732895851135,-1.744175910949707,0.17469069361686707,0.029926028102636337,0.8484508395195007,0.5284271836280823,0.08103589713573456,-0.03877389430999756,0.28152453899383545,-0.4588639796096878,0.8356655162030794,0.256664628656517,-0.15884006730443337,-1.013051481416495,3.0850208160594588,-2.5769998063573665
1773064426519384576,0.8405656814575195,-0.31996646523475647,-1.6319950819015503,0.07472255080938339,0.03995787352323532,0.8469634056091309,0.5301474332809448,0.010960713028907776,-0.01835012435913086,0.18599331378936768,-0.45543192255647663,0.8350735148652881,0.26024207884988243,-0.16585544222064133,-1.0102474033914972,3.066363644349789,-2.5790040748229246
1773064426529422592,0.8506035804748535,-0.2876936197280884,-1.5359705686569214,-0.03533137962222099,0.048618439584970474,0.845321774482727,0.532041072845459,-0.03168119490146637,-0.010650634765625,0.07313781976699829,-0.4520423863618113,0.834455625904655,0.26401578287155053,-0.1721548044114002,-1.0071672038240653,3.0504647493535417,-2.5789703932213284
1773064426539460608,0.8606417179107666,-0.19899731874465942,-1.4626045227050781,-0.1328134685754776,0.05592771992087364,0.8440443277359009,0.5333490371704102,-0.042759381234645844,0.0025132298469543457,-0.008996009826660156,-0.44907926636307993,0.8335847799869675,0.26797560646192486,-0.1779136950841815,-1.0047806278353055,3.0371130974933505,-2.576952835345838
1773064426549498624,0.8706796169281006,-0.04528707265853882,-1.4014430046081543,-0.19460798799991608,0.062200877815485,0.8434675335884094,0.5335664749145508,-0.015905700623989105,0.012504637241363525,-0.07960236072540283,-0.4467606431898653,0.8323449511472556,0.2720020714170037,-0.18336178840352266,-1.0037058919876702,3.0255407914475785,-2.573621202354263
1773064426559536640,0.8807177543640137,0.2028561681509018,-1.354296326637268,-0.2100071907043457,0.06785592436790466,0.8439890146255493,0.5320509076118469,0.029968172311782837,-0.002085268497467041,-0.1173170804977417,-0.44535737406645004,0.8306146770397436,0.27587082498678156,-0.1887627010492986,-1.0046774116547534,3.014740935357251,-2.570011404120426
1773064426569574656,0.8907556533813477,0.5050724148750305,-1.3127472400665283,-0.19731774926185608,0.07322843372821808,0.846035897731781,0.5280724167823792,0.07186739146709442,-0.04391205310821533,-0.12884151935577393,-0.4451844288413937,0.8282512992025098,0.27934921300422366,-0.1943566342811025,-1.0085052663753267,3.0038002103154966,-2.5671259427793243
1773064426579612416,0.9007935523986816,0.8153383731842041,-1.2684324979782104,-0.16076187789440155,0.07852964103221893,0.8496381044387817,0.5214866399765015,0.08686037361621857,-0.06904423236846924,-0.09709393978118896,-0.4462682646836284,0.8252481472877279,0.28232748950863307,-0.20025324460984525,-1.015298690398758,2.992127672665949,-2.565582287721716
1773064426589650688,0.9108316898345947,1.1780701875686646,-1.1992307901382446,-0.14232879877090454,0.08365774154663086,0.8549180626869202,0.5119730234146118,0.06648873537778854,-0.06747305393218994,-0.07293194532394409,-0.4487728959950252,0.8215410466267603,0.2847048049332522,-0.20643724588621817,-1.0253928682682558,2.979621462722992,-2.5657077193555793
1773064426599688448,0.9208695888519287,1.5102183818817139,-1.13899564743042,-0.16208119690418243,0.0883118063211441,0.8618899583816528,0.4993464946746826,0.0194915309548378,-0.03979206085205078,-0.05235546827316284,-0.4527968367791952,0.8170469720787212,0.28654405589134474,-0.21284228669548846,-1.0389849675978973,2.9665479060831217,-2.5672620469792116
1773064426609726720,0.9309077262878418,1.8312615156173706,-1.033800721168518,-0.2043510377407074,0.09213592857122421,0.8702920079231262,0.4838421046733856,-0.027026668190956116,-0.0050879716873168945,-0.028260350227355957,-0.4582424826024156,0.8117865804004037,0.2879645692025841,-0.21930094477973866,-1.0557948604485377,2.953419949019443,-2.5697658793122593
1773064426619764480,0.9409456253051758,2.130298137664795,-0.8979493975639343,-0.23305298388004303,0.09479952603578568,0.8799549341201782,0.46550247073173523,-0.05270051956176758,0.003300189971923828,0.0008824467658996582,-0.4651480151398936,0.8057923460869193,0.2888770116232427,-0.2255796214997338,-1.0757673712739568,2.940690056422596,-2.573247548203261
1773064426629801472,0.9509825706481934,2.368818521499634,-0.7856393456459045,-0.2407660186290741,0.09655652195215225,0.890494167804718,0.4446314573287964,-0.04859814792871475,-0.014181911945343018,0.026163220405578613,-0.47328825327437,0.7991666202656691,0.2892203998047242,-0.23169495967369447,-1.0984301081891656,2.9277520874762946,-2.5783036101557966
1773064426639839744,0.9610207080841064,2.4290640354156494,-0.7094873189926147,-0.21397195756435394,0.0976937934756279,0.9012131094932556,0.42222148180007935,-0.0317147895693779,-0.055693089962005615,0.05284559726715088,-0.48185628814479453,0.7918579919511448,0.2899511461925721,-0.23812562657702455,-1.122560608323734,2.9142135778660005,-2.5829209650675575
1773064426649877504,0.9710586071014404,2.4595491886138916,-0.5594513416290283,-0.11797232925891876,0.09871933609247208,0.911489725112915,0.39930036664009094,-0.01108812540769577,-0.1328033208847046,0.09236830472946167,-0.4905771084996649,0.784541017444771,0.2900785559532507,-0.2443027979429321,-1.1468914615293566,2.89922202021446,-2.5902653169467444
1773064426659915776,0.9810967445373535,2.28817081451416,-0.5112497210502625,0.009449542500078678,0.10030751675367355,0.9208537936210632,0.37678465247154236,0.0042304545640945435,-0.23135489225387573,0.11213743686676025,-0.498945970791504,0.777524783201235,0.2895644043763008,-0.2503209603927751,-1.170264588452131,2.8814075646127795,-2.6015090042281717
1773064426669953536,0.9911346435546875,1.938672661781311,-0.4791347086429596,0.10011792182922363,0.10271306335926056,0.9286048412322998,0.3565709590911865,-0.005514584481716156,-0.30560386180877686,0.1390955150127411,-0.5061168254743155,0.7713081343723426,0.28873731950866577,-0.25604727846922337,-1.1906352007330985,2.861127638163167,-2.6158257772073226
1773064426679991808,1.0011727809906006,1.5133048295974731,-0.4359467625617981,0.03740527480840683,0.10507326573133469,0.9345624446868896,0.33993008732795715,-0.05278140306472778,-0.3496016263961792,0.16199252009391785,-0.5117360513283336,0.7661030930891848,0.28818587712448296,-0.2610767898467262,-1.2070272509810047,2.841805939694811,-2.629458069219899
1773064426690029568,1.0112106800079346,1.098615288734436,-0.42091506719589233,-0.13687679171562195,0.10607432574033737,0.9389853477478027,0.3271920084953308,-0.12354564666748047,-0.3602195978164673,0.17181620001792908,-0.5158969320655854,0.7617853967312158,0.28858103515376105,-0.2650552689164019,-1.2196683829194828,2.8280881598349805,-2.637315677430044
1773064426700067584,1.0212485790252686,0.6223299503326416,-0.43947917222976685,-0.33593687415122986,0.10525190830230713,0.9420188665390015,0.31862613558769226,-0.17368759214878082,-0.31942975521087646,0.20688652992248535,-0.5185692513054682,0.7583199891925092,0.2902823941338068,-0.2679046852630385,-1.2285968391162438,2.822547154468662,-2.636411679631803
1773064426710105600,1.0312867164611816,0.2233874499797821,-0.3217964768409729,-0.503616988658905,0.10248712450265884,0.9437922835350037,0.3142489492893219,-0.19387203454971313,-0.2379360795021057,0.3015042245388031,-0.520168914189402,0.7560890231027317,0.29232494039927853,-0.2688862083002163,-1.2339216120326917,2.826335846451932,-2.628285157009625
1773064426720143616,1.0413246154785156,-0.15902037918567657,-0.1448613852262497,-0.6176044940948486,0.097872793674469,0.9444494843482971,0.31374526023864746,-0.2125731110572815,-0.15322023630142212,0.37108445167541504,-0.5206956594322107,0.754870410222162,0.2950310143649481,-0.26833448776847607,-1.235915502744391,2.8392090614761907,-2.6121840274820336
1773064426730181632,1.0513627529144287,-0.42173466086387634,0.004974967800080776,-0.6895713806152344,0.09190360456705093,0.9441269636154175,0.3165094256401062,-0.23558035492897034,-0.07944178581237793,0.38078680634498596,-0.5203356370696594,0.754583327004915,0.2980917849786822,-0.26645113181197316,-1.2349355998211489,2.858997566191312,-2.590475828321117
1773064426740219648,1.0614006519317627,-0.5750225186347961,0.13118083775043488,-0.7761784791946411,0.08475858718156815,0.9431626796722412,0.32134169340133667,-0.26140961050987244,-0.03773653507232666,0.359154611825943,-0.5195063256590989,0.754892868660584,0.3013429996492667,-0.26351936466401094,-1.232021906943455,2.8837015366021053,-2.565050918792668
1773064426750257408,1.0714385509490967,-0.683173418045044,0.2508695721626282,-0.8947806358337402,0.0762665644288063,0.9417872428894043,0.32744482159614563,-0.2924988567829132,-0.015609323978424072,0.32598230242729187,-0.5185031095005386,0.755513239420778,0.30483135969266595,-0.2596768382688188,-1.2279071090787799,2.9127582109542423,-2.53623587725462
1773064426760295424,1.0814764499664307,-0.7711610198020935,0.3416295647621155,-1.0204576253890991,0.06624917685985565,0.9400535225868225,0.3345305025577545,-0.32104045152664185,0.010431766510009766,0.30305802822113037,-0.5174332065654814,0.7563153246450546,0.3086298473609277,-0.25494646888313094,-1.2227871705251179,2.9460859893796525,-2.5039759874032472
1773064426770333440,1.0915145874023438,-0.8103899955749512,0.4424339234828949,-1.1267000436782837,0.054798539727926254,0.9380064010620117,0.3422594964504242,-0.34585994482040405,0.04972577095031738,0.2930249869823456,-0.5163875003155394,0.7572026172496693,0.31268826031519886,-0.24942805892443548,-1.2168331806399595,2.982831931577103,-2.469056280557725
1773064426780371456,1.1015524864196777,-0.7668699622154236,0.5267189741134644,-1.2318536043167114,0.04203738644719124,0.9358130097389221,0.3499808609485626,-0.36625611782073975,0.10295939445495605,0.2743935286998749,-0.5155823277276047,0.758001646253609,0.31689736593581774,-0.24327833099536744,-1.2105585397109309,3.0220519526766934,-2.432384222931854
1773064426790408448,1.1115894317626953,-0.6347198486328125,0.6234943866729736,-1.341976523399353,0.027937639504671097,0.9337543249130249,0.35682231187820435,-0.3832843005657196,0.16521406173706055,0.25758811831474304,-0.5153547383663208,0.7584622145198052,0.3211638532042125,-0.23663951795641927,-1.2047627033251267,3.063456394883058,-2.394237894405445
1773064426800446464,1.1216275691986084,-0.39547163248062134,0.6829838156700134,-1.4692692756652832,0.012438926845788956,0.9321541786193848,0.3618479371070862,-0.38885799050331116,0.23576879501342773,0.2456960678100586,-0.5160721728412422,0.7583075966397955,0.3254128929882195,-0.2296640609727312,-1.200317786079156,3.1072300675712388,-2.354382706536686
1773064426810484480,1.1316654682159424,-0.04455408453941345,0.6858108043670654,-1.5998557806015015,-0.004400863312184811,0.9313912987709045,0.36399298906326294,-0.3802579641342163,0.29506438970565796,0.22075438499450684,-0.5180791901716455,0.7571525846409377,0.32972178581524647,-0.22270486494436612,-1.1982163583213334,-3.129502725746796,-2.311916538320256
1773064426820522496,1.1417036056518555,0.3823336064815521,0.6822147369384766,-1.718237042427063,-0.02244298905134201,0.9317758679389954,0.36233973503112793,-0.3639553487300873,0.33436793088912964,0.18799901008605957,-0.5216821361309203,0.7546996609955657,0.33406331111107185,-0.21605066995274663,-1.1992742707248454,-3.079732605734397,-2.265857915879195
1773064426830560512,1.1517415046691895,0.7373988032341003,0.6706593632698059,-1.7753841876983643,-0.04127397760748863,0.9332640767097473,0.3568115532398224,-0.35409650206565857,0.34090572595596313,0.1511077582836151,-0.5268395478462922,0.7509765120014875,0.33828989987225566,-0.20984346045023797,-1.2033955057711048,-3.0264300440206293,-2.2159881168456885
1773064426840598528,1.1617796421051025,0.9158814549446106,0.637628436088562,-1.7761098146438599,-0.06027437373995781,0.9353333115577698,0.34859493374824524,-0.3429085910320282,0.32441699504852295,0.12090274691581726,-0.532964753716293,0.746384491181412,0.342356041779153,-0.2040858547112689,-1.209200048560175,-2.9703788785369545,-2.1630406236141
1773064426850636544,1.1718175411224365,0.9039327502250671,0.6009543538093567,-1.7572522163391113,-0.0790192186832428,0.9372777342796326,0.33950939774513245,-0.3290008306503296,0.283730685710907,0.10511651635169983,-0.5392561899864344,0.7414764948336159,0.34636296836408936,-0.1986155530067208,-1.214736922952444,-2.9129184504272927,-2.108295046750135
1773064426860674304,1.1818554401397705,0.7183258533477783,0.5997543334960938,-1.715296745300293,-0.09740981459617615,0.9385057091712952,0.3312376141548157,-0.31427228450775146,0.22599929571151733,0.0962679386138916,-0.545064611176514,0.736789180884305,0.35037195740799143,-0.1930951912490812,-1.2182765250521363,-2.855577370249161,-2.0535820748731672
1773064426870712576,1.1918935775756836,0.4400525987148285,0.5591157674789429,-1.619498610496521,-0.11504820734262466,0.9386295080184937,0.3251745104789734,-0.28470152616500854,0.17303425073623657,0.08029735088348389,-0.5498193965374364,0.7328101904457032,0.3543677157618944,-0.18738022692476503,-1.2186353311388614,-2.801532542289715,-2.0022458069278954
1773064426880750336,1.2019314765930176,0.25079745054244995,0.4769977629184723,-1.4854860305786133,-0.13135336339473724,0.9377996921539307,0.32136961817741394,-0.23739053308963776,0.11852055788040161,0.0660209059715271,-0.5534165835152944,0.7295808813216383,0.3583246389246428,-0.18178398072102803,-1.2162373008664755,-2.753583257234236,-1.9566721121277504
1773064426890788608,1.2119696140289307,0.1671474725008011,0.43961629271507263,-1.3304481506347656,-0.1460743248462677,0.9364903569221497,0.3188232183456421,-0.1985301822423935,0.07226818799972534,0.04815065860748291,-0.5562500894629047,0.7268766828929942,0.36202471270446995,-0.17656243059948765,-1.2124850032947623,-2.7119676944019453,-1.917143911762585
1773064426900826368,1.2220075130462646,0.14779561758041382,0.42001357674598694,-1.1626352071762085,-0.15914443135261536,0.9350744485855103,0.3167163133621216,-0.17024706304073334,0.0607905387878418,0.015299707651138306,-0.5586837861359697,0.724545451737659,0.36522875556512224,-0.17179759604752426,-1.2084690121259283,-2.6759609404697757,-1.8832634208185397
1773064426910864640,1.2320456504821777,0.19805069267749786,0.3940381705760956,-0.9930331110954285,-0.17056018114089966,0.9338198304176331,0.3144678473472595,-0.15614579617977142,0.073275625705719,-0.007155865430831909,-0.5609645790398354,0.7224406176143163,0.36784980546475243,-0.1675855711156614,-1.2049458138603992,-2.6446207530381307,-1.8541316435166197
1773064426920902400,1.2420835494995117,0.31224706768989563,0.3508824408054352,-0.8135925531387329,-0.1802084743976593,0.9330146312713623,0.3114621341228485,-0.1553475707769394,0.0770866870880127,-0.0354459285736084,-0.5633180629273034,0.7203738563213178,0.3698547960117941,-0.1641392843805936,-1.202701557089397,-2.617065530371941,-1.8286485627648634
1773064426930940416,1.2521214485168457,0.4354304075241089,0.2800042927265167,-0.6214672923088074,-0.18791472911834717,0.9328578114509583,0.3073510229587555,-0.17054477334022522,0.05845999717712402,-0.0737389326095581,-0.5658525257945086,0.7182290105701443,0.3712446593700936,-0.16166481632092072,-1.2022660104202343,-2.592832178116056,-1.8060712051656562
1773064426940977664,1.2621586322784424,0.47540581226348877,0.20884087681770325,-0.40715765953063965,-0.19347122311592102,0.9332966804504395,0.3025332987308502,-0.19280503690242767,0.030005931854248047,-0.08639252185821533,-0.5683928161715308,0.7161425084681607,0.3720303203562247,-0.16019682128234614,-1.2034861794296194,-2.5726315121127974,-1.7870271978633143
1773064426951015424,1.2721965312957764,0.4528726041316986,0.19809049367904663,-0.18709588050842285,-0.19684870541095734,0.9341323375701904,0.297736793756485,-0.20993530750274658,-0.00977027416229248,-0.06555905938148499,-0.5706914889723531,0.7144081478818362,0.3721416397894191,-0.1595078631507592,-1.2058203467515893,-2.5574189852490554,-1.772892582501886
1773064426961053440,1.2822344303131104,0.29928597807884216,0.19162806868553162,0.02643505111336708,-0.1982073336839676,0.9351129531860352,0.29373103380203247,-0.2259412556886673,-0.06700986623764038,-0.046401262283325195,-0.5725052388196246,0.7133048365632215,0.37156658042208945,-0.15928694721234318,-1.2085776105306183,-2.5479859395510926,-1.7649076685899852
1773064426971091456,1.2922725677490234,-0.007642136886715889,0.15510161221027374,0.2364744246006012,-0.19746893644332886,0.935824453830719,0.2919567823410034,-0.23041804134845734,-0.103823721408844,-0.028727412223815918,-0.5732653812692675,0.7132494945671997,0.37047746868113596,-0.15933756495648313,-1.2105909141399775,-2.5469068181006613,-1.765594946965995
1773064426981129472,1.3023104667663574,-0.3643108010292053,0.0918281078338623,0.43198081851005554,-0.19469749927520752,0.9359335899353027,0.29346364736557007,-0.2260788083076477,-0.10732042789459229,-0.009818106889724731,-0.5725644283939897,0.7145131987450742,0.36905651462716926,-0.15949303674326823,-1.2109006556003017,-2.5558225279614084,-1.7765004598772316
1773064426991167488,1.3123486042022705,-0.651931881904602,0.04469561576843262,0.5628513693809509,-0.19018590450286865,0.9353698492050171,0.29818257689476013,-0.22454802691936493,-0.09180283546447754,-0.018199056386947632,-0.570431820032124,0.7169736291207135,0.36747802406509306,-0.15973838124259457,-1.2093033222658285,-2.5738296815849213,-1.7964598159028493
1773064427001205504,1.3223865032196045,-0.7808099985122681,9.539141319692135e-05,0.6565997004508972,-0.18452024459838867,0.9343164563179016,0.30496689677238464,-0.22946593165397644,-0.06514543294906616,-0.05960562825202942,-0.5673586545970357,0.7201923224954313,0.3657956575837834,-0.16006447766728443,-1.20633660294821,-2.597468111992855,-1.8219822117054467
1773064427011243520,1.3324246406555176,-0.7782809734344482,-0.03162751719355583,0.7436652183532715,-0.17793695628643036,0.9331539869308472,0.31234943866729736,-0.21531255543231964,-0.03447234630584717,-0.10742390155792236,-0.5639280612963326,0.7236887356698065,0.36393588712936015,-0.16065633607523255,-1.2030890645074082,-2.6237711667110033,-1.8500096464364082
1773064427021281536,1.3424625396728516,-0.7262699604034424,-0.06609148532152176,0.8380436301231384,-0.17040200531482697,0.932142972946167,0.3194878399372101,-0.18221332132816315,-0.003325343132019043,-0.14044120907783508,-0.5604569106245859,0.7272075266631771,0.3618192073816088,-0.1616912192347767,-1.2002867262164059,-2.651614647428199,-1.8793203298332055
1773064427031319296,1.3525004386901855,-0.6698979139328003,-0.13333110511302948,0.9372579455375671,-0.16181305050849915,0.9313511848449707,0.3261927366256714,-0.14278291165828705,0.020202279090881348,-0.1568048894405365,-0.5570014000050185,0.730693440451648,0.35942101827160206,-0.16325790946294327,-1.1981062132889004,-2.6810973823344013,-1.9099282705964622
1773064427041357568,1.3625385761260986,-0.6264913082122803,-0.21324299275875092,1.0340055227279663,-0.15202519297599792,0.930763840675354,0.33251604437828064,-0.10497856140136719,0.02602320909500122,-0.15795555710792542,-0.5534973429001185,0.7341280625988489,0.35681089657896914,-0.165476967369653,-1.1964964621455416,-2.712770211321477,-1.942084904190783
1773064427051395328,1.3725764751434326,-0.6153790950775146,-0.27175918221473694,1.1119132041931152,-0.1411680281162262,0.9302638173103333,0.33864566683769226,-0.079474076628685,0.016345679759979248,-0.14133429527282715,-0.5498814119427063,0.7375522797064544,0.35403314327495367,-0.168248726064491,-1.1951312821570532,-2.746636320632418,-1.9758553756050483
1773064427061433600,1.3826146125793457,-0.648899257183075,-0.3017146587371826,1.1575558185577393,-0.12956254184246063,0.9296547174453735,0.3448992371559143,-0.07609540224075317,-0.00044029951095581055,-0.12363162636756897,-0.5460717064781638,0.7410455630288116,0.35114256028598917,-0.1713359471807448,-1.1934745638072206,-2.7822493335463747,-2.0110346448017102
1773064427071471360,1.3926525115966797,-0.7111392021179199,-0.3259688913822174,1.2020765542984009,-0.1174619123339653,0.9287359714508057,0.3516417145729065,-0.07519553601741791,-0.02404254674911499,-0.10087886452674866,-0.541957320394553,0.7447033572333916,0.34819214711591534,-0.1745316780271599,-1.1909887480718921,-2.819207483277224,-2.04741808304676
1773064427081509632,1.4026906490325928,-0.7842970490455627,-0.353085994720459,1.2345364093780518,-0.10490421205759048,0.9274351596832275,0.35896939039230347,-0.06971736997365952,-0.042425453662872314,-0.08316686749458313,-0.5374936531994374,0.7485410160468777,0.3452115901130929,-0.1778084712988188,-1.187495356484341,-2.8572728198882635,-2.084748718394703
1773064427091547392,1.4127285480499268,-0.8772978782653809,-0.38634154200553894,1.2662806510925293,-0.09191123396158218,0.9256450533866882,0.3670605719089508,-0.06383521109819412,-0.03759890794754028,-0.0692395269870758,-0.5325982056516801,0.7525978961304937,0.342237780119917,-0.18113206274884475,-1.1827367597133644,-2.8962394355511196,-2.1227930223433678
1773064427101584384,1.4227654933929443,-0.9620303511619568,-0.373227059841156,1.2687827348709106,-0.0787077397108078,0.9232970476150513,0.3759354054927826,-0.06354992836713791,-0.01098942756652832,-0.055439889430999756,-0.5272917372659196,0.7568686921983325,0.3392896690963779,-0.1843791001103272,-1.1765779643595544,-2.9352086456973474,-2.160799598862871
1773064427111622656,1.4328036308288574,-0.9970529675483704,-0.33937668800354004,1.2455077171325684,-0.06570349633693695,0.920443058013916,0.3853154480457306,-0.07783594727516174,0.017926812171936035,-0.04890483617782593,-0.5217593091997523,0.7612657722328018,0.33635122154847613,-0.1873756030860766,-1.1692124105499975,-2.9726983897560104,-2.197593350871348
1773064427121660416,1.4428415298461914,-0.9455437064170837,-0.2973211109638214,1.2111742496490479,-0.05309821292757988,0.9173513054847717,0.3945218324661255,-0.08505488932132721,0.0334697961807251,-0.06496244668960571,-0.5163095453075464,0.7655759529544388,0.3333982302762249,-0.1901673928578565,-1.161374887008054,-3.0078078115303883,-2.2322962682516465
1773064427131698432,1.4528794288635254,-0.8523852825164795,-0.2529929280281067,1.1914197206497192,-0.040961842983961105,0.9143102169036865,0.4029376804828644,-0.06920658051967621,0.038814663887023926,-0.08349496126174927,-0.5112249521382874,0.7696348762740676,0.3303498133230912,-0.19282149237032858,-1.1538014689329543,-3.040282675333735,-2.2647379109911725
1773064427141736448,1.4629175662994385,-0.7458258271217346,-0.2233801782131195,1.210338830947876,-0.029008785262703896,0.9114587903022766,0.4103669822216034,-0.02747924253344536,0.04564857482910156,-0.08504968881607056,-0.5065613120387087,0.7734290564717274,0.3270947670737006,-0.1954790299274445,-1.1468162893560918,-3.0710201871055793,-2.295799984003363
1773064427151774464,1.4729554653167725,-0.6385748386383057,-0.21039660274982452,1.247012734413147,-0.016892634332180023,0.9088723659515381,0.4167323410511017,0.02414053864777088,0.04875403642654419,-0.0728449821472168,-0.5023070102796537,0.7769728104345875,0.3235419861774017,-0.1982966305288197,-1.1405723328641444,-3.101078898446997,-2.326455438073659
1773064427161812480,1.4829936027526855,-0.5423348546028137,-0.22300560772418976,1.2774595022201538,-0.004482512827962637,0.9065227508544922,0.4221329689025879,0.06377818435430527,0.04983699321746826,-0.055540621280670166,-0.49838629828534287,0.7802764450863778,0.31974232414607995,-0.20135676019428028,-1.1349729021476835,-3.130974330797411,-2.357004922129415
1773064427171850496,1.4930315017700195,-0.47803160548210144,-0.24488188326358795,1.2686340808868408,0.008110162802040577,0.9043368101119995,0.42674291133880615,0.0768355056643486,0.045400917530059814,-0.03498867154121399,-0.4947195175370869,0.783335463342232,0.3158433228472324,-0.20464915131712735,-1.1298233854142605,3.1225901426190235,-2.3871078046612264
1773064427181888512,1.5030696392059326,-0.4431292712688446,-0.24490104615688324,1.226776123046875,0.020478617399930954,0.9021764397621155,0.4308810532093048,0.058882348239421844,0.0343317985534668,-0.013751506805419922,-0.4912273062352092,0.7861849054661952,0.31201573728641696,-0.20797901077853434,-1.1247886282433133,3.0941010801458573,-2.4159136489975364
1773064427191926528,1.5131075382232666,-0.42617204785346985,-0.2378236949443817,1.1565037965774536,0.0323031023144722,0.8999775052070618,0.4347381591796875,0.024642687290906906,0.016145050525665283,-0.0009154677391052246,-0.48788335388640536,0.7888485184455456,0.30836195712362247,-0.21118911161333986,-1.1197178930971274,3.067424217877733,-2.442814629100981
1773064427201964288,1.5231454372406006,-0.4514814019203186,-0.20899364352226257,1.0906333923339844,0.0434112623333931,0.8976358771324158,0.43859487771987915,-0.015396129339933395,-0.00926905870437622,-0.00466543436050415,-0.48460657116365324,0.7914009842272728,0.304929378523665,-0.21414733540885697,-1.1143758192031634,3.0429359434561016,-2.467544369055295
1773064427212002560,1.5331835746765137,-0.5607753396034241,-0.15814724564552307,1.0473597049713135,0.05383216589689255,0.8948923945426941,0.44302311539649963,-0.04704199731349945,-0.03202325105667114,-0.0018915534019470215,-0.48117311181117634,0.7940436331903629,0.3016724451016313,-0.21670440382851713,-1.1081900110943983,3.0206744783851085,-2.490314551449908
1773064427222040320,1.5432214736938477,-0.7253051400184631,-0.10900872945785522,1.0138310194015503,0.06366746872663498,0.8914095759391785,0.4487045109272003,-0.06806200742721558,-0.034933626651763916,0.0012925267219543457,-0.47728291556401153,0.7969977283642043,0.2985747391631532,-0.2187438573292262,-1.1004460087978438,3.000641805281937,-2.5112605630071236
1773064427232078592,1.5532596111297607,-0.8429093956947327,-0.07445807754993439,0.9724315404891968,0.07295643538236618,0.8871160745620728,0.45574358105659485,-0.07783924788236618,-0.029022932052612305,0.014105021953582764,-0.47285987467393076,0.8002734162002132,0.2956928269005194,-0.2202990728755331,-1.0910587760332713,2.9828572385110426,-2.5302061819564297
1773064427242116352,1.5632975101470947,-0.8187822699546814,-0.024548836052417755,0.9381654262542725,0.08162861317396164,0.8825172781944275,0.4631415605545044,-0.06214313954114914,-0.03309100866317749,0.023018717765808105,-0.46836175121117235,0.8035988429021177,0.29291581982708614,-0.22150962024559595,-1.0811883066607275,2.967134562226734,-2.547403105586257
1773064427252153344,1.5733344554901123,-0.7147121429443359,0.005467653274536133,0.9661979079246521,0.09004645049571991,0.8780932426452637,0.46994027495384216,-0.00743536651134491,-0.03464841842651367,0.02137744426727295,-0.46418068723112627,0.8067796385016801,0.28995992144849025,-0.2226345498076478,-1.0718625701456017,2.952274811072056,-2.5641926722891255
1773064427262191616,1.5833725929260254,-0.5928541421890259,0.008111106231808662,1.0392552614212036,0.09880481660366058,0.8740482330322266,0.4756866693496704,0.06953014433383942,-0.016916096210479736,0.03420114517211914,-0.46042296418164425,0.809748655066748,0.28661899099630395,-0.22398107216957566,-1.0634732865375245,2.936794870500163,-2.5819441256911717
1773064427272229376,1.5934104919433594,-0.4762275516986847,-0.028278060257434845,1.1231473684310913,0.10832206159830093,0.8703585267066956,0.48035678267478943,0.13235482573509216,0.008746206760406494,0.06079620122909546,-0.45701318321897505,0.8125157346390806,0.2828366532966498,-0.22574468805927692,-1.0559299908854838,2.919799167427032,-2.6013283364799555
1773064427282267648,1.6034486293792725,-0.38702496886253357,-0.06952456384897232,1.153886079788208,0.11850745975971222,0.8669763207435608,0.48405352234840393,0.1607436239719391,0.03226977586746216,0.08580118417739868,-0.45389037891413686,0.8150553353686197,0.27876794107906466,-0.22794012824998475,-1.0491025887227066,2.9014923154881296,-2.621862810403657
1773064427292305408,1.6134865283966064,-0.3466969132423401,-0.12205994874238968,1.1109838485717773,0.12883171439170837,0.86379474401474,0.4870942234992981,0.14344610273838043,0.05261749029159546,0.1015135645866394,-0.45096241517429664,0.8173476942016467,0.27475417502775507,-0.23040337320635118,-1.0427533495486692,2.88302319476215,-2.6420961104746494
1773064427302343424,1.6235244274139404,-0.3261868357658386,-0.14997385442256927,1.0301992893218994,0.13877640664577484,0.8607121109962463,0.48981237411499023,0.09967270493507385,0.06322300434112549,0.11060583591461182,-0.44815551691570016,0.8194164284511675,0.27104041528785877,-0.23291754341325374,-1.0366668299614206,2.8655027515792533,-2.660850384706549
1773064427312381440,1.6335625648498535,-0.322244256734848,-0.15903501212596893,0.9419593811035156,0.14803189039230347,0.8577095866203308,0.4923627972602844,0.04831819236278534,0.050981879234313965,0.10338616371154785,-0.4454638906683138,0.821285285722229,0.26771603561754886,-0.2353308569850727,-1.0307980467122544,2.8495340233634914,-2.6776152883522575
1773064427322419456,1.6436004638671875,-0.3435133397579193,-0.1420176774263382,0.8821253180503845,0.1566031575202942,0.8546705842018127,0.49498844146728516,0.0074593424797058105,0.02754676342010498,0.08483025431632996,-0.4428100472766318,0.8230627695640491,0.2646920905424831,-0.23753947000629116,-1.0249159681357254,2.8351792690082784,-2.6926077019452155
1773064427332457472,1.6536386013031006,-0.37211889028549194,-0.10581306368112564,0.8389003872871399,0.16456840932369232,0.8514976501464844,0.4978642761707306,-0.012575611472129822,0.0024756193161010742,0.07162421941757202,-0.4401348266247672,0.8248450655400035,0.26184491636840096,-0.23947681612477995,-1.018834868611286,2.8223503333340676,-2.7061956530503104
1773064427342495488,1.6636765003204346,-0.3767136335372925,-0.07864215970039368,0.806917130947113,0.172039195895195,0.848226010799408,0.5009146332740784,-0.0070764124393463135,-0.020146608352661133,0.0636453628540039,-0.4374666313507701,0.8266362933542416,0.25909412574954105,-0.2411757568453464,-1.012626837389292,2.810764790836271,-2.7187446724722903
1773064427352533504,1.6737146377563477,-0.36762169003486633,-0.06050923094153404,0.7918788194656372,0.17917115986347198,0.8449267148971558,0.5039809942245483,0.013135373592376709,-0.03410506248474121,0.055116355419158936,-0.434851085264981,0.828407745364467,0.2563808020784362,-0.24272232011014297,-1.0064281135321491,2.800016076086599,-2.730633436772824
1773064427362571520,1.6837525367736816,-0.33580997586250305,-0.052954379469156265,0.7747552394866943,0.18609066307544708,0.8417006134986877,0.5068634152412415,0.037908345460891724,-0.02945995330810547,0.05075383186340332,-0.43235294102233,0.8301090308394643,0.25367439121664054,-0.24421153158254255,-1.0004250882020425,2.789729244440363,-2.742157003235233
1773064427372609280,1.6937904357910156,-0.2801670432090759,-0.05281030014157295,0.7517185807228088,0.19280628859996796,0.8386735320091248,0.5093644857406616,0.051578447222709656,-0.018681585788726807,0.040501177310943604,-0.43006004395644865,0.8316798226701668,0.25097992866777147,-0.24569501234390795,-0.9948431591081556,2.779736719775243,-2.753420227408563
1773064427382647552,1.7038285732269287,-0.2368677854537964,-0.046378232538700104,0.707181990146637,0.19921304285526276,0.8359162211418152,0.5114279985427856,0.04741477966308594,-0.008416712284088135,0.02758878469467163,-0.4280158339044721,0.8330867667989111,0.2483554651367698,-0.24716103933934316,-0.98980003695213,2.770150551065493,-2.764253203355119
1773064427392685312,1.7138664722442627,-0.20110568404197693,-0.015534568578004837,0.6512708067893982,0.20506377518177032,0.8334118127822876,0.5131998062133789,0.03150850534439087,-0.0064310431480407715,0.01586824655532837,-0.4262169758501322,0.8343608925759617,0.2458491718131736,-0.24847399133370884,-0.9852527550938189,2.76144941648066,-2.774311461300089
1773064427402722560,1.7239036560058594,-0.1824294775724411,0.022226393222808838,0.5955090522766113,0.2102331966161728,0.8311278820037842,0.5148090124130249,0.017504215240478516,-0.012005627155303955,0.014701426029205322,-0.42464201405654994,0.83553763281296,0.24347765960983025,-0.24954883320168078,-0.9811329178461328,2.7538905858919653,-2.783439366174399
1773064427412760576,1.7339415550231934,-0.1644628643989563,0.04964084178209305,0.5662181377410889,0.21486695110797882,0.8289948105812073,0.5163331627845764,0.016090065240859985,-0.025390684604644775,0.01613748073577881,-0.42323297977507934,0.8366577835108537,0.24118528865625935,-0.2504142639287052,-0.9773079074394642,2.7472502768325646,-2.7918893109752383
1773064427422798336,1.7439794540405273,-0.14459328353405,0.0767451599240303,0.5469222068786621,0.2191627472639084,0.8269747495651245,0.5177649855613708,0.022246554493904114,-0.03682887554168701,0.020977139472961426,-0.42195742959645766,0.8377405073576528,0.23890023067253102,-0.2511363587863319,-0.9737054423255848,2.7411745280074156,-2.800015773444712
1773064427432836608,1.7540175914764404,-0.1498781442642212,0.10035061836242676,0.5388200283050537,0.22320859134197235,0.8249990344047546,0.5191864371299744,0.02639468014240265,-0.04171961545944214,0.01935732364654541,-0.4207565870270686,0.8388142015542442,0.23660925853874615,-0.25173536339904157,-0.9702004951195204,2.735562169834053,-2.8078943495711917
1773064427442874368,1.7640554904937744,-0.14727596938610077,0.11180780827999115,0.5234605669975281,0.2270214706659317,0.8230187892913818,0.5206735730171204,0.028074949979782104,-0.04463756084442139,0.019014418125152588,-0.4195839542657615,0.8398950629244428,0.23433539553961477,-0.25221496676415894,-0.9667053423861274,2.7304293624446885,-2.815455912588545
1773064427452912640,1.7740936279296875,-0.13443489372730255,0.10553193092346191,0.5092061161994934,0.23070649802684784,0.8211029767990112,0.5220773816108704,0.03081388771533966,-0.052151501178741455,0.009569644927978516,-0.41847011873577805,0.8409319547014661,0.23210374390140845,-0.2526741077448708,-0.9633407891719568,2.72549427541885,-2.8228007002702413
1773064427462950400,1.7841315269470215,-0.1678554266691208,0.10791093111038208,0.5047684907913208,0.23431169986724854,0.8191437125205994,0.5235469341278076,0.03230510652065277,-0.054480135440826416,-0.005190670490264893,-0.41732694718506586,0.8419664608426972,0.22992598380456847,-0.25311003426380557,-0.9599165980194402,2.720780784513173,-2.829866523322665
1773064427472988416,1.7941694259643555,-0.21941976249217987,0.10004009306430817,0.4970238506793976,0.23788946866989136,0.8169388175010681,0.5253753662109375,0.023585110902786255,-0.048796236515045166,-0.01148998737335205,-0.4159917627128702,0.8430774886345316,0.22783333836245231,-0.25350164057653723,-0.9560830336756216,2.7164134697268527,-2.836471178908292
1773064427483026432,1.8042075634002686,-0.27596399188041687,0.10120123624801636,0.49719321727752686,0.24143658578395844,0.8144275546073914,0.5276515483856201,0.009616270661354065,-0.04770392179489136,-0.024233579635620117,-0.4144170820020224,0.8442876815852215,0.22584085118879377,-0.2538359929370031,-0.9517419760829139,2.7124628364828394,-2.8425283214800525
1773064427493064448,1.8142454624176025,-0.291737824678421,0.07976998388767242,0.47918733954429626,0.24494639039039612,0.8117002844810486,0.5302301049232483,-0.004513666033744812,-0.053658902645111084,-0.038393616676330566,-0.4126730042179281,0.8455562510677824,0.22394124162637902,-0.25413767655891645,-0.947057340810018,2.7088354133847403,-2.848122846242554
1773064427503102464,1.8242835998535156,-0.2714266777038574,0.05909799039363861,0.4325236976146698,0.24831630289554596,0.809062659740448,0.5326879024505615,-0.014673754572868347,-0.05280667543411255,-0.0487249493598938,-0.4109658874628668,0.8467365691528039,0.22221863717697798,-0.254485799217662,-0.9425555016875913,2.7053839094657572,-2.853206554243259
1773064427513140480,1.8343214988708496,-0.22657892107963562,0.05411241948604584,0.3890911638736725,0.251347154378891,0.8066943883895874,0.5348538756370544,-0.01683485507965088,-0.03296709060668945,-0.04733556509017944,-0.40944235435134074,0.8477800037591808,0.22067170088318333,-0.25481364879474117,-0.9385370463672065,2.702284091256233,-2.857749430419688
1773064427523178496,1.8443596363067627,-0.16896168887615204,0.03654780611395836,0.35747143626213074,0.25409311056137085,0.804688036441803,0.5365760922431946,-0.00772470235824585,-0.0009770393371582031,-0.031144022941589355,-0.4081772652003835,0.8486572903983082,0.21924610762964497,-0.25515343954345227,-0.9351497960020818,2.6993318791270533,-2.862009443396021
1773064427533216512,1.8543975353240967,-0.08831367641687393,0.014427458867430687,0.3431141972541809,0.25678396224975586,0.803092360496521,0.5376843214035034,0.0031800270080566406,0.026787281036376953,-0.016352593898773193,-0.40720557468761037,0.8493392138034415,0.21786478266499268,-0.25561958443527094,-0.9324669652277101,2.69604639533631,-2.866417683474513
1773064427543254272,1.8644354343414307,0.0039107888005673885,0.0007856826996430755,0.33202505111694336,0.25946304202079773,0.8019885420799255,0.5380461812019348,0.00900009274482727,0.043638408184051514,-0.004629313945770264,-0.4065971578252488,0.8498019539252786,0.2164710660121616,-0.25623387491591115,-0.9306168436737264,2.6922602510051896,-2.8712142199169675
1773064427553291520,1.8744726181030273,0.08200368285179138,-0.018847540020942688,0.297494113445282,0.2620333135128021,0.8014081716537476,0.5376651883125305,0.003423839807510376,0.04934573173522949,0.0009396672248840332,-0.4063752960278461,0.8500407561721656,0.21508904601299658,-0.2569565363794015,-0.9296459046561137,2.68811287453649,-2.8762900777389633
1773064427563329536,1.8845105171203613,0.12883031368255615,-0.03556632995605469,0.26556307077407837,0.26445272564888,0.8012437224388123,0.5367249250411987,-0.012530088424682617,0.04474949836730957,0.00407719612121582,-0.40644010540111764,0.8500882396072804,0.21380466765435346,-0.2577675488139892,-0.9293709546545836,2.683789515466075,-2.8813326214959174
1773064427573367552,1.8945486545562744,0.15857946872711182,-0.04613228887319565,0.2351086288690567,0.26667049527168274,0.8013529777526855,0.5354628562927246,-0.02269768714904785,0.032814621925354004,0.008467257022857666,-0.4066854281505742,0.8500080124606835,0.21264478301061543,-0.258603184554484,-0.9295535885597027,2.679531376121838,-2.8861295163535883
1773064427583405568,1.9045865535736084,0.196859210729599,-0.04029224440455437,0.23295840620994568,0.268775075674057,0.8016714453697205,0.533931314945221,-0.026312947273254395,0.01053851842880249,0.003589928150177002,-0.4070888552746396,0.8498417122058205,0.2115058410905833,-0.25944738292705244,-0.9300861703356551,2.675237633660791,-2.8909583744993257
1773064427593443328,1.9146244525909424,0.2403474748134613,-0.041662175208330154,0.2265215367078781,0.270844429731369,0.8022230863571167,0.5320543050765991,-0.02075284719467163,-0.014564275741577148,-0.007869064807891846,-0.40729109737651686,0.8492669885086518,0.21159569409801635,-0.2609347272761273,-0.9310095857089287,2.670728047643566,-2.8930731612247325
1773064427603481600,1.9246625900268555,0.27930179238319397,-0.05757083371281624,0.2208966761827469,0.2728773355484009,0.8029909133911133,0.5298527479171753,-0.007618546485900879,-0.022747814655303955,-0.004782497882843018,-0.40766711047262943,0.8486066725040967,0.21164374747813341,-0.2624524139785085,-0.9322967239824771,2.66601241019732,-2.8954568331180504
1773064427613519360,1.9347004890441895,0.34695491194725037,-0.09264426678419113,0.22745244204998016,0.27505260705947876,0.8040254712104797,0.5271520018577576,0.0038017630577087402,-0.014734089374542236,0.003975987434387207,-0.4082423207769792,0.8478105917988276,0.21164404041794707,-0.2641254540639595,-0.9340346887174833,2.660680351556485,-2.8983415088088336
1773064427623557632,1.9447386264801025,0.4633890986442566,-0.12458702176809311,0.24171580374240875,0.2775174379348755,0.8055001497268677,0.5235967636108398,0.008767962455749512,-0.0003548860549926758,0.006859779357910156,-0.40916206403347555,0.8467961851527888,0.21150553454789597,-0.26606019386950797,-0.936518995297779,2.654217434749679,-2.9022542145559966
1773064427633595392,1.9547765254974365,0.5941413640975952,-0.14595316350460052,0.2468622326850891,0.2801912724971771,0.8075856566429138,0.5189399123191833,0.0018827319145202637,0.008057832717895508,0.008342862129211426,-0.41058492462216606,0.8455066067272825,0.21115997674390996,-0.2682353235843704,-0.9400467331258764,2.646513525985049,-2.907484814283616
1773064427643633408,1.9648144245147705,0.6586122512817383,-0.16881319880485535,0.24047091603279114,0.282989501953125,0.8101688623428345,0.5133644342422485,-0.012924253940582275,0.008251488208770752,0.016863107681274414,-0.4124145615751239,0.8439714507177563,0.21069982494067843,-0.27061392759728553,-0.9444400943285819,2.63779421196622,-2.9136955742097514
1773064427653671424,1.9748525619506836,0.6195496320724487,-0.16867391765117645,0.22352388501167297,0.2857481837272644,0.812821090221405,0.5076120495796204,-0.028896987438201904,0.002150893211364746,0.03859150409698486,-0.4143074926605258,0.8423734715690255,0.210268797632541,-0.27302619917306237,-0.9489787949132048,2.6288794223542036,-2.920019036592959
1773064427663709440,1.9848904609680176,0.4600614607334137,-0.15576210618019104,0.20330676436424255,0.2883143723011017,0.8149652481079102,0.502699077129364,-0.036010295152664185,-0.014809668064117432,0.06350874900817871,-0.41578788760519214,0.8409709152024443,0.2100415835488363,-0.27526508210930395,-0.952669259385698,2.6208617958238367,-2.9252906676822197
1773064427673747456,1.9949285984039307,0.23636670410633087,-0.12840838730335236,0.20133322477340698,0.2906694710254669,0.816149890422821,0.4994097650051117,-0.03403192758560181,-0.03628861904144287,0.08228564262390137,-0.41648531090270685,0.8399798891765747,0.21009205711495765,-0.2771911410497057,-0.9547163773108347,2.6144942042864425,-2.9287647326334776
1773064427683785472,2.0049664974212646,-0.02001979947090149,-0.09871441125869751,0.21820248663425446,0.29291480779647827,0.8160921335220337,0.4981911778450012,-0.02779337763786316,-0.04730862379074097,0.08672401309013367,-0.4161867941431875,0.8395473996902262,0.21037050938901192,-0.27873450745022976,-0.9546164217643726,2.610075637114821,-2.93027037414965
1773064427693823488,2.0150046348571777,-0.22959491610527039,-0.07613705843687057,0.24818368256092072,0.295245498418808,0.8147464394569397,0.4990173876285553,-0.01800858974456787,-0.04329264163970947,0.0779632031917572,-0.4148663615056087,0.8396850364156991,0.21080258313332176,-0.27995931945857505,-0.9522917627603164,2.6073327079183475,-2.9300838779634115
1773064427703860480,2.0250415802001953,-0.32888874411582947,-0.059592973440885544,0.27423685789108276,0.29771721363067627,0.8125393986701965,0.5011427402496338,-0.008486896753311157,-0.03191506862640381,0.057130515575408936,-0.41287904479274157,0.8401968502504528,0.21128328628112106,-0.28099730353886077,-0.948495450375958,2.6055399257370166,-2.928977035352266
1773064427713898496,2.0350794792175293,-0.34477683901786804,-0.06402887403964996,0.29151105880737305,0.3003356456756592,0.809965193271637,0.5037411451339722,-0.003445357084274292,-0.012952744960784912,0.03220862150192261,-0.41062611172061386,0.8408574350553266,0.21172939419231931,-0.28198530446331294,-0.9440927643805737,2.603964361694235,-2.927702854243515
1773064427723936512,2.0451176166534424,-0.2828173339366913,-0.08822128176689148,0.3093816637992859,0.303158164024353,0.807442307472229,0.5060949921607971,-0.0015834569931030273,0.008124709129333496,0.014687418937683105,-0.4084475800828586,0.8414772657358882,0.2120460105280547,-0.28306024314065686,-0.9398036778044901,2.6018982220651665,-2.9269922859507145
1773064427733974528,2.0551555156707764,-0.16579067707061768,-0.0979388952255249,0.32461974024772644,0.3061985671520233,0.8053182363510132,0.507646918296814,-0.0022587180137634277,0.019251644611358643,-0.001238107681274414,-0.40660895653004486,0.8418999494608077,0.21219783523522806,-0.2843340587531619,-0.9362121155364286,2.5988437934127715,-2.927297734982183
1773064427744013056,2.0651941299438477,-0.06515540927648544,-0.11572454869747162,0.3340183198451996,0.3094218671321869,0.8037155270576477,0.508232057094574,-0.005726128816604614,0.013820052146911621,-0.0179213285446167,-0.40521791152813863,0.8420902245447608,0.21213223611489623,-0.285801575513651,-0.9335136015473292,2.594713061732315,-2.9288277168524735
1773064427754051072,2.0752320289611816,-0.020255623385310173,-0.14681069552898407,0.3422987461090088,0.31281691789627075,0.8024449348449707,0.5081610679626465,-0.004848778247833252,-0.005447864532470703,-0.016461849212646484,-0.4040819726848631,0.8421010133923128,0.21200573211249055,-0.28746688810877646,-0.9313812489991109,2.5897915138871634,-2.930998680416668
1773064427764088832,2.0852699279785156,-0.01771150529384613,-0.19393187761306763,0.3554627597332001,0.31651291251182556,0.8012535572052002,0.5077521800994873,-0.0034635961055755615,-0.027037858963012695,-0.006623029708862305,-0.4029950774732187,0.8420185159773392,0.21185113364880662,-0.2893421231858191,-0.92938738393049,2.5841727806248724,-2.9335890474224646
1773064427774127104,2.0953080654144287,-0.045505985617637634,-0.21022841334342957,0.3581438660621643,0.3204042613506317,0.799961507320404,0.5073487162590027,-0.007827997207641602,-0.03419923782348633,-0.0022217631340026855,-0.401808111010933,0.8419259139098098,0.21174302013105767,-0.2913346530968417,-0.9272310220650246,2.5783137271323464,-2.936129857101426
1773064427784164864,2.1053459644317627,-0.0850568562746048,-0.2170082926750183,0.35010191798210144,0.32434332370758057,0.7984813451766968,0.5071777105331421,-0.016832947731018066,-0.02829378843307495,-0.0049346089363098145,-0.4004673743720643,0.8418901450793781,0.2116833258691679,-0.29332085233157973,-0.9247683702101611,2.5726297708525214,-2.9383807258456707
1773064427794203136,2.115384101867676,-0.14327102899551392,-0.22753749787807465,0.3349630534648895,0.3282133638858795,0.7967849373817444,0.5073555707931519,-0.015438735485076904,-0.00918734073638916,-0.0012673735618591309,-0.39891893735439554,0.8419155983779759,0.21179211441748355,-0.29527255323464413,-0.9219557797397404,2.567392749643517,-2.939913870867841
1773064427804240896,2.1254220008850098,-0.16651935875415802,-0.24100802838802338,0.3156101405620575,0.3319969177246094,0.7949008345603943,0.5078487396240234,-0.005199462175369263,0.017385363578796387,0.009637773036956787,-0.3971864512450932,0.8419937153595299,0.21206353812951248,-0.29718419799838214,-0.9188441583221741,2.5625984033469646,-2.9407570927189663
1773064427814279168,2.135460138320923,-0.1937272846698761,-0.23700690269470215,0.29480499029159546,0.33567729592323303,0.7929700613021851,0.5084477663040161,0.004837840795516968,0.039061129093170166,0.013250231742858887,-0.39538877564504044,0.8420733827312055,0.21245308217654454,-0.2990715775215601,-0.9156685487891637,2.5580802459935006,-2.9411543635810236
1773064427824316928,2.145498037338257,-0.20805002748966217,-0.2359781265258789,0.28478509187698364,0.3391725718975067,0.7909468412399292,0.5092786550521851,0.01492282748222351,0.05501556396484375,0.01951456069946289,-0.39352507714060203,0.8422108025454664,0.21288564512149807,-0.3008298213180221,-0.9123548740867456,2.554061282097802,-2.9411618826272363
1773064427834354944,2.155535936355591,-0.1693614274263382,-0.23953597247600555,0.281124472618103,0.34262919425964355,0.7890239357948303,0.5099473595619202,0.022574633359909058,0.04746276140213013,0.015016019344329834,-0.3917391786862024,0.8422997562789862,0.2133185313133944,-0.30259989690970324,-0.9092186697523014,2.5499817155045674,-2.9412258100938593
1773064427844392960,2.165574073791504,-0.19104009866714478,-0.23204822838306427,0.2808634638786316,0.3460579216480255,0.7871537208557129,0.5105223655700684,0.0227469801902771,0.02859640121459961,0.007376194000244141,-0.39000464468061613,0.8423670690659152,0.21372622892392834,-0.30436041238545,-0.9061804361692496,2.5458871800605003,-2.941365626005869
1773064427854429952,2.1756110191345215,-0.2437952309846878,-0.2203826606273651,0.2825760245323181,0.34942981600761414,0.7850414514541626,0.5114772915840149,0.013653099536895752,0.013725757598876953,0.005536258220672607,-0.38808233856529195,0.8425321818945849,0.21419190680146344,-0.3060286654661319,-0.9027630322145912,2.5422463763093273,-2.941042322253833
1773064427864468224,2.1856491565704346,-0.26595911383628845,-0.22410042583942413,0.28100767731666565,0.35278573632240295,0.7827247381210327,0.5127221345901489,0.006329834461212158,-0.0012612342834472656,-0.0016290545463562012,-0.38601349042366306,0.8427793930479515,0.2146717430909308,-0.30762386657774354,-0.8990318543791513,2.538922298403442,-2.9404407843113924
1773064427874505984,2.1956870555877686,-0.26215946674346924,-0.22969399392604828,0.2675045132637024,0.3561042249202728,0.7803810834884644,0.5139989852905273,-0.0018256902694702148,-0.01429837942123413,-0.01465517282485962,-0.38389481545255755,0.8430098200683133,0.2152531604333847,-0.3092332711408939,-0.8952750113657731,2.5357077148692895,-2.939526061680431
1773064427884544000,2.2057249546051025,-0.1986827552318573,-0.23880760371685028,0.26421472430229187,0.35940173268318176,0.7782148718833923,0.5149872303009033,-0.01018911600112915,-0.020066797733306885,-0.023822128772735596,-0.3819173532368503,0.8431616133783599,0.21580575009728137,-0.31087851788882825,-0.8918181801710412,2.5322877428115422,-2.938838733850636
1773064427894582016,2.2157630920410156,-0.09943282604217529,-0.2503994107246399,0.2730855643749237,0.3627758026123047,0.7764708995819092,0.5152543783187866,-0.017438799142837524,-0.026470720767974854,-0.03611302375793457,-0.3802791268705861,0.8431298810290451,0.2162387420314488,-0.31266710336889364,-0.8890459004603819,2.5281395294043456,-2.938934877405588
1773064427904620032,2.2258009910583496,-0.033183492720127106,-0.24756580591201782,0.2701004445552826,0.3661917746067047,0.7751541137695312,0.5148199200630188,-0.023082703351974487,-0.022361814975738525,-0.039218783378601074,-0.3789985409293633,0.842930047485488,0.2165153398086176,-0.31456333725370017,-0.8869589627518195,2.5233225021620327,-2.9398759765460527
1773064427914658048,2.2358391284942627,-0.006532308645546436,-0.23677827417850494,0.27925094962120056,0.3695739805698395,0.7740355134010315,0.5140853524208069,-0.024160832166671753,-0.01265263557434082,-0.03697359561920166,-0.37788756412954877,0.8426593887286042,0.21672060120415332,-0.3164778242753271,-0.885190376090937,2.518296942929018,-2.9411553264180514
1773064427924696064,2.2458770275115967,0.017984485253691673,-0.2275187373161316,0.28706732392311096,0.3729545772075653,0.7730149626731873,0.5131792426109314,-0.01475447416305542,-0.013279736042022705,-0.035029828548431396,-0.37689087668719035,0.8423680039170873,0.21680816855429974,-0.31837666406841203,-0.8835800280492069,2.513136364189552,-2.9428075195580243
1773064427934733824,2.2559149265289307,0.003436790546402335,-0.22280706465244293,0.30192747712135315,0.3763963580131531,0.7719823718070984,0.5122202038764954,0.0010451078414916992,-0.025125503540039062,-0.031629204750061035,-0.3759087991678096,0.8420784851364105,0.2168269341673368,-0.320285267251346,-0.8819539517997113,2.5078692201421866,-2.944655322631904
1773064427944772096,2.2659530639648438,-0.065269835293293,-0.20248635113239288,0.34266984462738037,0.37997740507125854,0.7706038355827332,0.5116515755653381,0.019207805395126343,-0.03381776809692383,-0.021813929080963135,-0.37471044070172294,0.8419284331702979,0.2167540290248601,-0.3221279733659744,-0.8797880550828752,2.5028129830143464,-2.9464598359895158
1773064427954809856,2.2759909629821777,-0.1470465064048767,-0.18609312176704407,0.3752063512802124,0.3837338984012604,0.7686722874641418,0.511752724647522,0.031213581562042236,-0.035258710384368896,-0.0064122676849365234,-0.37315154947760326,0.8420020931615417,0.21658447730220978,-0.32385403831457954,-0.8767628442723973,2.4981924153424493,-2.9480352958771823
1773064427964848128,2.286029100418091,-0.21509267389774323,-0.18234765529632568,0.40547317266464233,0.3876846432685852,0.7662178874015808,0.5124554634094238,0.03226768970489502,-0.03353673219680786,-0.0035138726234436035,-0.37122148165994445,0.8422571110995614,0.21640398055290336,-0.32552545755889956,-0.8729344815280892,2.4939294852358764,-2.9492238454778352
1773064427974885888,2.296066999435425,-0.25733819603919983,-0.1834254264831543,0.42581841349601746,0.3917957842350006,0.7633703947067261,0.5135772824287415,0.02180895209312439,-0.031955599784851074,-0.00974738597869873,-0.3690178747058764,0.8426402490832444,0.21620838224071465,-0.32716529753911805,-0.8685147831646276,2.4899017333772013,-2.9501474635496776
1773064427984924160,2.306105136871338,-0.27573904395103455,-0.19759903848171234,0.431570827960968,0.39606401324272156,0.7602887153625488,0.5148731470108032,0.005654096603393555,-0.03946352005004883,-0.024211585521697998,-0.3666649647896943,0.8430858569891495,0.21596948208315447,-0.3288163926820255,-0.8637574433299228,2.4858875838860635,-2.9510427442694827
1773064427994960896,2.3161420822143555,-0.30934232473373413,-0.19654616713523865,0.42989370226860046,0.40037745237350464,0.7570576667785645,0.5162959098815918,-0.011308878660202026,-0.04671531915664673,-0.03202778100967407,-0.3641996419546884,0.8435592479001016,0.215767792977042,-0.3304703099706204,-0.8587977936454946,2.4819823738247275,-2.951715901332661
1773064428004998912,2.3261799812316895,-0.3633458912372589,-0.19336049258708954,0.4295024871826172,0.40466493368148804,0.7535660266876221,0.5180584192276001,-0.024721115827560425,-0.045222580432891846,-0.030021369457244873,-0.36151790087899277,0.8441019043517778,0.2156876940458457,-0.33207771872658765,-0.8534700501263501,2.4784714036908,-2.9517938519470155
1773064428015037184,2.3362181186676025,-0.3981460928916931,-0.18371571600437164,0.4222785234451294,0.408860445022583,0.7498440146446228,0.5201606154441833,-0.030808717012405396,-0.03658723831176758,-0.02608102560043335,-0.358661501380183,0.8447233459947872,0.215691364839174,-0.3335889956625081,-0.8478262887746021,2.4754298840841424,-2.951352237199442
1773064428025074944,2.3462560176849365,-0.41190239787101746,-0.18286137282848358,0.4261590242385864,0.4129910171031952,0.7459797263145447,0.522449254989624,-0.028698325157165527,-0.02237725257873535,-0.029056191444396973,-0.3557216327587506,0.8453983726546791,0.2156993896210821,-0.335018910751801,-0.8420047638438698,2.4726773553131527,-2.950701596895267
1773064428035113216,2.3562941551208496,-0.398186057806015,-0.18913684785366058,0.43789637088775635,0.41717392206192017,0.7420545220375061,0.5247104167938232,-0.015577852725982666,-0.008442461490631104,-0.03453707695007324,-0.35276461517609664,0.8460753410235327,0.2156657961561044,-0.33645493827316325,-0.8361300885703028,2.46987391717681,-2.9501331209560204
1773064428045150976,2.3663320541381836,-0.36963191628456116,-0.19013047218322754,0.44511860609054565,0.42146435379981995,0.7381605505943298,0.5267704725265503,0.0002886056900024414,-0.0006879568099975586,-0.04068642854690552,-0.34985721858527613,0.8467082656997301,0.21556980237260376,-0.33795681833177516,-0.8303396745550481,2.466796155451001,-2.949830493601661
1773064428055188992,2.3763699531555176,-0.35599732398986816,-0.1856800615787506,0.4305116832256317,0.4257044494152069,0.7343918085098267,0.5286251902580261,0.01313832402229309,0.0011581182479858398,-0.03811609745025635,-0.3470588484148896,0.8472865440117477,0.21544859258607219,-0.339466695379934,-0.8247701963475154,2.4636253674710282,-2.94967166994206
1773064428065227008,2.3864080905914307,-0.3764035105705261,-0.18494850397109985,0.43591469526290894,0.42985183000564575,0.7305862307548523,0.5305383801460266,0.02434125542640686,-0.0021469593048095703,-0.03706926107406616,-0.34423748201998383,0.8478721275098499,0.21536493295997136,-0.34092711125961495,-0.8191800861584634,2.460652128881525,-2.9493142921724003
1773064428075265024,2.3964459896087646,-0.3768947422504425,-0.1940145641565323,0.4404137432575226,0.4340812563896179,0.7266737818717957,0.5324645042419434,0.034439802169799805,-0.00960230827331543,-0.037194788455963135,-0.3413679429805948,0.8484731615521599,0.21523373142545024,-0.3423968380874487,-0.813467678607627,2.457633640335628,-2.94902654474192
1773064428085303040,2.4064841270446777,-0.39246198534965515,-0.2024538666009903,0.41540372371673584,0.43825939297676086,0.722732663154602,0.5344030261039734,0.028095096349716187,-0.013915956020355225,-0.04142200946807861,-0.33846690301007554,0.8490608214984706,0.2151679306136066,-0.3438586589296163,-0.8077481403079916,2.4547202956677525,-2.9485180325950675
1773064428095341056,2.4165220260620117,-0.4100759029388428,-0.1926381140947342,0.371870756149292,0.44218549132347107,0.718809187412262,0.536456823348999,0.011900901794433594,-0.009626269340515137,-0.03668558597564697,-0.3355274209114317,0.849632987647245,0.2152956068991081,-0.3452435758845381,-0.802087900492361,2.452226864961924,-2.947385656796673
1773064428105378816,2.4265599250793457,-0.4231134057044983,-0.17447589337825775,0.3333859443664551,0.4457108974456787,0.7149907946586609,0.5386369824409485,-0.0018174946308135986,-0.00043702125549316406,-0.026643693447113037,-0.332621485509141,0.8501954540544243,0.215606547355563,-0.34647423335010735,-0.7966109132487001,2.4503192449370994,-2.9456344673601658
1773064428115417088,2.436598062515259,-0.43502914905548096,-0.14887504279613495,0.30779868364334106,0.44886845350265503,0.711235761642456,0.5409815907478333,-0.001907944679260254,0.009116530418395996,-0.021343529224395752,-0.329753108490944,0.8507809809985162,0.21601512129939193,-0.34752291388198037,-0.7912545965688157,2.4489849523005436,-2.9434585966759204
1773064428125454848,2.4466359615325928,-0.45013752579689026,-0.1275191605091095,0.30763888359069824,0.4517920911312103,0.7074341177940369,0.5435264110565186,0.007787376642227173,0.022195398807525635,-0.013344526290893555,-0.3268668843713197,0.8514163625450802,0.21645643991451274,-0.34841765668883096,-0.7858611956175952,2.448100637265163,-2.941013233595329
1773064428135493120,2.456674098968506,-0.44620081782341003,-0.11110303550958633,0.31102681159973145,0.45463651418685913,0.7035462260246277,0.5461946725845337,0.019774556159973145,0.03468930721282959,-0.012075960636138916,-0.32396665543991804,0.852104284897719,0.2168308547478678,-0.3492110422502049,-0.7803753458301953,2.4474226685712286,-2.938612163413093
1773064428145530112,2.4667110443115234,-0.41403302550315857,-0.1078696921467781,0.2949003279209137,0.45736855268478394,0.6997876167297363,0.5487357378005981,0.0253584086894989,0.040080368518829346,-0.013289690017700195,-0.32116726357251285,0.8527539020767124,0.2172064780211313,-0.3499765640045795,-0.7751001599003208,2.446758929390393,-2.9362681066007577
1773064428155567872,2.4767489433288574,-0.3851340711116791,-0.0988258644938469,0.2611847221851349,0.45988577604293823,0.6963050365447998,0.5510574579238892,0.01711919903755188,0.03713911771774292,-0.012025535106658936,-0.3185394157377356,0.8533193630805628,0.21765753862300186,-0.35071909322473876,-0.7702365095223125,2.446135964376643,-2.9338630857191204
1773064428165606144,2.4867870807647705,-0.37259724736213684,-0.08363679051399231,0.22196194529533386,0.4620800018310547,0.6930924654006958,0.5532673597335815,0.005861252546310425,0.034660160541534424,-0.010115563869476318,-0.3160818594080082,0.8538295676582242,0.2181942684688014,-0.35136666654041965,-0.7657702811199208,2.4457632076105074,-2.931291716893388
1773064428175643904,2.4968249797821045,-0.37067949771881104,-0.06697685271501541,0.18962371349334717,0.463927686214447,0.6900826096534729,0.5554793477058411,0.001984238624572754,0.02495962381362915,-0.0070021748542785645,-0.3134331220901567,0.8541192677703515,0.2195904292220527,-0.35216481698390617,-0.7616031554405105,2.445762952100333,-2.926668320968099
1773064428185682176,2.5068631172180176,-0.36978787183761597,-0.041844870895147324,0.16714262962341309,0.4654722809791565,0.6871799826622009,0.5577805638313293,0.003903299570083618,0.015166759490966797,-0.0016587376594543457,-0.3111880996545385,0.8546241862250434,0.22024481294445816,-0.3525218533066533,-0.7576001595060075,2.4461615959648544,-2.9236925682442094
1773064428195719936,2.5169010162353516,-0.3939826786518097,-0.0116100013256073,0.14374198019504547,0.46669766306877136,0.6843224763870239,0.5602640509605408,0.009498566389083862,0.0042607784271240234,-0.00019019842147827148,-0.30897560069576596,0.8551641920674787,0.2209665528358185,-0.35270666527194655,-0.7536741555705614,2.4470535116569625,-2.9204101932165156
1773064428205758208,2.5269391536712646,-0.42021456360816956,0.012345399707555771,0.14899133145809174,0.4676657021045685,0.6813274025917053,0.5631003379821777,0.014939337968826294,-0.003516674041748047,0.000315248966217041,-0.3066908744227606,0.8557984157582943,0.22171885484301465,-0.3526905329744052,-0.7495745633537109,2.4485174345541987,-2.9168026142799595
1773064428215795968,2.5369770526885986,-0.41766253113746643,0.01630924828350544,0.14860250055789948,0.46860334277153015,0.6782451272010803,0.5660338997840881,0.024011433124542236,-0.015754282474517822,-0.00789797306060791,-0.3043844798598736,0.8564749581875846,0.22241312035439567,-0.3526089874814068,-0.7453718413583994,2.450086427396184,-2.9132707453901023
1773064428225833984,2.5470149517059326,-0.43039458990097046,0.03303123638033867,0.12293149530887604,0.46938592195510864,0.6751875877380371,0.5690333843231201,0.02498367428779602,-0.024857819080352783,-0.019716858863830566,-0.30208192399745537,0.8571493811100372,0.2231851891018162,-0.35246268846536805,-0.7412189571003813,2.451862265344314,-2.909511887977762
1773064428235872000,2.5570530891418457,-0.43310633301734924,0.04450266808271408,0.08548571914434433,0.4698430001735687,0.6722197532653809,0.5721611380577087,0.017583757638931274,-0.01726675033569336,-0.013033270835876465,-0.29979865600587036,0.8578138782889986,0.2241336814610719,-0.35219350754040385,-0.7372029598505454,2.454074285122741,-2.90524527662362
1773064428245910016,2.5670909881591797,-0.3939019441604614,0.051036734133958817,0.06965935230255127,0.4700528085231781,0.6694590449333191,0.5752171277999878,0.013192981481552124,-0.0005290508270263672,-0.009482324123382568,-0.2976358144114886,0.8584317363143611,0.22517440971830763,-0.3518583468001344,-0.7334803369927492,2.4564667904895385,-2.900809114420863
1773064428255948032,2.5771291255950928,-0.33865490555763245,0.055155448615550995,0.07342120260000229,0.4702194333076477,0.667012631893158,0.5779167413711548,0.012339740991592407,0.006723880767822266,-0.01526421308517456,-0.2957257659416219,0.858974655714398,0.2260993127979583,-0.35155066622182934,-0.7301918763401496,2.45858638181674,-2.8968883301926587
1773064428265986048,2.5871670246124268,-0.3046521842479706,0.07450304180383682,0.07328884303569794,0.4703386723995209,0.664813756942749,0.580348014831543,0.009885847568511963,0.00924307107925415,-0.01365196704864502,-0.2940244810020502,0.8594679999825859,0.22691133293644966,-0.35124847456919506,-0.7272445087516056,2.460516692075468,-2.8934134732517016
1773064428276023808,2.5972049236297607,-0.2965630888938904,0.10248354822397232,0.06949757039546967,0.4702836573123932,0.6627190709114075,0.582783579826355,0.008048862218856812,0.005478560924530029,-0.0061081647872924805,-0.2924323645598667,0.8599774520459897,0.22766326932914893,-0.3508440175305708,-0.7244438626519866,2.4626215216007536,-2.890074505814981
1773064428286061056,2.6072421073913574,-0.28543028235435486,0.11576846241950989,0.0613940991461277,0.47005629539489746,0.6606966853141785,0.5852579474449158,0.011892557144165039,-0.003134429454803467,0.0003285408020019531,-0.2909121640965065,0.8605018217152349,0.22839790025083712,-0.35034426815841724,-0.721746487198951,2.4649273158935863,-2.8867495309551283
1773064428296099072,2.6172800064086914,-0.2758007347583771,0.12177787721157074,0.06423169374465942,0.46975958347320557,0.6587455868721008,0.5876907110214233,0.02059692144393921,-0.013924360275268555,0.0021378397941589355,-0.28943855450461575,0.8610079963220291,0.22915190096264917,-0.34982855888688424,-0.7191502383530267,2.4672595982498327,-2.883412033145914
1773064428306137088,2.6273181438446045,-0.25753918290138245,0.125625878572464,0.06704479455947876,0.46945688128471375,0.6568593382835388,0.5900388360023499,0.028574705123901367,-0.01812654733657837,0.0005525946617126465,-0.28805300976286186,0.8615174038538241,0.22979812111861078,-0.3492935525421665,-0.7166459403175641,2.469517593589359,-2.8803875615918892
1773064428316175104,2.6373560428619385,-0.2251855880022049,0.13012848794460297,0.05807260423898697,0.4691055119037628,0.6551361680030823,0.592230498790741,0.02711033821105957,-0.01568603515625,-0.002203524112701416,-0.28678829748719253,0.8619893908908688,0.23041166086194187,-0.34876546062698704,-0.7143628788627534,2.4716876420699,-2.877544670044589
1773064428326212864,2.6473939418792725,-0.18555589020252228,0.1237424984574318,0.03546156734228134,0.4686504304409027,0.6536930799484253,0.5941821336746216,0.020973652601242065,-0.014807462692260742,-0.0024309754371643066,-0.2857030277495739,0.8623884607437317,0.2310350768166892,-0.3482567838349828,-0.7124543009977448,2.473760345329903,-2.8748321203862366
1773064428336251136,2.6574320793151855,-0.14793452620506287,0.11350570619106293,0.017028098925948143,0.4681212306022644,0.6525781154632568,0.595822811126709,0.01689472794532776,-0.01154094934463501,0.0005975961685180664,-0.2848286977083961,0.8626981896706656,0.2316532940266578,-0.3477950099151004,-0.7109819408353646,2.4756496406186934,-2.872329948487684
1773064428346288896,2.6674699783325195,-0.13308821618556976,0.11187106370925903,0.0061110034584999084,0.4675491452217102,0.651674747467041,0.5972582697868347,0.01995384693145752,-0.015337586402893066,0.008912205696105957,-0.284096188152399,0.8629529236263441,0.2322528722518999,-0.34736161627312406,-0.7097903135636483,2.477411932648483,-2.8700013240092694
1773064428356327168,2.6775081157684326,-0.15932025015354156,0.12110316753387451,-0.006263640709221363,0.4668457508087158,0.6508179903030396,0.5987409949302673,0.023037642240524292,-0.023346126079559326,0.017088353633880615,-0.28337909709713904,0.8632025003139054,0.23292048031884735,-0.3468799864015412,-0.7086613371336578,2.479345237706309,-2.867481499681118
1773064428366364928,2.6875460147857666,-0.23357583582401276,0.11566606163978577,-0.0166864525526762,0.4660535156726837,0.649707019329071,0.6005620360374451,0.023829907178878784,-0.02867436408996582,0.026879310607910156,-0.28245472499580115,0.8635058981108071,0.23374898374924818,-0.3463210468242119,-0.7071989766981219,2.481640074666741,-2.864375760672932
1773064428376403200,2.6975841522216797,-0.3353860676288605,0.12366233766078949,-0.019164126366376877,0.46519994735717773,0.6480821967124939,0.6029750108718872,0.02781158685684204,-0.037562668323516846,0.04041188955307007,-0.2811460833852378,0.863922815964403,0.2347868531601858,-0.34564357621964054,-0.7050634694050154,2.484468027202075,-2.8604196186617505
1773064428386440960,2.7076220512390137,-0.4501083791255951,0.13322202861309052,-0.02736213617026806,0.4642696976661682,0.6458076238632202,0.6061241030693054,0.030801743268966675,-0.05353766679763794,0.04635697603225708,-0.2793865504815408,0.8645009234051533,0.23600891933538254,-0.34479150374703416,-0.7020805735142471,2.4879521474222943,-2.8555882508065262
1773064428396478976,2.7176599502563477,-0.5522944331169128,0.14969606697559357,-0.04762186482548714,0.4631544351577759,0.6429146528244019,0.6100398898124695,0.03013169765472412,-0.06372159719467163,0.04477572441101074,-0.27720690863081726,0.8652451376036634,0.23742535646524066,-0.34370972328194666,-0.6982975735554113,2.492216868528617,-2.8498438140123743
1773064428406516992,2.7276980876922607,-0.6324590444564819,0.1687597632408142,-0.0661579966545105,0.4617972671985626,0.6395206451416016,0.6146191358566284,0.025629490613937378,-0.05182832479476929,0.04166138172149658,-0.27466476952100827,0.8661073743427564,0.23909742000400142,-0.34241744630417453,-0.6938745403133459,2.497224777583763,-2.843117512056387
1773064428416555008,2.7377359867095947,-0.6350808143615723,0.1719122976064682,-0.07601502537727356,0.4602879583835602,0.6358969211578369,0.6194918751716614,0.02250009775161743,-0.025133371353149414,0.0358579158782959,-0.2719757623728122,0.867020194013656,0.2408773791874678,-0.3410033519928041,-0.6891701491570188,2.5025808798918887,-2.835990370214611
1773064428426592000,2.7477729320526123,-0.5660937428474426,0.16428260505199432,-0.07571887969970703,0.45875197649002075,0.6324701905250549,0.6241220235824585,0.019992589950561523,0.0025854110717773438,0.02674168348312378,-0.26944252127840257,0.8678727992975517,0.24260632403017335,-0.33961710366014153,-0.6847381195003021,2.5077377003272217,-2.829159051134561
1773064428436630016,2.7578110694885254,-0.4415334463119507,0.14222775399684906,-0.08198835700750351,0.4572686553001404,0.6296632885932922,0.628036618232727,0.01431959867477417,0.02063596248626709,0.014999449253082275,-0.26733386523998504,0.8685524339688669,0.24420277064818283,-0.3383998283302874,-0.6811197413985416,2.512260530438472,-2.823087341577765
1773064428446668032,2.7678489685058594,-0.31747034192085266,0.10334321856498718,-0.09354274719953537,0.455946683883667,0.6276698112487793,0.6309857368469238,0.009995639324188232,0.022888600826263428,0.0060839056968688965,-0.26575445866439773,0.8689949908620731,0.2456431745499348,-0.3374635250331355,-0.6785563289510278,2.5158631283177226,-2.817967973317485
1773064428456706048,2.7778871059417725,-0.22667422890663147,0.08236150443553925,-0.1037469208240509,0.4547088146209717,0.6264252066612244,0.6331128478050232,0.013736128807067871,0.004098653793334961,0.005162537097930908,-0.264647174957451,0.8692263577430432,0.24698575817872007,-0.3367574907330561,-0.6769585980709668,2.51874861244229,-2.813567037543159
1773064428466744064,2.7879250049591064,-0.21813559532165527,0.08060328662395477,-0.11181896179914474,0.45353034138679504,0.6255285143852234,0.634842038154602,0.019110649824142456,-0.02450007200241089,0.01135241985321045,-0.26373696866522794,0.8693389333270106,0.24833615679608628,-0.336187172229078,-0.6758087264514865,2.521268350673095,-2.8093864565072386
1773064428476782080,2.7979631423950195,-0.2641328275203705,0.09453294426202774,-0.10687053948640823,0.45231208205223083,0.6244751811027527,0.6367453932762146,0.022938162088394165,-0.044397056102752686,0.023288846015930176,-0.26277039094455396,0.8695192957709027,0.2496174700563946,-0.33552805472631014,-0.6744594046305774,2.5239541042401448,-2.8052674158536033
1773064428486820096,2.8080010414123535,-0.2936108112335205,0.10186009854078293,-0.11363843083381653,0.45097261667251587,0.623187243938446,0.638953447341919,0.02388089895248413,-0.05252373218536377,0.028252363204956055,-0.26166063499792885,0.8697665691342722,0.25096381753442454,-0.3347491894581047,-0.6728114617919261,2.5269854391956312,-2.800823074014514
1773064428496857856,2.8180389404296875,-0.32098355889320374,0.10512713342905045,-0.11784316599369049,0.4495687484741211,0.6217358112335205,0.6413522958755493,0.017014533281326294,-0.04057425260543823,0.01849883794784546,-0.2604329668170935,0.870039564386625,0.2524030368500799,-0.3339140712258127,-0.6709570017364392,2.5302159166499254,-2.796060825511603
1773064428506896128,2.8280770778656006,-0.31313735246658325,0.11659710109233856,-0.1162966638803482,0.44810718297958374,0.6202038526535034,0.6438535451889038,0.010205864906311035,-0.008845150470733643,0.011892974376678467,-0.2591642103057264,0.8703342356330716,0.25386037356144464,-0.33302736441171343,-0.6690025712854255,2.5335718682526283,-2.7912042976074827
1773064428516933888,2.8381149768829346,-0.2636159658432007,0.1181715652346611,-0.1161310225725174,0.4466016888618469,0.6188384294509888,0.6462091207504272,0.006431788206100464,0.023327767848968506,0.0036780238151550293,-0.25800902502663,0.8705896621434388,0.2553002093135712,-0.3321548802698619,-0.6672630724478615,2.5368579650916505,-2.7864747048736023
1773064428526972160,2.8481531143188477,-0.1800435483455658,0.10120509564876556,-0.11362924426794052,0.44516733288764954,0.6179057359695435,0.6480886340141296,0.005516320466995239,0.04063314199447632,-0.0036031603813171387,-0.25715377281951507,0.8707483888255498,0.2565961234531285,-0.3314026491688032,-0.6660763040579117,2.5397178530422524,-2.7823508910154295
1773064428537009920,2.8581910133361816,-0.0970705971121788,0.09033260494470596,-0.11644114553928375,0.44384127855300903,0.6175150275230408,0.6493687629699707,0.007589906454086304,0.03817027807235718,-0.005966782569885254,-0.25663890371512205,0.8707635764186108,0.2577890036916057,-0.3308352937702512,-0.665579466257202,2.5420289453100247,-2.7788040493047528
1773064428547048192,2.8682291507720947,-0.07526356726884842,0.08032365143299103,-0.12346123158931732,0.44254934787750244,0.6175097823143005,0.6502552628517151,0.008302152156829834,0.01992619037628174,0.0001658797264099121,-0.2563731574516218,0.8706877866687002,0.25890233925225314,-0.3303713360518201,-0.6655728001113619,2.544020953342736,-2.7756584280613463
1773064428557085952,2.8782670497894287,-0.08998765051364899,0.07578456401824951,-0.1341535598039627,0.44124555587768555,0.617549479007721,0.6511027812957764,0.004509419202804565,-0.001094520092010498,0.009617984294891357,-0.2561198313670801,0.8705863465939074,0.2600592492609857,-0.3299260512751046,-0.6656233011555087,2.5459975903727834,-2.7724315067794274
1773064428567122944,2.8883039951324463,-0.14950664341449738,0.08045761287212372,-0.13075722754001617,0.4399140775203705,0.6173610091209412,0.6521819233894348,-0.001986771821975708,-0.023168444633483887,0.011911213397979736,-0.255706063065756,0.8705220666555973,0.2613088102798762,-0.3294290790038058,-0.6653836429211897,2.5481682644834835,-2.7688637134121232
1773064428577160960,2.8983421325683594,-0.21048881113529205,0.09273411333560944,-0.11385801434516907,0.4385949671268463,0.6167150139808655,0.6536797881126404,-0.003337949514389038,-0.0416111946105957,0.003409445285797119,-0.2550109648247691,0.8705597386790158,0.2626130937147406,-0.3288306213161615,-0.6645627715355392,2.550621550981629,-2.7649468949159623
1773064428587198976,2.9083800315856934,-0.26144522428512573,0.10796606540679932,-0.10493668913841248,0.4372561275959015,0.615632176399231,0.6555943489074707,0.001083076000213623,-0.05175900459289551,-0.0021978020668029785,-0.25409518467223624,0.8707334624901901,0.2638568039937799,-0.3280829591164004,-0.6631879678855558,2.5533860223381106,-2.7609482547411113
1773064428597236992,2.9184179306030273,-0.2802564799785614,0.11437402665615082,-0.12687887251377106,0.4358164668083191,0.6143285632133484,0.6577720046043396,0.005391329526901245,-0.04891425371170044,-0.0018426179885864258,-0.25304996010819153,0.8709642203587665,0.2651553098223919,-0.32723018066982146,-0.6615347402703995,2.556435300451885,-2.7566809309425304
1773064428607275008,2.9284560680389404,-0.26444315910339355,0.12130676954984665,-0.15713290870189667,0.4341733157634735,0.6131377816200256,0.659966230392456,0.010574579238891602,-0.03237307071685791,-0.00266343355178833,-0.25205704029654297,0.8711628285587678,0.2665679044172986,-0.3263189972657274,-0.6600265055176973,2.5597033882475633,-2.7521312682965995
1773064428617313024,2.9384939670562744,-0.21771472692489624,0.11860606074333191,-0.1626770794391632,0.4323839843273163,0.6122246384620667,0.6619853973388672,0.01932188868522644,-0.011684596538543701,0.00020009279251098633,-0.2512324383434635,0.8712981592788637,0.2680153398993789,-0.3254065619951717,-0.6588710791911868,2.56299751263438,-2.747584985583899
1773064428627351040,2.9485321044921875,-0.13777968287467957,0.13318367302417755,-0.14793115854263306,0.43060171604156494,0.6116942167282104,0.6636360287666321,0.028062254190444946,0.0075685977935791016,-0.0034033656120300293,-0.2506898172562472,0.8713767590073748,0.2692963958278216,-0.32455619548028075,-0.6582003979943025,2.5660247052928424,-2.7436165846637257
1773064428637389056,2.9585700035095215,-0.024394618347287178,0.1361626833677292,-0.13363690674304962,0.4288478195667267,0.611743688583374,0.6647249460220337,0.027557820081710815,0.017513513565063477,-0.010565400123596191,-0.250572361319495,0.8713740917397389,0.27031400459357136,-0.32380710386770023,-0.6582630078696725,2.568633939300673,-2.740544837574827
1773064428647427072,2.9686081409454346,0.10634954273700714,0.1488475799560547,-0.1301063597202301,0.42709842324256897,0.6125685572624207,0.6650917530059814,0.024378687143325806,0.015605330467224121,-0.01148146390914917,-0.25099482190056344,0.8712474892688302,0.27106028916942637,-0.32319627011418695,-0.6593061466474781,2.570745303916106,-2.7384631016505425
1773064428657465088,2.9786460399627686,0.20490744709968567,0.1400144100189209,-0.14959803223609924,0.4252685606479645,0.6142171025276184,0.6647433638572693,0.02297353744506836,0.001566469669342041,-0.0048618316650390625,-0.25195017405518483,0.870961626969311,0.27165697529477945,-0.322721803086147,-0.6613935181121798,2.572457884131903,-2.737073468782139
1773064428667502848,2.9886839389801025,0.24838940799236298,0.14515244960784912,-0.18642129004001617,0.4232936203479767,0.6164636015892029,0.6639240980148315,0.023148030042648315,-0.01822751760482788,0.008851170539855957,-0.25326918451215186,0.870543951389918,0.27224121259877476,-0.3223238947256073,-0.6642434435249618,2.5740100485093333,-2.735925678176424
1773064428677541120,2.9987220764160156,0.17663955688476562,0.183342844247818,-0.21425066888332367,0.42096659541130066,0.6187646389007568,0.6632624268531799,0.022987812757492065,-0.03639781475067139,0.023306608200073242,-0.2546235802641144,0.8701328119972189,0.2729470720315811,-0.3217693374647947,-0.6671692017015806,2.576054968138557,-2.734363771430951
1773064428687578880,3.0087599754333496,0.08224940299987793,0.2213006168603897,-0.22126568853855133,0.4182707965373993,0.6205485463142395,0.663301944732666,0.02876603603363037,-0.04361361265182495,0.03547447919845581,-0.25567819184594515,0.869872152275666,0.27381273178988275,-0.32090156538953957,-0.6694420365719159,2.578984512855211,-2.73202049916716
1773064428697617152,3.0187981128692627,0.002849519019946456,0.2631959915161133,-0.22860203683376312,0.4152539074420929,0.6217691898345947,0.6640536785125732,0.029707640409469604,-0.04694008827209473,0.03557705879211426,-0.2564173553156118,0.8697787070497915,0.27479420464911497,-0.3197237988980543,-0.6709996265520473,2.582754778552307,-2.7289964356174106
1773064428707653888,3.0288350582122803,-0.04355659708380699,0.30362147092819214,-0.23946000635623932,0.4119207262992859,0.6225696802139282,0.6653780341148376,0.024282217025756836,-0.0381733775138855,0.0313686728477478,-0.2569195427716156,0.8698094079190232,0.2758996537480258,-0.31828165624330246,-0.6720220822244886,2.5872633896885278,-2.7253457703540946
1773064428717691904,3.0388729572296143,-0.007954304106533527,0.3283350467681885,-0.2807978689670563,0.4081853926181793,0.623413622379303,0.6668886542320251,0.020174652338027954,-0.018860340118408203,0.027157366275787354,-0.25748593344668635,0.8698750052985743,0.27705922743892464,-0.31663347208107756,-0.6731009710809525,2.592342311149826,-2.721408262586925
1773064428727729920,3.0489110946655273,0.0378027968108654,0.33358120918273926,-0.3288024067878723,0.4040503203868866,0.6247615218162537,0.6681438684463501,0.012743473052978516,0.009042739868164062,0.024559319019317627,-0.2583556960158713,0.8698287009059974,0.2783342479386555,-0.31492913137888995,-0.6748260774673797,2.5976984243077457,-2.717250027444646
1773064428737768704,3.0589497089385986,0.15456274151802063,0.3524101674556732,-0.3602139949798584,0.3995741605758667,0.6267523765563965,0.6689708828926086,0.012260526418685913,0.034121036529541016,0.03535956144332886,-0.2596224918630958,0.8696398855264083,0.279663921055371,-0.3132263442207506,-0.677378377513263,2.603163180810325,-2.7130899431353424
1773064428747806464,3.0689876079559326,0.28503182530403137,0.3628460168838501,-0.3686961531639099,0.3948764503002167,0.6296996474266052,0.6689924597740173,0.009023696184158325,0.037536680698394775,0.03072977066040039,-0.26152244315883566,0.8692664576537087,0.2808416950069662,-0.3116243960935941,-0.6811664847448862,2.608369065230461,-2.7095841064250523
1773064428757844736,3.0790257453918457,0.39667296409606934,0.3709060847759247,-0.381760835647583,0.3900395631790161,0.633459746837616,0.6682797074317932,-0.0015660524368286133,0.029259979724884033,0.02910792827606201,-0.26395939880173613,0.8687252278042741,0.28188001321337885,-0.31013794960985624,-0.6860163383222992,2.61328408698805,-2.7066670060845626
1773064428767882496,3.0890636444091797,0.44258639216423035,0.3653475344181061,-0.40234625339508057,0.38506853580474854,0.6378204226493835,0.6670138835906982,-0.01604992151260376,0.01331794261932373,0.03308993577957153,-0.2667835745168794,0.8680407185149438,0.28286438669388464,-0.3087387903152625,-0.6916650060165119,2.6180299911463436,-2.70404459323795
1773064428777920768,3.0991017818450928,0.46578866243362427,0.3638800084590912,-0.40440288186073303,0.38003841042518616,0.6424146294593811,0.6654881238937378,-0.023242086172103882,-0.005451679229736328,0.04456442594528198,-0.26976129241523045,0.8672821490227403,0.28384102546645285,-0.3073838504686983,-0.6976448725752343,2.6227190241279414,-2.7014799649360146
1773064428787958528,3.1091396808624268,0.42976969480514526,0.3514134883880615,-0.39635133743286133,0.3750365972518921,0.6469747424125671,0.6639061570167542,-0.02448117733001709,-0.02903956174850464,0.040195465087890625,-0.272740113680914,0.8665189006502098,0.2847772360855443,-0.3060388726422145,-0.7036102252097044,2.627386491493099,-2.6989705764298106
1773064428797996544,3.1191775798797607,0.2583068609237671,0.3698526620864868,-0.4274379014968872,0.3700125515460968,0.6508550643920898,0.6629315614700317,-0.02781897783279419,-0.02864748239517212,0.045442402362823486,-0.2752848254207916,0.8658745417150746,0.2858794574172098,-0.3045528470894017,-0.7087101414006046,2.632516887013586,-2.695732250030394
1773064428808034560,3.129215717315674,0.04750833287835121,0.4005725085735321,-0.4838058352470398,0.3644629418849945,0.6535009145736694,0.6634027361869812,-0.037421345710754395,0.007036745548248291,0.0756872296333313,-0.2770371048153896,0.8654849833363304,0.28746669759059684,-0.3025707139046829,-0.7122004327388322,2.6392223901247998,-2.690546227122821
1773064428818072576,3.139253616333008,-0.0413089320063591,0.43312522768974304,-0.5030670166015625,0.3584480881690979,0.655267059803009,0.6649362444877625,-0.04265215992927551,0.04703408479690552,0.08698636293411255,-0.2782547517424547,0.8652949025126583,0.28936631263692625,-0.30017696440696773,-0.7145360746010503,2.6471786580652745,-2.684005540574219
1773064428828110592,3.149291753768921,0.026668254286050797,0.42580339312553406,-0.4553687572479248,0.3523918688297272,0.6568679809570312,0.666592001914978,-0.0400596559047699,0.07364672422409058,0.0565679669380188,-0.2794287639950983,0.8651672601740608,0.2911728439289884,-0.29769735887046406,-0.7166574031349064,2.6552909468800854,-2.677567931884896
1773064428838148608,3.159329652786255,0.15475836396217346,0.38612163066864014,-0.4251425266265869,0.3467726409435272,0.6590157747268677,0.6674179434776306,-0.03987261652946472,0.07874661684036255,0.040284574031829834,-0.28097067077801885,0.8649020546896948,0.2926660431086469,-0.2955443189158076,-0.7195094491207059,2.6624092047640633,-2.672267392842294
1773064428848185600,3.1693665981292725,0.24070017039775848,0.37296855449676514,-0.47165438532829285,0.34131303429603577,0.6618983149528503,0.6673799753189087,-0.06532734632492065,0.06832629442214966,0.04548007249832153,-0.2829649450725573,0.8644299706745274,0.2940251960970618,-0.2936679084785316,-0.7233483599276171,2.668848978086728,-2.667620056099139
1773064428858223616,3.1794047355651855,0.23478977382183075,0.3626100718975067,-0.5478866696357727,0.33545398712158203,0.665256142616272,0.6670117378234863,-0.10625174641609192,0.05842238664627075,0.0648607611656189,-0.28521601092811827,0.8637737519769255,0.2956362241713901,-0.291797676620504,-0.7278368264321636,2.6756112561142347,-2.6623420824994017
1773064428868261632,3.1894426345825195,0.27007824182510376,0.34311625361442566,-0.5314232707023621,0.3294127583503723,0.6687389612197876,0.66653972864151,-0.1207030713558197,0.04274773597717285,0.06789630651473999,-0.28751380192183834,0.8630176900998832,0.29743960990431556,-0.2899411852937592,-0.7325114262218617,2.682585149983349,-2.656527981307325
1773064428878299648,3.1994807720184326,0.34908440709114075,0.2990100383758545,-0.4271693229675293,0.32401150465011597,0.6723963022232056,0.6655070185661316,-0.09416839480400085,0.007550537586212158,0.03983050584793091,-0.28994786889704804,0.8622185800280568,0.2988856271846871,-0.2884036785304729,-0.737441463955337,2.6885088136432347,-2.6518800742623254
1773064428888337664,3.2095186710357666,0.29848194122314453,0.27325913310050964,-0.33829832077026367,0.3195817470550537,0.6758419275283813,0.6641572713851929,-0.06276112794876099,-0.0419309139251709,0.022808551788330078,-0.2922599354742304,0.8614673972586212,0.29992093887237625,-0.2872375140141439,-0.7421063686145377,2.6931109612244786,-2.6485531203090775
1773064428898375424,3.2195565700531006,-0.10486909002065659,0.24932239949703217,-0.3725718855857849,0.31545791029930115,0.6778247952461243,0.664108395576477,-0.05088576674461365,-0.06927382946014404,0.03736865520477295,-0.293613147144704,0.8610120381963329,0.3011850898547238,-0.2858971140030084,-0.7448000342103126,2.6981364166719217,-2.644261523344055
1773064428908413696,3.2295947074890137,-0.6176990866661072,0.2615441679954529,-0.38469111919403076,0.31113842129707336,0.6765007376670837,0.6674877405166626,-0.05462288856506348,-0.029665350914001465,0.07779735326766968,-0.2928162846165173,0.861250178412552,0.30330181260853234,-0.2837513669965148,-0.7430006557590894,2.7054033722768973,-2.6366434313142717
1773064428918451456,3.2396326065063477,-0.8615433573722839,0.21125464141368866,-0.3670934736728668,0.30700355768203735,0.672553539276123,0.6733651757240295,-0.052227526903152466,0.03537803888320923,0.07634490728378296,-0.2903445670888731,0.8620362609797119,0.3059020834594144,-0.28110046131667243,-0.7376538826288918,2.713823002719983,-2.6271116533412417
1773064428928489728,3.2496707439422607,-0.9024085402488708,0.16990666091442108,-0.33909568190574646,0.30334383249282837,0.6675753593444824,0.6799454689025879,-0.07234099507331848,0.09119850397109985,0.011277735233306885,-0.28717360652431495,0.8629442695021416,0.3087068778850533,-0.27849351365586,-0.73094746525061,2.7219619935245567,-2.6171088713310846
1773064428938527488,3.2597086429595947,-0.829318642616272,0.10953080654144287,-0.31652548909187317,0.3001834452152252,0.6625900864601135,0.6861957311630249,-0.09737884998321533,0.14406585693359375,0.004081428050994873,-0.28398384047821534,0.8637821438911877,0.3114133466524188,-0.2761437991874409,-0.7242716141901058,2.729215461154959,-2.6077037680686734
1773064428948565760,3.269746780395508,-0.8172955513000488,0.07579441368579865,-0.3128628432750702,0.29749032855033875,0.6578934192657471,0.6918643712997437,-0.12079352140426636,0.18925946950912476,0.042358219623565674,-0.2809277300293019,0.8644616138190916,0.3140673418557227,-0.27413061018992707,-0.7180181633339295,2.735508432668419,-2.598842693045432
1773064428958603520,3.279784679412842,-0.8114709258079529,0.05946563929319382,-0.35855165123939514,0.29480668902397156,0.6531643271446228,0.6974706649780273,-0.13483357429504395,0.21741056442260742,0.06676572561264038,-0.27783835553483704,0.8650678896250934,0.31684836255465887,-0.2721589516338561,-0.7117558247570551,2.7416889769279895,-2.5897775546587467
1773064428968641536,3.289822578430176,-0.7968272566795349,0.03372432291507721,-0.4337659776210785,0.29189392924308777,0.6487101912498474,0.7028322219848633,-0.13208860158920288,0.2071552872657776,0.07152080535888672,-0.2748939184788922,0.8655082101407496,0.3198619443674716,-0.27021703442488876,-0.7058883860319558,2.7479572717490997,-2.5802387455080416
1773064428978679552,3.299860715866089,-0.8836280703544617,-0.017404373735189438,-0.4737117886543274,0.28886714577674866,0.6442251205444336,0.7081876397132874,-0.10936281085014343,0.17947477102279663,0.055850446224212646,-0.27186962903121265,0.8658054141720499,0.3232256047039839,-0.2683152599344289,-0.7000097152175979,2.7542976475232157,-2.5699184617535997
1773064428988717568,3.309898614883423,-1.2689363956451416,0.013054732233285904,-0.481627494096756,0.28585222363471985,0.6379585862159729,0.7150508761405945,-0.06156328320503235,0.17086410522460938,0.04006093740463257,-0.2677860995425568,0.8663929464114503,0.3269383622858806,-0.2660174724020595,-0.6918444314755618,2.7612889774207328,-2.5584451487177065
1773064428998754560,3.3199355602264404,-1.5943636894226074,0.09153622388839722,-0.581703245639801,0.2821389436721802,0.6290495991706848,0.7243579030036926,-0.032596707344055176,0.20354622602462769,0.08278626203536987,-0.2622279710589643,0.867418588780205,0.33130643789697206,-0.2627881093186173,-0.6803300376350409,2.7701687986023322,-2.5446934163758934
1773064429008792576,3.3299736976623535,-1.6138393878936768,0.07381501793861389,-0.7671732306480408,0.2772640883922577,0.6190212965011597,0.7348042130470276,-0.06129118800163269,0.23876678943634033,0.10261332988739014,-0.2561087488105364,0.8684456689463118,0.33645837191863487,-0.25885554810614597,-0.6674959326208416,2.780780317861816,-2.528659897780319
1773064429018830592,3.3400115966796875,-1.482843279838562,0.0937916561961174,-1.0240254402160645,0.2711835205554962,0.6099961996078491,0.7445564866065979,-0.08301213383674622,0.2800337076187134,0.09186935424804688,-0.250582828638599,0.8689034955629156,0.3424689191673891,-0.2548137798274274,-0.6560557840231019,2.7923049179056583,-2.5106552107192885
1773064429028868608,3.3500497341156006,-1.4153790473937988,0.18310528993606567,-1.2607873678207397,0.26313677430152893,0.6022213101387024,0.753716230392456,-0.1014394462108612,0.38139063119888306,0.0964423418045044,-0.24593486641613163,0.8688132465351017,0.3493159705430049,-0.2503154346116422,-0.6462806313010018,2.805702753039909,-2.4904588398923315
1773064429038906624,3.3600876331329346,-1.2650606632232666,0.23646464943885803,-1.4092488288879395,0.253467321395874,0.5953808426856995,0.7624149918556213,-0.08325546979904175,0.5124683976173401,0.12016886472702026,-0.2420162857921742,0.8682880970880656,0.3567678011626424,-0.24539927828887836,-0.6377395780388214,2.82063441289405,-2.4686582973300197
1773064429048944640,3.3701257705688477,-0.8851330280303955,0.30444851517677307,-1.526743769645691,0.24264056980609894,0.5907206535339355,0.7695286273956299,-0.031687840819358826,0.5566486716270447,0.08296447992324829,-0.23953054498493445,0.867184461384162,0.36435618335062675,-0.24054249912548412,-0.6319516565503565,2.836149257656189,-2.446621892535143
1773064429058982656,3.3801636695861816,-0.5311794877052307,0.3495965301990509,-1.591437816619873,0.23082387447357178,0.5889549851417542,0.774501621723175,0.020625725388526917,0.4742012023925781,-0.010341286659240723,-0.23888847339199312,0.865468564779055,0.37177274114748615,-0.2359694673224179,-0.6297651294201926,2.8519451840194514,-2.425073025642927
1773064429069020416,3.3902015686035156,-0.3166205883026123,0.3776574730873108,-1.6498610973358154,0.2184295356273651,0.5894924402236938,0.7776805758476257,0.0758056789636612,0.3316805362701416,-0.021485507488250732,-0.239692090451117,0.8632509376469871,0.3789961714904815,-0.23174854709030798,-0.6304303869333545,2.8677745295679333,-2.40398913346508
1773064429079058688,3.4002397060394287,-0.4366626739501953,0.48168373107910156,-1.7684581279754639,0.2049648016691208,0.5903122425079346,0.7807180881500244,0.08496743440628052,0.21779316663742065,0.05604332685470581,-0.2408933002794514,0.860839350891026,0.3864125472301548,-0.22718129063704817,-0.6314456500178299,2.8848528038637484,-2.382027977458725
