time,seconds_elapsed,rotationRateX,rotationRateY,rotationRateZ,gravityX,gravityY,gravityZ,accelerationX,accelerationY,accelerationZ,quaternionW,quaternionX,quaternionY,quaternionZ,pitch,roll,yaw
1772661031765998848,0.07989168167114258,0.06772991269826889,0.06373442709445953,0.008631860837340355,-0.18497611582279205,-0.14104008674621582,-0.9725695252418518,0.04073478281497955,-0.0038878917694091797,-0.010935723781585693,-0.9882186544499727,-0.07989815450936906,0.08562423135527045,-0.09853291498615456,0.14151192132814716,-0.18794841458940162,0.2121181607788542
1772661031776036864,0.08992958068847656,0.06733319163322449,0.07045358419418335,0.013846063986420631,-0.18436162173748016,-0.14166180789470673,-0.9725958704948425,0.040196582674980164,-0.011811092495918274,-0.007506668567657471,-0.9882139681167816,-0.08018812844139253,0.08527560821386196,-0.09864632586543436,0.1421399500970922,-0.18733362001310008,0.21236168736621852
1772661031786073856,0.09996676445007324,0.08251427859067917,0.07834399491548538,0.012371205724775791,-0.18363620340824127,-0.14235392212867737,-0.9726320505142212,0.03876926004886627,-0.0011397302150726318,-0.0021451711654663086,-0.988210801122318,-0.08050831403313838,0.08486687461071896,-0.09876912797365041,0.14283914637959375,-0.18660674428575139,0.21262193901268514
1772661031796111872,0.11000466346740723,0.11045195162296295,0.08571549504995346,0.01447230577468872,-0.18285240232944489,-0.1432650238275528,-0.9726459383964539,0.03401818871498108,0.017883554100990295,0.0001270771026611328,-0.9881995672047843,-0.08093777486743697,0.08441626290666275,-0.09891654324499978,0.1437596834671015,-0.18582592181850313,0.21294945271050034
1772661031806148864,0.1200416088104248,0.12990102171897888,0.09268978238105774,0.00947648286819458,-0.18198703229427338,-0.14443738758563995,-0.9726348519325256,0.027934297919273376,0.028165414929389954,0.00039058923721313477,-0.9881821529973384,-0.08149433931862733,0.08391213501854826,-0.0990626175140004,0.14494437871566437,-0.18496851280652815,0.21329384065134677
1772661031816186880,0.1300797462463379,0.1379256546497345,0.0959731861948967,0.0055387322790920734,-0.18108190596103668,-0.14572179317474365,-0.972612202167511,0.023199230432510376,0.028030768036842346,0.006425738334655762,-0.9881627818304947,-0.08210433780067722,0.0833833045155436,-0.09919912198341946,0.1462425217752496,-0.1840734423111359,0.21362619006030503
1772661031826223872,0.14011669158935547,0.14514069259166718,0.09126897901296616,-0.0016430141404271126,-0.18017138540744781,-0.14712300896644592,-0.9725703597068787,0.018702879548072815,0.02490009367465973,0.012258470058441162,-0.988141738610472,-0.08277012532466058,0.0828488391906547,-0.09930269979661809,0.14765899217511763,-0.18317619422207831,0.21390246729691823
1772661031836261632,0.15015459060668945,0.12200287729501724,0.07702053338289261,-0.011280727572739124,-0.17934630811214447,-0.1484369933605194,-0.9725232124328613,0.016138315200805664,0.012938931584358215,0.013660907745361328,-0.9881242687078217,-0.08339251157585123,0.082365607133738,-0.09935783460365417,0.14898756771254398,-0.1823645198213722,0.21407807358410205
1772661031846298880,0.16019177436828613,0.10607770085334778,0.07372061163187027,-0.017321575433015823,-0.1785898357629776,-0.14955483376979828,-0.9724911451339722,0.0146036297082901,0.0001407712697982788,0.021334528923034668,-0.9881149205761369,-0.08391613898136299,0.0819299127933302,-0.09936999768732128,0.15011802133951943,-0.1816180027946012,0.2141516595114207
1772661031856335872,0.1702287197113037,0.09861113131046295,0.06382390856742859,-0.023989198729395866,-0.1778866946697235,-0.1505860537290573,-0.9724608659744263,0.01107761263847351,-0.002841070294380188,0.02920830249786377,-0.9881112734371752,-0.08439469825489998,0.08152972266383106,-0.09932976594804398,0.15116105489211404,-0.18092397551789136,0.21411429253023567
1772661031866373888,0.1802666187286377,0.09404114633798599,0.06566495448350906,-0.02942151390016079,-0.17720475792884827,-0.1515539586544037,-0.9724349975585938,0.006138473749160767,-0.0006677061319351196,0.03005218505859375,-0.9881116544744064,-0.08484024289552795,0.08114568801098762,-0.09926160396638811,0.15214020686058613,-0.1802500440217848,0.21401520120294387
1772661031876410624,0.19030356407165527,0.0984189435839653,0.0636044591665268,-0.03418058529496193,-0.17653125524520874,-0.1525350660085678,-0.9724041223526001,0.0035728663206100464,0.00893460214138031,0.028968453407287598,-0.9881121298479847,-0.08529179056052529,0.08076665427349072,-0.0991785160847494,0.15313285636345397,-0.17958520692908814,0.21388740067955667
1772661031886448896,0.20034170150756836,0.10549896210432053,0.05515478551387787,-0.042702432721853256,-0.17589078843593597,-0.15360024571418762,-0.9723525047302246,-0.0010043680667877197,0.022664576768875122,0.02856588363647461,-0.9881120728737066,-0.08578394592482595,0.08040435771613226,-0.09904971266892894,0.1542107348272965,-0.17895680358977628,0.21367801034740572
1772661031896485888,0.21037864685058594,0.12424419075250626,0.03974507004022598,-0.05582688748836517,-0.17534863948822021,-0.15480786561965942,-0.9722589254379272,-0.003728508949279785,0.032707035541534424,0.030806899070739746,-0.9881059986774768,-0.086349684408652,0.080089198989462,-0.0988735988194002,0.15543297351731475,-0.1784336772447247,0.2133955406457284
1772661031906523904,0.22041678428649902,0.1523064523935318,0.012894812971353531,-0.06401584297418594,-0.1749807894229889,-0.15626434981822968,-0.9720921516418457,-0.006980270147323608,0.039473578333854675,0.0320439338684082,-0.9880859028868875,-0.08704711940320799,0.0798543377093191,-0.09865285490149107,0.15690739579274668,-0.17809711751208523,0.2130632146612685
1772661031916560896,0.2304537296295166,0.17194482684135437,-0.005005224607884884,-0.06844028830528259,-0.17481963336467743,-0.1579650342464447,-0.9718462824821472,-0.00791962444782257,0.0472014844417572,0.030668914318084717,-0.9880484658988844,-0.08787704175126122,0.07971510879219443,-0.09840366424699075,0.1586294722045249,-0.17798061247371122,0.21271661375975343
1772661031926598912,0.24049162864685059,0.1857527792453766,-0.025123542174696922,-0.07069171965122223,-0.17483660578727722,-0.15982788801193237,-0.9715386033058167,-0.013914629817008972,0.05637329816818237,0.02778249979019165,-0.9879983895718603,-0.08879636714519681,0.07966126033407174,-0.09812454470914718,0.16051629480569918,-0.17805271534492764,0.21234239652546988
1772661031936635648,0.25052857398986816,0.19576045870780945,-0.04485050588846207,-0.07140371948480606,-0.17505066096782684,-0.16182392835617065,-0.9711695313453674,-0.023160994052886963,0.06386251747608185,0.025155186653137207,-0.9879342549934977,-0.08979266527323478,0.07970261107345233,-0.09782972352997049,0.16253866605801826,-0.17833244172060153,0.21196879719929462
1772661031946672896,0.26056575775146484,0.19791042804718018,-0.06793878227472305,-0.07388365268707275,-0.1754886507987976,-0.16386038064956665,-0.9707489609718323,-0.0312068909406662,0.06539541482925415,0.022155821323394775,-0.9878577537802088,-0.09082109998675464,0.07985648792348377,-0.09752664591952248,0.1646026703882807,-0.17884502773629038,0.21160468774546848
1772661031956710912,0.27060365676879883,0.19616542756557465,-0.08464186638593674,-0.07010835409164429,-0.1761259138584137,-0.16590118408203125,-0.9702867865562439,-0.039648622274398804,0.06494905054569244,0.020060956478118896,-0.9877713770806327,-0.0918621899830804,0.08011205384176412,-0.09721693685825533,0.16667179183634004,-0.17956429602119828,0.21124810634095847
1772661031966747648,0.2806406021118164,0.19979345798492432,-0.11031420528888702,-0.06794160604476929,-0.17696036398410797,-0.1679443120956421,-0.969783365726471,-0.04502449929714203,0.06963194906711578,0.019771158695220947,-0.9876735203868653,-0.09291602255972627,0.08046701255034648,-0.09691595458313729,0.16874399397102505,-0.1804883772129354,0.21093041143655294
1772661031976785920,0.2906787395477295,0.1993722766637802,-0.12386343628168106,-0.07083446532487869,-0.17799249291419983,-0.16999119520187378,-0.9692376852035522,-0.04777655005455017,0.07634800672531128,0.020888686180114746,-0.9875655887694713,-0.0939819890225767,0.08092311177226372,-0.09660751904758011,0.1708207335925349,-0.18161813809988261,0.21061974239906653
1772661031986822912,0.30071568489074707,0.20740409195423126,-0.1498417854309082,-0.07283476740121841,-0.17921806871891022,-0.17207425832748413,-0.9686440825462341,-0.05256292223930359,0.08696073293685913,0.02316373586654663,-0.9874471767886733,-0.09507534857430595,0.0814778859691618,-0.09628076573200493,0.17293495436245127,-0.1829506520086616,0.21029780663374822
1772661031996860672,0.31075358390808105,0.21727408468723297,-0.17377813160419464,-0.07011022418737411,-0.18066585063934326,-0.17426446080207825,-0.9679833650588989,-0.05447208881378174,0.10068657994270325,0.023998379707336426,-0.9873139210157654,-0.09623321942166771,0.08214314366039975,-0.09593212619079419,0.1751587508272443,-0.1845184679382636,0.20996865618141497
1772661032006897920,0.32079076766967773,0.2144428789615631,-0.1923275887966156,-0.07744856178760529,-0.18233001232147217,-0.1765015423297882,-0.9672657251358032,-0.05436432361602783,0.10890510678291321,0.024837136268615723,-0.9871676527168735,-0.09742517493457326,0.08291848684291088,-0.09556622866262707,0.17743105829530403,-0.18631423277760226,0.2096357382824427
1772661032016935936,0.3308286666870117,0.23177509009838104,-0.21269623935222626,-0.07583868503570557,-0.1841927170753479,-0.17879188060760498,-0.9664918780326843,-0.0552787184715271,0.12080846726894379,0.027282893657684326,-0.987008790090877,-0.09865332053321206,0.0837949513039579,-0.09518182936916884,0.17975840406033772,-0.18832037647180153,0.209296443482342
1772661032026972672,0.3408656120300293,0.23811075091362,-0.23106379806995392,-0.0810030847787857,-0.18622983992099762,-0.18123778700828552,-0.9656455516815186,-0.053287357091903687,0.13604123890399933,0.031563520431518555,-0.9868325779283131,-0.09996874635221466,0.08475541304586628,-0.09478480550180228,0.18224493000509698,-0.19051629410754636,0.20897248624143258
1772661032037010944,0.3509037494659424,0.24491795897483826,-0.24475084245204926,-0.0723576620221138,-0.18841539323329926,-0.18371543288230896,-0.9647529721260071,-0.048065319657325745,0.14912375807762146,0.03523331880569458,-0.9866436796899937,-0.10130913404202738,0.08579031606124762,-0.09439643654210997,0.18476489309116764,-0.19287140812016149,0.20869183801787258
1772661032047047936,0.36094069480895996,0.2575131058692932,-0.26968440413475037,-0.055371757596731186,-0.1907905787229538,-0.1862546056509018,-0.9637988209724426,-0.0415702760219574,0.1617642641067505,0.04515868425369263,-0.9864341618981879,-0.1026955995369292,0.0869148967088715,-0.0940591870991879,0.18734865912491888,-0.19543021842778296,0.2085492951216684
1772661032057084672,0.37097764015197754,0.28117209672927856,-0.28645381331443787,-0.03808144852519035,-0.19339947402477264,-0.18893741071224213,-0.9627560973167419,-0.03017231822013855,0.17604373395442963,0.05748265981674194,-0.9861941979036146,-0.10417525728906565,0.08814457073714176,-0.09380414226835429,0.1900799614955901,-0.19824259293111357,0.2086235176675917
1772661032067122944,0.3810157775878906,0.3043767511844635,-0.3017486035823822,-0.016672564670443535,-0.19620314240455627,-0.1918269395828247,-0.9616167545318604,-0.017297834157943726,0.1944209337234497,0.06478142738342285,-0.9859197906207025,-0.10578044782355711,0.08945460353749289,-0.09365160876154964,0.1930233184773759,-0.20127201475914255,0.2089609109631793
1772661032077159936,0.3910527229309082,0.27238789200782776,-0.3050694167613983,0.018272770568728447,-0.19913415610790253,-0.19463537633419037,-0.96044921875,-0.003960326313972473,0.21764563024044037,0.0802001953125,-0.9856269762966351,-0.10736327755106832,0.0908213941817993,-0.0936173243303594,0.1958857006495699,-0.20443781691507787,0.2095539182297586
1772661032087197696,0.4010906219482422,0.20889441668987274,-0.3209410607814789,0.061587221920490265,-0.20222900807857513,-0.19687651097774506,-0.9593451023101807,0.008808597922325134,0.22649380564689636,0.10271668434143066,-0.9853336232504076,-0.1086839177892851,0.09227806937081344,-0.09375646557275577,0.19817104897376045,-0.20775733871817062,0.21046002918719173
1772661032097234688,0.41112756729125977,0.11421952396631241,-0.3353217542171478,0.09076547622680664,-0.20554953813552856,-0.19828388094902039,-0.9583490490913391,0.01180867850780487,0.19262287020683289,0.10317021608352661,-0.9850538344734326,-0.10960771141959359,0.09387025897303128,-0.0940399840970616,0.1996067227181494,-0.21128190317190654,0.21159199925959615
1772661032107272960,0.42116570472717285,-0.009955156594514847,-0.3501097559928894,0.11652570217847824,-0.20907077193260193,-0.1985672414302826,-0.957528293132782,0.0008798539638519287,0.1463669240474701,0.09143942594528198,-0.9848120793482471,-0.10997822922390092,0.09560666655701179,-0.09438948867405081,0.19989584253750534,-0.21497042349550263,0.21274684253027978
1772661032117309696,0.43120265007019043,-0.07768493890762329,-0.36938491463661194,0.1374988853931427,-0.21279439330101013,-0.19782274961471558,-0.9568619132041931,-0.011052057147026062,0.11667652428150177,0.09026950597763062,-0.9846035524360464,-0.10984404064801771,0.09748504450628448,-0.0947987054523412,0.1991362795315312,-0.21882670019797576,0.21391767820610255
1772661032127347968,0.4412407875061035,-0.09722401946783066,-0.3781062066555023,0.14562419056892395,-0.216644749045372,-0.19665975868701935,-0.9562374353408813,-0.00945998728275299,0.11726829409599304,0.07762110233306885,-0.9844013559282262,-0.10951010662987999,0.09944258810936313,-0.09525109742299233,0.19794998505685127,-0.2227983816638586,0.21513510962566895
1772661032137384960,0.4512777328491211,-0.04926132783293724,-0.39136117696762085,0.15956652164459229,-0.220625638961792,-0.19558458030223846,-0.9555475115776062,0.005339384078979492,0.14523057639598846,0.0592157244682312,-0.9841778092392671,-0.10923516972701673,0.10145903425187253,-0.09574837584206568,0.1968535118705841,-0.22691279424843958,0.21646732410347888
1772661032147422720,0.4613156318664551,0.04061556234955788,-0.40207400918006897,0.16919198632240295,-0.22476604580879211,-0.1951424479484558,-0.9546725153923035,0.021625801920890808,0.1767556071281433,0.04584383964538574,-0.9838968013046641,-0.10930537353619943,0.10351844888943572,-0.09634981531658798,0.196402688231476,-0.23122685330874068,0.2181121147240085
1772661032157459712,0.47135257720947266,0.15330460667610168,-0.410136878490448,0.16753455996513367,-0.22898812592029572,-0.19567354023456573,-0.9535598158836365,0.021804288029670715,0.19108064472675323,0.033561646938323975,-0.9835484986891255,-0.10988663078269036,0.10556999562012587,-0.09701679648032557,0.19694421578100388,-0.23567761614451815,0.22003329579322572
1772661032167497984,0.48139071464538574,0.24235405027866364,-0.4026182293891907,0.15742306411266327,-0.23317788541316986,-0.19718961417675018,-0.952231228351593,0.00829385221004486,0.19703702628612518,0.023749172687530518,-0.9831436038353005,-0.11097352463439741,0.10756048796876803,-0.09769482741215423,0.19849041915983354,-0.24014961134159468,0.22211608824027304
1772661032177534720,0.4914276599884033,0.3396270275115967,-0.3905526399612427,0.1543203592300415,-0.23726613819599152,-0.19960230588912964,-0.9507174491882324,-0.001991674304008484,0.19969385862350464,0.021365702152252197,-0.9826876463282589,-0.112520207910326,0.10945532289657518,-0.09840607494597091,0.20095203584766577,-0.24456953211679242,0.2243927713401565
1772661032187571712,0.5014646053314209,0.38384297490119934,-0.3751057982444763,0.14752823114395142,-0.2412087470293045,-0.20274235308170319,-0.9490594863891602,-0.0025046318769454956,0.19401432573795319,0.022377967834472656,-0.9821930593957738,-0.11443616320871237,0.11124130540537994,-0.09912890781023874,0.20415762601938683,-0.24888593616224383,0.22679660104349494
1772661032197609984,0.511502742767334,0.39987191557884216,-0.36459243297576904,0.14584803581237793,-0.2450193166732788,-0.20611737668514252,-0.9473548531532288,-0.0020815283060073853,0.1872727870941162,0.02871471643447876,-0.9817839905956641,-0.1163582838042213,0.11306340510428838,-0.09888267880425944,0.20760546549758463,-0.2530892658031491,0.22726394080646006
1772661032207646720,0.5215396881103516,0.3998998701572418,-0.36911848187446594,0.14891253411769867,-0.2488139271736145,-0.20954303443431854,-0.9456126689910889,0.002369225025177002,0.17276935279369354,0.04255175590515137,-0.9812650782815866,-0.11842309574282847,0.11475899170193933,-0.09962558742715474,0.21110759377006466,-0.2572925392935952,0.22977119200593848
1772661032217684736,0.5315775871276855,0.40017279982566833,-0.36877715587615967,0.15084266662597656,-0.25263676047325134,-0.21293318271636963,-0.9438400864601135,0.005780071020126343,0.16227400302886963,0.0580216646194458,-0.9807369521872569,-0.12047796458046474,0.11646890818077021,-0.1003752954167755,0.21457601054281425,-0.26153795534270724,0.23231120087073542
1772661032227721984,0.5416147708892822,0.4335954785346985,-0.36794519424438477,0.17017480731010437,-0.25647276639938354,-0.21646112203598022,-0.942001223564148,0.007708728313446045,0.17127984762191772,0.07734668254852295,-0.9801843522151267,-0.12261783378316625,0.11817046809227447,-0.10118871404369068,0.21818819352438412,-0.2658205519564248,0.2350255268032878
1772661032237759744,0.5516526699066162,0.5046972632408142,-0.36731472611427307,0.18869245052337646,-0.2603355348110199,-0.22040347754955292,-0.9400253891944885,0.010472893714904785,0.19678287208080292,0.09320837259292603,-0.9795834112400997,-0.12499311284463081,0.11985003776586726,-0.10212294533029909,0.2222281054525747,-0.2701737769534415,0.23807899404582747
1772661032247796736,0.5616896152496338,0.6181178689002991,-0.37148576974868774,0.21589051187038422,-0.26427456736564636,-0.22514061629772186,-0.937800943851471,0.00835418701171875,0.23837000131607056,0.10973703861236572,-0.978900971316348,-0.1278085709981491,0.12150919080529181,-0.10321545427352384,0.2270873549648118,-0.2746792894151164,0.24162260931474486
1772661032257835008,0.5717277526855469,0.7588502764701843,-0.3872525990009308,0.2501972019672394,-0.2683749794960022,-0.23098811507225037,-0.9352108836174011,0.010791361331939697,0.282959520816803,0.13008087873458862,-0.9780990340759963,-0.13124357066895212,0.12316531748660357,-0.10453553729618,0.23309313948920699,-0.2794577769044831,0.245873871447413
1772661032267871744,0.5817646980285645,0.9138686060905457,-0.422310471534729,0.30347907543182373,-0.27283716201782227,-0.2380771040916443,-0.9321368932723999,0.014643192291259766,0.3184909224510193,0.1528095006942749,-0.9771392099502083,-0.13539177890529935,0.12490247089363749,-0.10614734308327715,0.24038554256605377,-0.2847468507442064,0.2510339044961694
1772661032277909760,0.5918025970458984,1.0480928421020508,-0.4800790548324585,0.3798850178718567,-0.277885377407074,-0.24630607664585114,-0.9285004138946533,0.020561158657073975,0.34364187717437744,0.18561100959777832,-0.9759901341695617,-0.1402341987376554,0.1268233414888834,-0.10813591898911695,0.2488670503503585,-0.2907998324293057,0.2573196893386131
1772661032287947008,0.6018397808074951,1.1847405433654785,-0.5492837429046631,0.4688063859939575,-0.2837519347667694,-0.25546252727508545,-0.9242422580718994,0.02995249629020691,0.36544787883758545,0.22421479225158691,-0.9746275487570356,-0.14569414904958575,0.1290429837981046,-0.11055435256922114,0.2583260827859337,-0.2978758376441631,0.2648729008982474
1772661032297984000,0.6118767261505127,1.3316367864608765,-0.6391171813011169,0.5675110816955566,-0.2905924916267395,-0.2656038701534271,-0.9192445874214172,0.037617027759552,0.3848207890987396,0.25144368410110474,-0.9730096991301942,-0.15183439493369155,0.13162077324319332,-0.11346543662257728,0.26883022655926736,-0.30618028126093466,0.2739024566995846
1772661032308021760,0.6219146251678467,1.4826966524124146,-0.7368775606155396,0.6846720576286316,-0.29860013723373413,-0.27666857838630676,-0.9133961200714111,0.04396146535873413,0.39957812428474426,0.27409863471984863,-0.9710976580656886,-0.15866074996181956,0.13464291362897496,-0.11690765008104737,0.28032564017267714,-0.3159602643470348,0.28456628328383343
1772661032318058752,0.6319515705108643,1.6659040451049805,-0.8487305045127869,0.8213344812393188,-0.3079732358455658,-0.28872618079185486,-0.9065261483192444,0.052892059087753296,0.42793214321136475,0.2928176522254944,-0.9688255842115517,-0.1662651713470665,0.13817674251572837,-0.1209961847101413,0.2928960938287526,-0.32749557119304173,0.2972261921780575
1772661032328096768,0.6419897079467773,1.8930482864379883,-0.9666334390640259,0.9611054062843323,-0.3188297152519226,-0.30201029777526855,-0.8984082341194153,0.05746188759803772,0.46221232414245605,0.29766976833343506,-0.966114675515524,-0.17482359862294622,0.14224126631456063,-0.12580383782712176,0.30680071518646834,-0.34101818093528896,0.31220629442058867
1772661032338133760,0.6520266532897949,2.171682596206665,-1.0798358917236328,1.110703468322754,-0.33123156428337097,-0.31681257486343384,-0.8887718915939331,0.05426928400993347,0.49720197916030884,0.3000267744064331,-0.9628744829557054,-0.18454600981877564,0.14682246342036945,-0.13137196680171978,0.3223670616216443,-0.3567391505298027,0.3298099438180396
1772661032348172032,0.662064790725708,2.5201597213745117,-1.1886824369430542,1.2647124528884888,-0.34515997767448425,-0.3335375487804413,-0.8772783279418945,0.05000922083854675,0.5363421440124512,0.30447864532470703,-0.9589882804962983,-0.19571491829505572,0.15184366248654188,-0.13777023411643619,0.3400535244274193,-0.3748419712960047,0.35046734167220633
1772661032358208768,0.6721017360687256,2.9132301807403564,-1.2888975143432617,1.4244166612625122,-0.3606226444244385,-0.35248592495918274,-0.8635421395301819,0.04212594032287598,0.5748980045318604,0.2986617088317871,-0.9543192280656373,-0.20858145952260412,0.15723459655754357,-0.14507196645076567,0.360226206972461,-0.39559347474705303,0.37467649209933235
1772661032368246784,0.6821396350860596,3.3282241821289062,-1.3862665891647339,1.5756895542144775,-0.37756800651550293,-0.3736990988254547,-0.8472257256507874,0.03572535514831543,0.6090811491012573,0.30410438776016235,-0.9487428694098576,-0.2232668429863317,0.16290813220399733,-0.15329670532337614,0.3829938554648154,-0.41923241244187387,0.40283116279021103
1772661032378283776,0.6921765804290771,3.748023509979248,-1.5002919435501099,1.7633079290390015,-0.39614570140838623,-0.39695265889167786,-0.8279476165771484,0.03197944164276123,0.6346541047096252,0.32349205017089844,-0.9421117631651056,-0.23979842933740678,0.1688872947816251,-0.16247871433623,0.4081943295426859,-0.44627338792858534,0.4354290473196905
1772661032388321792,0.7022147178649902,4.1491546630859375,-1.62006413936615,1.9782428741455078,-0.41661906242370605,-0.42171162366867065,-0.8053495287895203,0.033852338790893555,0.6525160074234009,0.35512369871139526,-0.9342564010690867,-0.2580964539349076,0.17524684556786588,-0.17274179963367367,0.43533217470074453,-0.4774031445668308,0.47320129742024336
1772661032398358784,0.7122516632080078,4.5139665603637695,-1.7621959447860718,2.198237895965576,-0.43916869163513184,-0.4471853971481323,-0.7792021632194519,0.029866963624954224,0.6547964811325073,0.3925597667694092,-0.9250439759217113,-0.2779444693833227,0.18205981651216072,-0.1841051691347058,0.46361609406725607,-0.5132347523111224,0.5166352016021699
1772661032408395776,0.7222886085510254,4.88282585144043,-1.9113119840621948,2.410857915878296,-0.4639192521572113,-0.47278231382369995,-0.7491700649261475,0.004095643758773804,0.6405375003814697,0.43183302879333496,-0.9143257475616843,-0.2992361573146727,0.1894009054946012,-0.19645185356803,0.4924456189540961,-0.5544496440227819,0.5660697647950416
1772661032418433792,0.7323267459869385,5.256157398223877,-2.032355308532715,2.6062374114990234,-0.49066397547721863,-0.4980282485485077,-0.7149942517280579,-0.04118114709854126,0.6149716377258301,0.4564340114593506,-0.9019486672173526,-0.32192633043591035,0.19714543124356382,-0.20972788369044237,0.5213235002278642,-0.6014372658215984,0.6219982054428886
1772661032428470784,0.742363691329956,5.604601860046387,-2.1397762298583984,2.8037362098693848,-0.5190936923027039,-0.5222586393356323,-0.6766000390052795,-0.09585076570510864,0.5956534743309021,0.47736603021621704,-0.8878006729807385,-0.34585592183254965,0.20514301043300276,-0.22385258673265493,0.549497363808987,-0.6544242403704533,0.6847538182237449
1772661032438507776,0.7524006366729736,5.931941032409668,-2.215471029281616,3.0332672595977783,-0.5490450263023376,-0.5446107983589172,-0.6339942812919617,-0.15572792291641235,0.5738466382026672,0.5091468691825867,-0.8717455501680685,-0.3708153210826162,0.21330460887159874,-0.23886599608761405,0.5759249590385209,-0.7137152525108437,0.7548525292961948
1772661032448544768,0.7624375820159912,6.23738431930542,-2.3202414512634277,3.273732900619507,-0.5804833173751831,-0.5640214681625366,-0.5872978568077087,-0.21684938669204712,0.5437577962875366,0.543123722076416,-0.8536550955536998,-0.39651389462179104,0.2216478924177826,-0.2547976749824186,0.5992477777568955,-0.7795627668849955,0.8325828224874765
1772661032458582528,0.7724754810333252,6.546760559082031,-2.410247802734375,3.502194404602051,-0.613317608833313,-0.57979416847229,-0.5363582372665405,-0.28202229738235474,0.5024016499519348,0.5783962607383728,-0.8333362279195928,-0.4228825469605771,0.2301982405350045,-0.27153227961309967,0.6184760632614261,-0.8522384872279455,0.9180218213884175
1772661032468619776,0.7825126647949219,6.7487473487854,-2.4639294147491455,3.7240183353424072,-0.6470308899879456,-0.5909489393234253,-0.48179909586906433,-0.36033910512924194,0.4554203748703003,0.6082334518432617,-0.8108101843190726,-0.44952153064833933,0.23881130466203257,-0.2889401347640887,0.6322346314297808,-0.9307403987424836,1.0102471192517384
1772661032478657792,0.7925505638122559,6.8728227615356445,-2.4477086067199707,3.964944362640381,-0.681159257888794,-0.5963296294212341,-0.42475074529647827,-0.45674973726272583,0.41754233837127686,0.6469796895980835,-0.7862309590354575,-0.4758252572586718,0.24741656540245052,-0.3069468412211011,0.6389209971292703,-1.0132257077629196,1.1074943903708436
1772661032488694784,0.8025875091552734,6.914468765258789,-2.4169628620147705,4.187763690948486,-0.7152246236801147,-0.595183253288269,-0.3663477599620819,-0.5676885843276978,0.36180007457733154,0.6678004264831543,-0.7597388074096535,-0.5013452992735523,0.255888657972616,-0.32553163796790724,0.6374936706193484,-1.0974256430220701,1.2077629491929236
1772661032498732800,0.8126256465911865,6.549808025360107,-2.4397692680358887,4.448897361755371,-0.7490447163581848,-0.5863578915596008,-0.30840981006622314,-0.7122284770011902,0.25835490226745605,0.6737204790115356,-0.7319156573463493,-0.5250794756958002,0.264738823245468,-0.34424476822637473,0.6265553170601843,-1.1802125390832672,1.3065458462005015
1772661032508769792,0.8226625919342041,5.965554237365723,-2.310196876525879,4.729124069213867,-0.7824186086654663,-0.5686976909637451,-0.25377997756004333,-0.8661410212516785,0.08351397514343262,0.7339893579483032,-0.7037220853679838,-0.5456389693101201,0.27456898696049803,-0.3628572047314087,0.6049217533123048,-1.2571495448865322,1.3982483821501799
1772661032518807552,0.8327004909515381,5.436028003692627,-2.0000405311584473,4.902875900268555,-0.8143681883811951,-0.5431203842163086,-0.20451058447360992,-1.0311670303344727,-0.1721353530883789,0.7392243146896362,-0.6758055923144953,-0.5626560102725322,0.2848910742648275,-0.3814997495477105,0.5741489623948035,-1.3247563929924806,1.4804550908791363
1772661032528844800,0.8427376747131348,4.78152322769165,-1.4211055040359497,5.002431392669678,-0.8437504172325134,-0.5112928748130798,-0.16329394280910492,-1.2185969352722168,-0.41328299045562744,0.6051732301712036,-0.6489879324936066,-0.5757870493393995,0.2946562491227229,-0.4005766711169256,0.5366884756662594,-1.3796262560267794,1.5521600538476181
1772661032538881792,0.8527746200561523,4.0650224685668945,-1.0763345956802368,5.070598602294922,-0.8705196976661682,-0.4744449853897095,-0.13075736165046692,-1.376138687133789,-0.5389827489852905,0.44369983673095703,-0.6238750403421065,-0.5848844605896988,0.30418988854243934,-0.4197125894397598,0.49433342573906647,-1.421704832073181,1.6122686175820176
1772661032548919552,0.8628125190734863,3.33127498626709,-0.9484895467758179,5.080378532409668,-0.8948799967765808,-0.4337821900844574,-0.10498949140310287,-1.4190237522125244,-0.5702613592147827,0.2722868323326111,-0.6004545793371969,-0.5905316123669313,0.31428914846659833,-0.4381198589969375,0.44868623917717837,-1.4540077921668222,1.6612097934720973
1772661032558956800,0.872849702835083,2.525594711303711,-0.9386144280433655,5.0251665115356445,-0.9166990518569946,-0.3905867040157318,-0.08428997546434402,-1.3383820056915283,-0.5931626558303833,0.12139935046434402,-0.578901310951323,-0.5932014992853168,0.3255257203960041,-0.45499252189207934,0.4012688472867653,-1.479104702953989,1.6991265172990042
1772661032568994816,0.882887601852417,1.6826937198638916,-0.9748696088790894,4.897473335266113,-0.935806930065155,-0.34597092866897583,-0.06759865581989288,-1.1764061450958252,-0.6564856767654419,0.03441077470779419,-0.5595040409167638,-0.5931597550491865,0.3381747711421138,-0.46984528178943524,0.3532734116516771,-1.498685887499559,1.7261628637525104
1772661032579031808,0.8929245471954346,0.9066425561904907,-1.016318678855896,4.672346115112305,-0.9519965052604675,-0.3013215661048889,-0.053927093744277954,-1.0009758472442627,-0.7246488332748413,-0.024243652820587158,-0.5424894021600595,-0.5908059854800307,0.3521146708272072,-0.4823576251427335,0.3060783475250415,-1.51421048579127,1.743054721460485
1772661032589069824,0.9029626846313477,0.22021520137786865,-0.972243070602417,4.3179802894592285,-0.9651280641555786,-0.2582627832889557,-0.04275837168097496,-0.8581293821334839,-0.7571027874946594,-0.05926191806793213,-0.5280215314739412,-0.586626546833544,0.36672893049690214,-0.49251650557269233,0.26122355726924334,-1.5265219637993186,1.7512702961632913
1772661032599106816,0.9129996299743652,-0.37492647767066956,-0.8984473943710327,3.9177327156066895,-0.9753382205963135,-0.2181006222963333,-0.033875104039907455,-0.7413976192474365,-0.7620629668235779,-0.07504212856292725,-0.516265049292468,-0.5809836833196524,0.3814713717964079,-0.50040783260902,0.21986780774316497,-1.5360786343103985,1.7520258453196162
1772661032609144576,0.9230375289916992,-0.7321018576622009,-0.7644084095954895,3.473410129547119,-0.9830178618431091,-0.18154944479465485,-0.026756711304187775,-0.6135246157646179,-0.7825770974159241,-0.04907948151230812,-0.506925874054315,-0.5744271849878989,0.3957967323179058,-0.5063641535575621,0.18256185797031796,-1.5435840986142948,1.7473741467293002
1772661032619181824,0.9330747127532959,-0.9999259114265442,-0.8112166523933411,3.105618715286255,-0.9886462688446045,-0.14884862303733826,-0.020559053868055344,-0.472794771194458,-0.8100746870040894,-0.030618906021118164,-0.49947380054257545,-0.5675701791449821,0.40937093805774855,-0.5106911726575312,0.14940381967362876,-1.550004167484449,1.7393447426840192
1772661032629219840,0.9431126117706299,-1.196687936782837,-0.8153919577598572,2.7133593559265137,-0.992723286151886,-0.11960794776678085,-0.013946369290351868,-0.319990336894989,-0.8132839202880859,-0.061416804790496826,-0.49340870630757333,-0.5608019825769345,0.4225256818149861,-0.5133430171682303,0.11989498292305312,-1.5567486538842332,1.7286187914045923
1772661032639256832,0.9531495571136475,-1.2023106813430786,-0.8918382525444031,2.2517576217651367,-0.9954840540885925,-0.09468556195497513,-0.006799678318202496,-0.19622737169265747,-0.794672966003418,-0.022680282592773438,-0.4885593488425357,-0.554663880901591,0.4346816536579412,-0.5144993878818194,0.09482761496999591,-1.5639659081531412,1.7166897521567703
1772661032649293568,0.963186502456665,-1.2106051445007324,-0.978291392326355,1.822239875793457,-0.997237503528595,-0.07426267862319946,0.0015488667413592339,-0.13272154331207275,-0.739931046962738,-0.0799485445022583,-0.4845712257316325,-0.5496305901319666,0.4457360741305573,-0.5142142209666762,0.07433111035746348,-1.5723494829499516,1.7045835086169137
1772661032659331840,0.9732246398925781,-1.0870083570480347,-0.9778239727020264,1.4334098100662231,-0.9982603788375854,-0.058002348989248276,0.010574868880212307,-0.08728033304214478,-0.6549493074417114,-0.07583677768707275,-0.48134890966649835,-0.5456480158110294,0.4555827884857369,-0.5128505912247052,0.05803492204647122,-1.5813892276107562,1.6927986292298836
1772661032669368832,0.9832615852355957,-0.8125779032707214,-0.9450258016586304,1.0402777194976807,-0.9987596869468689,-0.045718707144260406,0.019717959687113762,-0.08435487747192383,-0.5796322226524353,-0.08656668663024902,-0.47854490679566913,-0.5429652766081792,0.4637323452631617,-0.5110144175958873,0.04573464857930504,-1.5905362088069046,1.6830430684877022
1772661032679406592,0.9932994842529297,-0.5554601550102234,-0.8326064944267273,0.6808691024780273,-0.9989030957221985,-0.037245675921440125,0.028378929942846298,-0.12479990720748901,-0.5248728394508362,-0.12075567245483398,-0.47610721610797624,-0.5415949922155909,0.4699620509076611,-0.5090505629020611,0.037254291719667654,-1.5991987791863749,1.6759782284725142
1772661032689443840,1.0033366680145264,-0.29348844289779663,-0.6348180770874023,0.3904242515563965,-0.9988552927970886,-0.03198893368244171,0.035563208162784576,-0.1691439151763916,-0.4814693331718445,-0.09731554985046387,-0.4741639340222441,-0.5411660495226492,0.47425827499419915,-0.5073331740375848,0.031994392252379364,-1.6063852581935856,1.6715132613915757
1772661032699481600,1.0133745670318604,-0.013293828815221786,-0.4024287462234497,0.1516643762588501,-0.9987440705299377,-0.029277920722961426,0.04066018387675285,-0.19977277517318726,-0.4630011022090912,-0.07738804817199707,-0.47265925639394024,-0.5414422333873298,0.47662395991558787,-0.5062244948269015,0.029282104601541594,-1.6114851694027879,1.6698464533640986
1772661032709518592,1.023411512374878,0.28069305419921875,-0.17327119410037994,-0.04921972006559372,-0.9986453056335449,-0.028615079820156097,0.043459754437208176,-0.20277070999145508,-0.4622906744480133,-0.05835235118865967,-0.47148294227621435,-0.5423136483353752,0.4771014394933137,-0.5059387268408192,0.028618985917780594,-1.6142875916990125,1.6711619465870948
1772661032719556864,1.033449649810791,0.5989915132522583,0.03351859748363495,-0.23564964532852173,-0.9985838532447815,-0.02976156957447529,0.04409532994031906,-0.18430793285369873,-0.46338725090026855,-0.04534649848937988,-0.4705070439715936,-0.5437974281319755,0.4757436521766364,-0.5065327392509362,0.02976596553212478,-1.6149255226010548,1.6756166398985277
1772661032729593856,1.0434865951538086,0.9181484580039978,0.2016463577747345,-0.3985682427883148,-0.9985455274581909,-0.03256116062402725,0.042970553040504456,-0.1482744812965393,-0.45115771889686584,-0.03949153795838356,-0.46954923650350744,-0.5459862141211227,0.4726355153283818,-0.5079745855777635,0.032566916369406125,-1.6138029356399914,1.6833717849198662
1772661032739631616,1.0535244941711426,1.2535861730575562,0.3423675000667572,-0.5290179252624512,-0.9985026121139526,-0.03674464672803879,0.0405290313065052,-0.10074067115783691,-0.4251846671104431,-0.03779768571257591,-0.4684156606437653,-0.548912492250798,0.46793118264544004,-0.5102179403282665,0.03675292054594315,-1.6113638690384071,1.6944490141471231
1772661032749668864,1.0635616779327393,1.5819541215896606,0.47180405259132385,-0.6275253295898438,-0.9984349608421326,-0.041975051164627075,0.03696146234869957,-0.05336880683898926,-0.39586061239242554,-0.03390967473387718,-0.4669406392090917,-0.552527275994061,0.4617297259580885,-0.5133087632712731,0.04198738546189503,-1.6077988287532177,1.7089007726576801
1772661032759705856,1.0735986232757568,1.8743425607681274,0.5786861777305603,-0.7115068435668945,-0.998316764831543,-0.04808605834841728,0.03242771700024605,-0.016911625862121582,-0.3670292794704437,-0.02398955449461937,-0.4650752322987274,-0.5567424216197648,0.4541494627212491,-0.517195550884824,0.04810460964506067,-1.6032673032347124,1.726510949969221
1772661032769743616,1.0836365222930908,2.142094612121582,0.6767507195472717,-0.7815059423446655,-0.9981188178062439,-0.05498044937849045,0.027124077081680298,0.006877541542053223,-0.34290775656700134,-0.008340483531355858,-0.4628163264945913,-0.5614586743473524,0.445338293827566,-0.5217651830289021,0.05500818685676581,-1.5979648389379613,1.7469200055056793
1772661032779780864,1.0936737060546875,2.3917922973632812,0.7702397704124451,-0.841427743434906,-0.9978166818618774,-0.06255985051393509,0.02116714045405388,0.03150814771652222,-0.3284313678741455,0.01357710175216198,-0.4601476305469496,-0.5665832812094045,0.4353928754069074,-0.5269540301511979,0.0626007270656325,-1.5920066021803698,1.7698907765086047
1772661032789818880,1.1037116050720215,2.633718490600586,0.834653377532959,-0.9149277806282043,-0.9973731637001038,-0.07091765850782394,0.014751746319234371,0.06121593713760376,-0.32111114263534546,0.024295449256896973,-0.45704948717807425,-0.5721163860860773,0.4243332582227166,-0.5326631086356537,0.07097723635541765,-1.5855858471388447,1.795333188495429
1772661032799855616,1.113748550415039,2.8503870964050293,0.8661296367645264,-0.9926503896713257,-0.9967479705810547,-0.08015960454940796,0.008246311917901039,0.09301567077636719,-0.31756073236465454,0.03350174427032471,-0.45349998783586803,-0.5780832038927253,0.4122413921360896,-0.5387157312736585,0.08024570008169249,-1.5790693548674328,1.8230560795995197
1772661032809893888,1.1237866878509521,3.0317118167877197,0.8789591789245605,-1.0556175708770752,-0.9959132671356201,-0.0902927964925766,0.0019699723925441504,0.1267574429512024,-0.3149653971195221,0.04868924617767334,-0.4495010311211787,-0.584454921687413,0.3992460779472714,-0.5449438404382493,0.0904159399002153,-1.5727743804855334,1.8527568009012725
1772661032819930880,1.1338236331939697,3.1635544300079346,0.878541886806488,-1.1089951992034912,-0.9948596358299255,-0.10118862986564636,-0.003903340082615614,0.16136354207992554,-0.31230926513671875,0.0671204924583435,-0.44509345623576047,-0.5911175886064759,0.3855234446718017,-0.5512200550399883,0.10136211360666005,-1.566872838681218,1.8840005148242902
1772661032829968640,1.1438615322113037,3.2519772052764893,0.8696181774139404,-1.1552265882492065,-0.9935799241065979,-0.11275045573711395,-0.009294514544308186,0.19498062133789062,-0.31194740533828735,0.08592414855957031,-0.44036130206798135,-0.5979454276463055,0.3712330913697538,-0.5574309032673057,0.11299072950197696,-1.5614420274503733,1.9163265682120805
1772661032840005632,1.1538984775543213,3.278538703918457,0.8440371155738831,-1.2153886556625366,-0.9920487999916077,-0.125068798661232,-0.014031876809895039,0.21635305881500244,-0.3170088231563568,0.10311269760131836,-0.4354509045945806,-0.6048755037617313,0.35652445444608183,-0.5633812207979018,0.1253971811787782,-1.5566529286689545,1.9492095739930422
1772661032850043648,1.1639366149902344,3.254735231399536,0.783517599105835,-1.2383960485458374,-0.9902786612510681,-0.1379396617412567,-0.017914438620209694,0.22656100988388062,-0.3225705623626709,0.11640995740890503,-0.43043814206858044,-0.6118124607121609,0.34165522664131653,-0.5689290529815435,0.13838089491943598,-1.552707999614851,1.9821074342877407
1772661032860080640,1.173973560333252,3.1874916553497314,0.7136819362640381,-1.231766939163208,-0.9883316159248352,-0.1509045660495758,-0.02069883607327938,0.2363174557685852,-0.3238574266433716,0.13184386491775513,-0.4253082866455129,-0.6186658287725433,0.3269605081287729,-0.5739880432746662,0.1514832504571486,-1.54985617747248,2.0145537419926676
1772661032870118912,1.184011697769165,3.0677578449249268,0.6560279726982117,-1.2174040079116821,-0.9862417578697205,-0.16376176476478577,-0.022566597908735275,0.23677581548690796,-0.31933149695396423,0.15013009309768677,-0.42019686688646685,-0.6252898068159126,0.3126169517314149,-0.5785480733146401,0.16450270037362588,-1.5479189128012496,2.0460768758024037
1772661032880155904,1.1940486431121826,2.9112191200256348,0.6052381992340088,-1.2086611986160278,-0.9840160012245178,-0.17649222910404205,-0.02372661978006363,0.2183910608291626,-0.31156012415885925,0.17056196928024292,-0.4152859087256782,-0.631578796161606,0.2987388731919896,-0.5825812261162268,0.17742159184612763,-1.5466889712987653,2.076229031257968
1772661032890192640,1.2040855884552002,2.724144697189331,0.5498351454734802,-1.1872243881225586,-0.9816768169403076,-0.18900258839130402,-0.024259153753519058,0.19928252696990967,-0.2994617521762848,0.18848949670791626,-0.41067693229860197,-0.6374822288147493,0.2854589833918358,-0.5860665257608785,0.1901463232054566,-1.5460894004652659,2.104687755292498
1772661032900230656,1.2141234874725342,2.507396936416626,0.49539914727211,-1.154632568359375,-0.9792473316192627,-0.20120736956596375,-0.02429582178592682,0.1853172779083252,-0.28068041801452637,0.20930862426757812,-0.4064681177195889,-0.6429488804709319,0.2728897686842955,-0.589009013583717,0.2025903486125696,-1.5459907054236983,2.131166279797978
1772661032910267904,1.2241606712341309,2.2563440799713135,0.42768508195877075,-1.1196215152740479,-0.9767624735832214,-0.21299001574516296,-0.02388504520058632,0.17363137006759644,-0.25669074058532715,0.2323964238166809,-0.40275409285748354,-0.6479452670160277,0.2611980255490471,-0.5913812010005098,0.21463417575425153,-1.5463479199518257,2.1553062297416283
1772661032920305664,1.2341985702514648,1.9854463338851929,0.347831666469574,-1.0852237939834595,-0.9742483496665955,-0.22429874539375305,-0.023027367889881134,0.16673797369003296,-0.23636408150196075,0.25435060262680054,-0.3996091080446863,-0.6524817316933422,0.25050729791301585,-0.5931494557493941,0.22622339262792845,-1.5471646933052037,2.1768535233261477
1772661032930342656,1.2442355155944824,1.7169362306594849,0.24682407081127167,-1.0587959289550781,-0.971698522567749,-0.23522605001926422,-0.021689681336283684,0.15051639080047607,-0.21930274367332458,0.27608418464660645,-0.3971030488581853,-0.656616220029378,0.24085327338956258,-0.5942675124647208,0.2374511421158666,-1.5484786232159948,2.1956919825913097
1772661032940380928,1.2542736530303955,1.4423236846923828,0.15557833015918732,-1.0356913805007935,-0.9691210389137268,-0.24578680098056793,-0.019832445308566093,0.1239519715309143,-0.20562922954559326,0.29038602113723755,-0.3952532941665481,-0.6604055633125758,0.2322676675345026,-0.5947193543764027,0.24833130291115368,-1.5503348199118878,2.211796532518834
1772661032950417664,1.264310598373413,1.1847710609436035,0.06781625002622604,-1.0129401683807373,-0.9665219783782959,-0.25598058104515076,-0.017594443634152412,0.08416712284088135,-0.19506922364234924,0.30062973499298096,-0.3940734311692099,-0.6638516871785727,0.22473031662902082,-0.5945616208581467,0.2588619460183488,-1.5525944628068338,2.2251987401101827
1772661032960455680,1.274348497390747,0.9414693713188171,0.0020899688825011253,-0.9919955134391785,-0.9638873338699341,-0.2658810019493103,-0.015124998055398464,0.03433704376220703,-0.1842532753944397,0.30488938093185425,-0.39355639998010106,-0.6669703062428638,0.2181469952301386,-0.5938653175694626,0.26911769805029917,-1.55510594888246,2.236062677836203
1772661032970492928,1.2843856811523438,0.7147670388221741,-0.044761959463357925,-0.9746559858322144,-0.9612170457839966,-0.275503009557724,-0.012639960274100304,-0.019892454147338867,-0.177683025598526,0.30650895833969116,-0.39368512986203125,-0.6697407017072095,0.2124321363372742,-0.5927326167980115,0.27911291088790047,-1.5576471310146094,2.244538118106273
1772661032980530688,1.2944235801696777,0.5258656144142151,-0.07370452582836151,-0.9706671833992004,-0.958478569984436,-0.2849777042865753,-0.010324119590222836,-0.06913983821868896,-0.16787263751029968,0.3021942377090454,-0.39444204276339484,-0.6721688611602508,0.20742941469733767,-0.5912508216776705,0.2889831567219316,-1.560025380701963,2.25087339431357
1772661032990567680,1.3044605255126953,0.37646809220314026,-0.09626709669828415,-0.9808465838432312,-0.9556466341018677,-0.2944013476371765,-0.00819670781493187,-0.10268759727478027,-0.1519639790058136,0.29086577892303467,-0.395733944063906,-0.6743171843587217,0.20297285741293147,-0.589485316889441,0.2988290567292361,-1.5622194045506221,2.2554709330649243
1772661033000604928,1.314497709274292,0.2700244188308716,-0.11815042048692703,-1.0049939155578613,-0.9526628851890564,-0.3039654791355133,-0.006184618920087814,-0.12260860204696655,-0.1323137879371643,0.2709246277809143,-0.39746993165479716,-0.6762865244094135,0.19885730443843144,-0.5874605249827601,0.3088523438936286,-1.5643044900190488,2.2587953767627136
1772661033010642688,1.324535608291626,0.1589498370885849,-0.15621845424175262,-1.0344172716140747,-0.9495008587837219,-0.3137364387512207,-0.004189447499811649,-0.1289597749710083,-0.1069941520690918,0.2548303008079529,-0.399610335588305,-0.6781364273052455,0.19502887525462265,-0.5851549470902234,0.3191255991589732,-1.566384092469379,2.261004115080559
1772661033020679680,1.3345725536346436,0.0611838698387146,-0.19770143926143646,-1.0717604160308838,-0.946125328540802,-0.3237933814525604,-0.0021445797756314278,-0.12455332279205322,-0.08135795593261719,0.23717570304870605,-0.40216046306910186,-0.6799036251071497,0.19146480272044428,-0.5825282937868868,0.32973612874170566,-1.5685296333703118,2.2621274905146094
1772661033030717952,1.3446106910705566,-0.026870358735322952,-0.23530367016792297,-1.1178160905838013,-0.9424983263015747,-0.3342111110687256,-1.3616382602776866e-05,-0.12197017669677734,-0.06425690650939941,0.2143537998199463,-0.40509908464010236,-0.6816231717326932,0.18810381060893283,-0.5795701894649161,0.34076810001714747,-1.570781879678273,2.262294387884109
1772661033040754688,1.3546476364135742,-0.1096668392419815,-0.26461032032966614,-1.1706011295318604,-0.938578724861145,-0.3450581431388855,0.0021772964391857386,-0.1267288327217102,-0.051059991121292114,0.18980872631072998,-0.4084137021387836,-0.6833073439217098,0.18487758653093972,-0.5762894678553034,0.3523007418780701,-1.5731161030072842,2.2616187151843925
1772661033050792704,1.3646855354309082,-0.18198071420192719,-0.283529132604599,-1.2201972007751465,-0.9343352913856506,-0.3563687801361084,0.0043170517310500145,-0.13951712846755981,-0.036728113889694214,0.167588472366333,-0.4121122419882303,-0.6849307573506264,0.18173712760049376,-0.5727170927199152,0.3643786216477058,-1.5754167463940585,2.2601367318564556
1772661033060829696,1.3747224807739258,-0.24644950032234192,-0.2839164733886719,-1.2653902769088745,-0.9297595024108887,-0.36811402440071106,0.006258607376366854,-0.15361440181732178,-0.016529500484466553,0.14693963527679443,-0.41617805595522916,-0.6864532284709443,0.17863725473078654,-0.5689169209192402,0.3769797971631373,-1.577527650987943,2.2579118362797583
1772661033070867712,1.3847606182098389,-0.303122878074646,-0.2719604969024658,-1.303023099899292,-0.9248461723327637,-0.38025882840156555,0.007918755523860455,-0.16243404150009155,0.004160165786743164,0.12316954135894775,-0.42056292922664446,-0.6878607648655982,0.17551907601542602,-0.5649490254382302,0.39007611606778175,-1.5793583585330786,2.255088705228832
1772661033080904704,1.3947975635528564,-0.34961622953414917,-0.2531999945640564,-1.329256534576416,-0.9196370244026184,-0.39266109466552734,0.009219464845955372,-0.1685435175895691,0.027319878339767456,0.10142207145690918,-0.42520874104578166,-0.6891234600197577,0.17239080340269058,-0.5608812693275905,0.40352329968172185,-1.5808211032039317,2.2517300484158476
1772661033090942976,1.4048357009887695,-0.39906153082847595,-0.22902673482894897,-1.3442025184631348,-0.9141764640808105,-0.4051913619041443,0.010076219215989113,-0.166115403175354,0.04947841167449951,0.08169019222259521,-0.4300766294846475,-0.6902065754021285,0.169271949641571,-0.5567729268276617,0.4171881305330068,-1.5818180621234568,2.2478452879852897
1772661033100979712,1.414872646331787,-0.44303667545318604,-0.21074321866035461,-1.345219612121582,-0.9085484743118286,-0.4176490902900696,0.010435846634209156,-0.1571863293647766,0.07035905122756958,0.06584286689758301,-0.4351104638957401,-0.6910767769268734,0.1662251844241192,-0.5526851984892936,0.43085638697626655,-1.5822821074673605,2.2434149635561575
1772661033111017728,1.424910545349121,-0.48463204503059387,-0.18539950251579285,-1.333639144897461,-0.9027990102767944,-0.4299396276473999,0.01030244491994381,-0.14496111869812012,0.09159117937088013,0.05149567127227783,-0.4402682115119488,-0.6917324786447099,0.16327094174586934,-0.5486463440100396,0.44442591249641256,-1.582207502104161,2.2384685802198816
1772661033121054720,1.4349474906921387,-0.5341401696205139,-0.155166894197464,-1.3071870803833008,-0.8969764113426208,-0.441972553730011,0.009670939296483994,-0.13427352905273438,0.11059746146202087,0.03932499885559082,-0.445529936360411,-0.6921638445101282,0.16045149443501455,-0.5446719759259389,0.45779648110746424,-1.5815776192249338,2.2329620129322247
1772661033131091712,1.4449846744537354,-0.5783206820487976,-0.12252772599458694,-1.268553376197815,-0.8911552429199219,-0.4536196291446686,0.008460327982902527,-0.12051773071289062,0.1304384469985962,0.027977705001831055,-0.4508660746966113,-0.6923364240092504,0.15779873216572635,-0.5408230851555378,0.47082269117562225,-1.5802897049461866,2.2268703451579186
1772661033141129728,1.4550225734710693,-0.6065436005592346,-0.08516637980937958,-1.2189271450042725,-0.8853922486305237,-0.4647965729236603,0.006671170238405466,-0.10914498567581177,0.14881762862205505,0.01903986930847168,-0.4562137594622759,-0.6922559739363942,0.15529730125281785,-0.5371529752373901,0.4834048593324588,-1.5783308904460331,2.2203151634531544
1772661033151166720,1.465059518814087,-0.6247907280921936,-0.05091412737965584,-1.161128044128418,-0.879746675491333,-0.47542235255241394,0.004388198722153902,-0.09654104709625244,0.16672182083129883,0.009497284889221191,-0.4615105173412301,-0.6919517462803818,0.15296038783296473,-0.5336795691233087,0.49544404378072465,-1.5757843109322867,2.2133992708561947
1772661033161204736,1.47509765625,-0.6367814540863037,0.0013791711535304785,-1.088193416595459,-0.8742993474006653,-0.48538443446159363,0.001617613947018981,-0.08448666334152222,0.18521356582641602,0.0033720731735229492,-0.46668753642233124,-0.6914272064983281,0.15078867687814088,-0.5304657960016044,0.50680283478447,-1.572646507809734,2.2062445889130755
1772661033171241728,1.4851346015930176,-0.6297459602355957,0.03943973779678345,-1.0058953762054443,-0.8691225051879883,-0.494594007730484,-0.0016307858750224113,-0.07518285512924194,0.2046617865562439,-0.0007953642634674907,-0.4716918521343106,-0.6906860950940379,0.14878617233651112,-0.5275624277091031,0.5173676536174266,-1.568919969911541,2.1989449477974934
1772661033181279744,1.4951725006103516,-0.6180592775344849,0.08013030886650085,-0.9208061695098877,-0.8642718195915222,-0.502997636795044,-0.0052532111294567585,-0.06947451829910278,0.21512532234191895,-0.0027881860733032227,-0.4764505783302804,-0.6897697935401473,0.146938852182836,-0.5249966150860003,0.5270636177648687,-1.564718208209225,2.1916865986837126
1772661033191316736,1.5052096843719482,-0.6024653911590576,0.12464238703250885,-0.8249669671058655,-0.8598067164421082,-0.5105366706848145,-0.009203231893479824,-0.06554722785949707,0.22040611505508423,-0.001599966548383236,-0.4809356606006228,-0.6886898196995281,0.14527462384204223,-0.5227833882940618,0.5358088101640365,-1.5600928971972552,2.1845027200531733
1772661033201354752,1.5152475833892822,-0.582633912563324,0.17225490510463715,-0.7107133269309998,-0.8558049201965332,-0.5171223282814026,-0.013511518016457558,-0.0614924430847168,0.2225971221923828,0.004234194755554199,-0.4851105132314168,-0.6874332017499637,0.14380484791341486,-0.5209832916898919,0.5434853766289467,-1.5550095568927558,2.1774534693155183
1772661033211391744,1.5252845287322998,-0.5575205683708191,0.21394430100917816,-0.5945153832435608,-0.8523428440093994,-0.522669792175293,-0.018104741349816322,-0.060742974281311035,0.22159868478775024,0.007942380383610725,-0.48891915574349265,-0.6860219624945245,0.14255348586572458,-0.5196251754441225,0.5499795529880847,-1.5495583711075398,2.1706477153052677
1772661033221429760,1.535322666168213,-0.5302808880805969,0.2568749785423279,-0.4863854646682739,-0.8494229912757874,-0.5272155404090881,-0.022904545068740845,-0.0589023232460022,0.21616506576538086,0.010773776099085808,-0.49235495974312515,-0.6844861114538461,0.14151498502110346,-0.5186896860189182,0.555320348397022,-1.5438380314860638,2.1641464643439217
1772661033231466752,1.5453596115112305,-0.5106244087219238,0.29883256554603577,-0.3596845269203186,-0.8470824956893921,-0.5307243466377258,-0.02798066847026348,-0.058541834354400635,0.21573716402053833,0.011821629479527473,-0.4954388554781939,-0.6827941087265973,0.14071911964007427,-0.5181994393496608,0.5594549536101493,-1.5377765212900885,2.157868729145617
1772661033241503744,1.555396556854248,-0.46638768911361694,0.33891817927360535,-0.23592209815979004,-0.8453467488288879,-0.5331830382347107,-0.0332343727350235,-0.056523799896240234,0.21845531463623047,0.007996328175067902,-0.4981264597445033,-0.6809833563228677,0.14015877340003371,-0.518157419545285,0.562358583068651,-1.53150207658512,2.1519594759560974
1772661033251541760,1.5654346942901611,-0.39115098118782043,0.3938075304031372,-0.1212485060095787,-0.8442268371582031,-0.5345990657806396,-0.03853476420044899,-0.055004119873046875,0.21251654624938965,-0.0017331838607788086,-0.5003075116234695,-0.6791214179016556,0.13973802949042227,-0.518613368397221,0.5640332655236115,-1.5251829510804369,2.146830878277157
1772661033261578752,1.5754716396331787,-0.3098510801792145,0.4391847550868988,-0.004825357813388109,-0.843690812587738,-0.5350343585014343,-0.04386383667588234,-0.05080991983413696,0.20338457822799683,-0.008458554744720459,-0.5019479792465222,-0.6772319124526932,0.13937366209805843,-0.5195961324622003,0.564548403636379,-1.518852676768506,2.1426939710373683
1772661033271616768,1.5855095386505127,-0.22884361445903778,0.4806954264640808,0.10175381600856781,-0.8437150120735168,-0.5345369577407837,-0.04914627969264984,-0.038212478160858154,0.1943269968032837,-0.012224555015563965,-0.5030556487246377,-0.6753411810547812,0.13907245818713485,-0.5210645277051944,0.5639597490792303,-1.5126122165848248,2.139560656737856
1772661033281653760,1.5955464839935303,-0.13297921419143677,0.5032808780670166,0.20376673340797424,-0.8442649841308594,-0.5331746339797974,-0.05423421412706375,-0.02125924825668335,0.18550318479537964,-0.015193279832601547,-0.5036119720221427,-0.6735068407853074,0.13882157057658712,-0.522964673957063,0.5623486795170572,-1.5066460909008914,2.137536210223515
1772661033291691776,1.6055846214294434,-0.025501491501927376,0.5297279357910156,0.2974335551261902,-0.8452991843223572,-0.5310297608375549,-0.05896356329321861,-0.006476938724517822,0.16999155282974243,-0.020321130752563477,-0.5035702198547646,-0.6718014161323096,0.13856794544699147,-0.5252607254678439,0.559815386970259,-1.5011544651823343,2.136838566687698
1772661033301728768,1.615621566772461,0.06684823334217072,0.5529613494873047,0.39508554339408875,-0.8467950224876404,-0.5281263589859009,-0.06340987980365753,0.002510964870452881,0.15034925937652588,-0.024938523769378662,-0.5029529350704599,-0.6702004676973516,0.13829820508752758,-0.5279614906656912,0.5563925663021491,-1.4960536180555384,2.1374245498577182
1772661033311766784,1.625659704208374,0.14514383673667908,0.5837693214416504,0.5034711360931396,-0.8487958908081055,-0.5243740677833557,-0.06765749305486679,0.006266593933105469,0.1283779740333557,-0.0196380615234375,-0.5017860578703496,-0.6686572321715119,0.13808967708658262,-0.5310740155280945,0.5519798505660131,-1.4912545365946561,2.1391147579959746
1772661033321803776,1.6356966495513916,0.2124604731798172,0.6302375197410583,0.6080902218818665,-0.8512833118438721,-0.5197609663009644,-0.07187018543481827,0.00667881965637207,0.10434043407440186,-0.01617300510406494,-0.5001164611339635,-0.6671088948284914,0.1379515433604312,-0.5346201027409017,0.5465711025254191,-1.4865703632553653,2.1417585098777954
1772661033331841792,1.6457345485687256,0.2622043490409851,0.6838394999504089,0.6999660730361938,-0.8541901707649231,-0.5143450498580933,-0.07621221244335175,0.003116011619567871,0.07856935262680054,-0.013234786689281464,-0.498004765746637,-0.6654997787846795,0.13785477260317688,-0.5386068735258153,0.5402437778255363,-1.481810354237563,2.1452281061922607
1772661033341878528,1.6557714939117432,0.3049719035625458,0.7437418699264526,0.791581928730011,-0.8574555516242981,-0.508166491985321,-0.0808514654636383,0.0003541111946105957,0.05728447437286377,-0.007725775241851807,-0.49551860434465406,-0.663767708297072,0.1377922246776167,-0.5430351109454803,0.5330545485549831,-1.4767819892298297,2.1493517875766774
1772661033351915776,1.6658086776733398,0.3416534662246704,0.8076444268226624,0.8891350626945496,-0.8610748052597046,-0.50117427110672,-0.08587627112865448,0.004415750503540039,0.042235612869262695,-0.008880801498889923,-0.4926707942202247,-0.6618726892294695,0.1377911684721109,-0.547917640289847,0.5249552295008212,-1.4713935326297496,2.1540433058358968
1772661033361953792,1.6758465766906738,0.39727309346199036,0.865832507610321,0.9690718650817871,-0.8649669289588928,-0.4934562146663666,-0.09128677099943161,0.011954843997955322,0.03225928544998169,-0.005713343620300293,-0.4894637975536372,-0.6598252776407973,0.13779410877155934,-0.5532346900368521,0.5160589970671302,-1.4656476866878865,2.159371175388627
1772661033371990784,1.6858835220336914,0.4586395025253296,0.912386417388916,1.0400948524475098,-0.8690646290779114,-0.48511460423469543,-0.09690412878990173,0.018799185752868652,0.021979868412017822,-0.000523202121257782,-0.48585416577016416,-0.6577032580382316,0.13774744438583844,-0.5589255419404419,0.5064942229328784,-1.4597510835393173,2.1655277701981164
1772661033382028800,1.6959216594696045,0.5354556441307068,0.9481382369995117,1.1129217147827148,-0.8733283877372742,-0.47619786858558655,-0.10263119637966156,0.01731032133102417,0.01310884952545166,0.009888291358947754,-0.48182226431292524,-0.6555458161074567,0.13763750885477583,-0.564945050146704,0.49632578216742634,-1.4538155632019472,2.172581480303121
1772661033392065792,1.705958604812622,0.6248385310173035,0.9888577461242676,1.1967049837112427,-0.87776780128479,-0.4666591286659241,-0.10840962082147598,0.005575597286224365,0.0022274255752563477,0.023067250847816467,-0.477299503890102,-0.6533774506894208,0.1374521630721977,-0.5713053878291172,0.4855096160806832,-1.447912585762914,2.1806841858922725
1772661033402103552,1.715996503829956,0.7274341583251953,1.0157421827316284,1.2887775897979736,-0.8824021220207214,-0.4564436078071594,-0.11413180828094482,-0.02117776870727539,-0.008217066526412964,0.04189668595790863,-0.47219667558948997,-0.6512414287735427,0.13718125748163718,-0.5780106979299229,0.4739940215294366,-1.4421682671757976,2.1900314640057803
1772661033412140800,1.7260336875915527,0.8319008946418762,1.0394946336746216,1.3898367881774902,-0.8872547745704651,-0.445475310087204,-0.11971116811037064,-0.06292527914047241,-0.01990249752998352,0.05693650245666504,-0.4664542774819112,-0.6491643390226323,0.13685786463409869,-0.5850436366842838,0.46170509978090324,-1.4366831198821648,2.2006896591516725
1772661033422178816,1.7360715866088867,0.9748079180717468,1.0626046657562256,1.4829679727554321,-0.892305314540863,-0.43375012278556824,-0.12510816752910614,-0.12139707803726196,-0.03283315896987915,0.07672256231307983,-0.45999716656165585,-0.6471731089208009,0.13642904342328324,-0.5924159485405196,0.44865063914478176,-1.431496580360936,2.2128547171054813
1772661033432215808,1.7461085319519043,1.150182843208313,1.0854796171188354,1.559403419494629,-0.8974639773368835,-0.4214407801628113,-0.1301768720149994,-0.18908381462097168,-0.05181053280830383,0.0965770035982132,-0.452734232703642,-0.6453582160522611,0.13573629040538812,-0.6001000944392821,0.435033511984269,-1.426751247043689,2.2269023051306496
1772661033442254336,1.7561471462249756,1.3201078176498413,1.1046510934829712,1.6404975652694702,-0.9026877284049988,-0.4086143672466278,-0.1348671019077301,-0.2606118321418762,-0.07508924603462219,0.11532056331634521,-0.44460898392286463,-0.6437549901671152,0.13470695543962555,-0.6080759824067625,0.4209353974525549,-1.4224872148266132,2.2430004372497185
1772661033452291328,1.7661840915679932,1.4728336334228516,1.1235628128051758,1.7092764377593994,-0.9079312682151794,-0.3952982723712921,-0.13928361237049103,-0.324093759059906,-0.099528968334198,0.14949174225330353,-0.43568680490800443,-0.6423152780700327,0.1333764623596441,-0.6162943188121338,0.4063925461898651,-1.4185753837322979,2.2609125351169865
1772661033462328320,1.7762212753295898,1.6383525133132935,1.1488763093948364,1.7592334747314453,-0.9130971431732178,-0.3816285729408264,-0.14357244968414307,-0.3687478303909302,-0.1265806257724762,0.18879951536655426,-0.42601352689472216,-0.6409968220059443,0.13166947732476406,-0.6247388089061897,0.3915575753053494,-1.4148364759742946,2.2805836579329632
1772661033472366336,1.7862591743469238,1.803040862083435,1.1801726818084717,1.7702693939208984,-0.9180513620376587,-0.3678874969482422,-0.1477847546339035,-0.39380770921707153,-0.15738102793693542,0.2158847600221634,-0.4156520818538504,-0.6398032149260838,0.12945836343617295,-0.6333448261495628,0.37673618235232337,-1.4111890235107138,2.3020171148065227
1772661033482403328,1.7962961196899414,1.9429961442947388,1.1750309467315674,1.7458354234695435,-0.9226559996604919,-0.35445740818977356,-0.15187492966651917,-0.3929416537284851,-0.18578001856803894,0.24264948070049286,-0.40476376160744165,-0.6387614807248992,0.12667402117264892,-0.6419531731790442,0.36233374841738264,-1.4076530698930085,2.3249826997474745
1772661033492441344,1.8063342571258545,2.016162395477295,1.1176704168319702,1.6954883337020874,-0.9268897175788879,-0.3415500521659851,-0.15562370419502258,-0.35699987411499023,-0.211382657289505,0.2547905743122101,-0.39354669510738605,-0.6379263766899272,0.12344264109473062,-0.6503327615900576,0.3485656300389553,-1.4044490245447594,2.348970562677205
1772661033502478336,1.816371202468872,1.9978762865066528,0.9886369705200195,1.6357989311218262,-0.9308297634124756,-0.32919666171073914,-0.15869876742362976,-0.29103291034698486,-0.23623302578926086,0.2556836009025574,-0.38227825414486244,-0.6373586461616545,0.12010233858680283,-0.6581888543461181,0.33545268839538067,-1.4019282941640216,2.373087869208886
1772661033512516352,1.826409101486206,1.8615370988845825,0.8242805004119873,1.550703763961792,-0.9345574378967285,-0.31736597418785095,-0.1608760803937912,-0.2197546362876892,-0.26254427433013916,0.2366970330476761,-0.3713177907287855,-0.6370710315922562,0.11705750673606057,-0.6652526297240197,0.32295058559845113,-1.4003255970269448,2.396211758819011
1772661033522553344,1.8364462852478027,1.6431553363800049,0.6460195183753967,1.4238430261611938,-0.938029408454895,-0.3062104284763336,-0.1622835397720337,-0.1636703610420227,-0.2887755036354065,0.20934166014194489,-0.3611261285449374,-0.6369700685478394,0.11457469136024644,-0.6713640181988534,0.31120966689141094,-1.3994872730375227,2.4171895687993046
1772661033532591360,1.8464841842651367,1.3221791982650757,0.47520092129707336,1.2644364833831787,-0.9411829710006714,-0.29595324397087097,-0.16305291652679443,-0.13251692056655884,-0.31009531021118164,0.15826167166233063,-0.3521350531377841,-0.6369778298606569,0.11283964993860027,-0.6764076574984095,0.30045330737034853,-1.399256415689103,2.4350480283522784
1772661033542628352,1.8565211296081543,0.9272489547729492,0.33146002888679504,1.094930648803711,-0.9439789056777954,-0.28663259744644165,-0.1635410636663437,-0.11464536190032959,-0.32017892599105835,0.10987591743469238,-0.3447382396086372,-0.6369211286591366,0.11207562074545742,-0.6803867434106414,0.2907101022634175,-1.399252536016123,2.4488166194667214
1772661033552666368,1.8665592670440674,0.4985676407814026,0.2148391306400299,0.9317384958267212,-0.9464051723480225,-0.27821022272109985,-0.16406214237213135,-0.09790635108947754,-0.31309837102890015,0.05599939823150635,-0.33914041689011326,-0.6366595365890175,0.11239914063835742,-0.683384859453354,0.2819302600111419,-1.3991492046013585,2.4580012980831385
1772661033562703360,1.876596212387085,0.05195574834942818,0.13433775305747986,0.7685560584068298,-0.9484553933143616,-0.270591676235199,-0.1649620234966278,-0.07595860958099365,-0.2871628403663635,0.004180148243904114,-0.3354435330831625,-0.6360446786439771,0.11386903850440024,-0.6855352692955956,0.27400757073406456,-1.3985919472157753,2.4623499031524805
1772661033572740352,1.8866331577301025,-0.3672420382499695,0.07609974592924118,0.5947786569595337,-0.950110137462616,-0.26383891701698303,-0.1663721650838852,-0.04737210273742676,-0.24308857321739197,-0.03524218499660492,-0.33366793070797485,-0.6350282008187819,0.11641779545968883,-0.6869146707795686,0.26699997935709097,-1.3974455907642191,2.461929740393419
1772661033582778368,1.8966712951660156,-0.7654469013214111,0.017205670475959778,0.4202602803707123,-0.9513595104217529,-0.258046418428421,-0.16830602288246155,-0.01157677173614502,-0.18531295657157898,-0.06516872346401215,-0.3337444504241744,-0.6336168417415305,0.11990282988990446,-0.687580934464069,0.26099958229633113,-1.3956969952839573,2.4570580876172743
1772661033592815360,1.9067082405090332,-1.1232664585113525,-0.014174089767038822,0.2713429927825928,-0.9522457122802734,-0.2531372010707855,-0.170732781291008,0.026784896850585938,-0.12358704209327698,-0.08134239912033081,-0.3355663823741882,-0.6318147205948188,0.12427294916466357,-0.6875766314305084,0.2559217124967842,-1.3933864601200059,2.447989081009911
1772661033602853376,1.9167461395263672,-1.4049402475357056,-0.020133178681135178,0.16270464658737183,-0.9528190493583679,-0.24888363480567932,-0.1737612634897232,0.05674654245376587,-0.06714116036891937,-0.09595312178134918,-0.3388294589598499,-0.6295908849616394,0.12936261051943782,-0.6870773759540683,0.25152744640959207,-1.3904131291506545,2.4354361890479836
1772661033612890368,1.9267830848693848,-1.6465089321136475,0.08345500379800797,0.07150442898273468,-0.9530698657035828,-0.24508410692214966,-0.17774072289466858,0.06972330808639526,-0.011980682611465454,-0.08902871608734131,-0.34326878432777097,-0.626828801874384,0.1349640438142575,-0.6863213464165994,0.24760645064123887,-1.386421493445785,2.4200696443126306
1772661033622928384,1.9368212223052979,-1.7702651023864746,0.25356560945510864,0.021940208971500397,-0.9528579115867615,-0.241559699177742,-0.1836056262254715,0.06426215171813965,0.04446190595626831,-0.04251439869403839,-0.3486238937179906,-0.6232172292927091,0.14070348052269627,-0.6857582348617002,0.24397282204673712,-1.3804399527390843,2.40270656760838
1772661033632965376,1.9468581676483154,-1.8563957214355469,0.38186684250831604,0.02989773452281952,-0.9523157477378845,-0.23794637620449066,-0.190987691283226,0.05560249090194702,0.09741294384002686,-0.03745162487030029,-0.354416937763501,-0.6189193810702963,0.14644096960888342,-0.6854797694418702,0.24025095324268791,-1.3728712087765294,2.3843912805797247
1772661033643003136,1.9568960666656494,-1.9889981746673584,0.5266568064689636,0.09092806279659271,-0.9515560269355774,-0.23365166783332825,-0.19987010955810547,0.07432824373245239,0.13659051060676575,-0.02283191680908203,-0.3605213477922599,-0.6138682635247648,0.15241621697518232,-0.6855358578352209,0.23583161597039975,-1.3637605093707326,2.3650376074661925
1772661033653040384,1.966933250427246,-2.101630926132202,0.6489733457565308,0.2701936662197113,-0.9507488012313843,-0.22778481245040894,-0.21021641790866852,0.10843312740325928,0.15080425143241882,0.005473971366882324,-0.3666715714957066,-0.6079741595755613,0.15893147477334962,-0.6860468144747682,0.2298020862095355,-1.3531911698078174,2.344738791709615
1772661033663078400,1.97697114944458,-1.8469574451446533,0.7925746440887451,0.4428180754184723,-0.9499833583831787,-0.21998798847198486,-0.22166821360588074,0.1575334668159485,0.17103779315948486,0.021976426243782043,-0.37212056885683953,-0.601449069188363,0.16560468856334037,-0.6872847495949098,0.22180215447700002,-1.3415589799414993,2.325376698351327
1772661033673115136,1.9870080947875977,-1.203108787536621,0.8124322295188904,0.5316216945648193,-0.9492040872573853,-0.21182015538215637,-0.23268817365169525,0.17619389295578003,0.21113349497318268,-0.11214517056941986,-0.3757122562003647,-0.5953688743561103,0.1708561280225736,-0.6893361685156388,0.21343699445084227,-1.3303967019689462,2.3112252812339826
1772661033683153408,1.9970462322235107,-0.5050953030586243,0.7987384796142578,0.5615191459655762,-0.9484249949455261,-0.20456145703792572,-0.2421664446592331,0.1676633358001709,0.3059256076812744,-0.2631435990333557,-0.37705220942450157,-0.5904807003562121,0.17392331918586298,-0.6920367284600623,0.20601566811369057,-1.3208024841254375,2.3040870626477363
1772661033693190400,2.0070831775665283,0.20898793637752533,0.7524514198303223,0.5778573751449585,-0.9476637244224548,-0.19876784086227417,-0.24984966218471527,0.16546767950057983,0.44061964750289917,-0.26598894596099854,-0.3761878817216219,-0.5869994466133751,0.17466200958529612,-0.6952751705188875,0.20010051357961903,-1.3130142910995661,2.3040716060788062
1772661033703227392,2.017120122909546,0.9157653450965881,0.6895042061805725,0.578717052936554,-0.9469780921936035,-0.19469250738620758,-0.2555920481681824,0.1701684594154358,0.5074061155319214,-0.24462154507637024,-0.37312702687454546,-0.5850333686758713,0.1730315779174066,-0.6989794045042068,0.19594394584146332,-1.3071750614547422,2.311193441207933
1772661033713265408,2.027158260345459,1.4734961986541748,0.6184552907943726,0.5836289525032043,-0.9464163184165955,-0.192315012216568,-0.25944387912750244,0.17258208990097046,0.4725274443626404,-0.21424996852874756,-0.368089935120174,-0.5844922528142367,0.1692538682957996,-0.7030161849508741,0.1935206527342042,-1.3032364117443,2.324718514363724
1772661033723302400,2.0371952056884766,1.7839065790176392,0.5638293623924255,0.6034300923347473,-0.946009635925293,-0.19098971784114838,-0.26189473271369934,0.16981017589569092,0.3843338191509247,-0.14911600947380066,-0.36166619882379286,-0.5849150666771972,0.16409448277843275,-0.7072093394378661,0.19217032418955596,-1.3007188952794158,2.3425296171430565
1772661033733340160,2.0472331047058105,1.9433119297027588,0.5178173780441284,0.593592643737793,-0.9457342624664307,-0.1902197003364563,-0.2634449601173401,0.16207337379455566,0.2935369610786438,-0.06164354085922241,-0.3544668275341147,-0.5858683833452001,0.15822692106673084,-0.711390053229243,0.19138592643874341,-1.2991222374498346,2.362609499888763
1772661033743377408,2.0572702884674072,1.9922863245010376,0.4676777720451355,0.5550298094749451,-0.9455335736274719,-0.1899951547384262,-0.26432564854621887,0.1457747220993042,0.2134173959493637,-0.007067173719406128,-0.34697858546306537,-0.587143174620781,0.15198708191180552,-0.715380081449701,0.19115721094079202,-1.2982032662630005,2.3836328017729906
1772661033753415424,2.067308187484741,1.952502965927124,0.4124715030193329,0.5168648362159729,-0.9453850984573364,-0.19016842544078827,-0.26473191380500793,0.13047420978546143,0.15354733169078827,0.019965648651123047,-0.33955159723617434,-0.5885642379595954,0.14569207982260976,-0.7190762673501367,0.19133369449778484,-1.2977640032917828,2.404565043457351
1772661033763452416,2.077345132827759,1.8275662660598755,0.3461571931838989,0.4979553520679474,-0.945346474647522,-0.1903814673423767,-0.26471656560897827,0.12941330671310425,0.11456054449081421,0.02809852361679077,-0.3323803393787443,-0.590021807279112,0.1396996092719274,-0.7224137188239017,0.19155070745830155,-1.2977684456943754,2.4246246700565943
1772661033773490432,2.087383270263672,1.6250113248825073,0.28284135460853577,0.4880896806716919,-0.9454495906829834,-0.19028477370738983,-0.2644178867340088,0.1370847225189209,0.08254249393939972,0.02752518653869629,-0.3256746155355804,-0.5913874201006803,0.13435766241162264,-0.7253585606523704,0.19145221856317363,-1.2980897528411146,2.4430176270362876
1772661033783527424,2.0974202156066895,1.3387441635131836,0.2241428643465042,0.4917115569114685,-0.9457220435142517,-0.18956194818019867,-0.26396265625953674,0.1415838599205017,0.04689228534698486,0.024598002433776855,-0.3196326503297371,-0.5925545542316785,0.12999144487219141,-0.7278848829182927,0.19071598825378394,-1.2986109776811667,2.4590053890624564
1772661033793565184,2.1074581146240234,1.0179259777069092,0.1687384694814682,0.4914359152317047,-0.9461415410041809,-0.18801249563694,-0.26356709003448486,0.1464131474494934,0.0018400102853775024,0.017809033393859863,-0.3144412988254289,-0.5934063900432109,0.1268278570163435,-0.7300070568263738,0.1891381563068438,-1.2991137087624998,2.471985081657167
1772661033803602176,2.117495059967041,0.6525228023529053,0.11856811493635178,0.504629373550415,-0.9466935396194458,-0.1854897290468216,-0.26337170600891113,0.14623284339904785,-0.0413932204246521,-0.0016276538372039795,-0.31021071964782426,-0.5938728137556728,0.1250168820644392,-0.7317479367787769,0.18657022260281703,-1.2994560023825767,2.4815880706473608
1772661033813639424,2.1275322437286377,0.2997879087924957,0.08006173372268677,0.511211097240448,-0.947379469871521,-0.18188713490962982,-0.2634180784225464,0.14765113592147827,-0.07528449594974518,-0.024301618337631226,-0.30697768988699153,-0.5939315533399226,0.1246445644272545,-0.7331259543597226,0.18290526641504906,-1.2995975343272994,2.487657494520217
1772661033823677184,2.1375701427459717,-0.00419616000726819,0.036569517105817795,0.5116197466850281,-0.9481639266014099,-0.17738065123558044,-0.2636692225933075,0.14455968141555786,-0.09549225866794586,-0.05140957236289978,-0.30467429075052144,-0.5936351323917788,0.1255496804969709,-0.7341718486744055,0.17832424698295485,-1.2995652145864476,2.490522230517632
1772661033833714176,2.1476070880889893,-0.3054790496826172,0.013823723420500755,0.4997708201408386,-0.9490038156509399,-0.17213115096092224,-0.2641259431838989,0.13949459791183472,-0.09630146622657776,-0.07526001334190369,-0.303280302961832,-0.5930032718715393,0.1276093524152325,-0.7349040725276865,0.17299271193746932,-1.2993469528015498,2.490373004484998
1772661033843752448,2.1576452255249023,-0.5519676208496094,0.0016778446733951569,0.4837532341480255,-0.9498345851898193,-0.16627271473407745,-0.26489192247390747,0.13402342796325684,-0.08421555161476135,-0.08239811658859253,-0.3027403977958624,-0.5920138697870365,0.13066607613145292,-0.7353871641582559,0.16704855636058558,-1.298824512834787,2.48749341526623
1772661033853789440,2.16768217086792,-0.7395012974739075,-0.008793437853455544,0.46279284358024597,-0.9506285786628723,-0.16000616550445557,-0.26590126752853394,0.13622123003005981,-0.07832084596157074,-0.08929282426834106,-0.3029070163020509,-0.5907315844334099,0.13448255168273351,-0.7356616504147281,0.1606969050065754,-1.2980556224216684,2.482435175707584
1772661033863827200,2.177720069885254,-0.9383499622344971,-0.05835619568824768,0.4414779543876648,-0.9514479041099548,-0.1534278392791748,-0.26684609055519104,0.14740127325057983,-0.07817003130912781,-0.10273700952529907,-0.3036740449743648,-0.5892904720131622,0.13897370721074997,-0.7356664899708385,0.15403626235395318,-1.2973581815413429,2.4755064526322395
1772661033873864448,2.1877572536468506,-1.0677193403244019,-0.08583975583314896,0.39817363023757935,-0.9522802829742432,-0.14667584002017975,-0.267672061920166,0.16744452714920044,-0.07677388191223145,-0.1027197539806366,-0.30505444337976034,-0.5877136711089107,0.14407155309289077,-0.7353759157082056,0.14720691657327206,-1.296781446013731,2.4667657691019147
1772661033883902208,2.1977951526641846,-1.1278513669967651,-0.11393050849437714,0.3617873787879944,-0.9530977606773376,-0.14007902145385742,-0.2682957947254181,0.17268699407577515,-0.07705354690551758,-0.1255793571472168,-0.30680878279066204,-0.5861163861241245,0.14939776435358032,-0.7348580307074862,0.14054121728194074,-1.296398421395615,2.457093845944745
1772661033893939200,2.207832098007202,-1.1547032594680786,-0.12939922511577606,0.3233624994754791,-0.9539080858230591,-0.13369645178318024,-0.2686721384525299,0.16956055164337158,-0.06735333800315857,-0.14542090892791748,-0.3087966133732734,-0.5845478124234125,0.15481533599016745,-0.7341530831010153,0.13409799377310877,-1.2962544201821524,2.4469005682647618
1772661033903977472,2.2178702354431152,-1.1233253479003906,-0.1298474371433258,0.2813684344291687,-0.9546552300453186,-0.12771183252334595,-0.2689295709133148,0.1560102105140686,-0.06006281077861786,-0.1495274305343628,-0.3109312519248398,-0.5830077674291841,0.1601160754300499,-0.7333393485912453,0.12806157620744638,-1.2962088197454245,2.4365837539841335
1772661033914014464,2.227907180786133,-1.0710937976837158,-0.1224580854177475,0.24178175628185272,-0.9553309679031372,-0.1222502589225769,-0.2690681219100952,0.1397944688796997,-0.0647767186164856,-0.16097033023834229,-0.3130726676938704,-0.5815520820566096,0.16511544071254472,-0.732475000492672,0.12255683232197762,-1.2962590483817604,2.426616182173063
1772661033924051200,2.2379441261291504,-1.0081310272216797,-0.10901311784982681,0.18773263692855835,-0.9558984637260437,-0.11737536638975143,-0.2692233920097351,0.1274988055229187,-0.08010387420654297,-0.1729000210762024,-0.3152211625325753,-0.5801501988374704,0.16974701514073243,-0.7316060050113306,0.11764656670283641,-1.296263470284456,2.4170751308073615
1772661033934089472,2.2479822635650635,-0.9302557110786438,-0.09683474898338318,0.11818791925907135,-0.9563520550727844,-0.11327510327100754,-0.2693687677383423,0.11798840761184692,-0.10384221374988556,-0.18665540218353271,-0.317391692906567,-0.5788506818134355,0.17391808123256694,-0.730716701327176,0.11351875545347964,-1.2962463882031812,2.408055622916859
1772661033944126464,2.258019208908081,-0.84489506483078,-0.07563518732786179,0.04083826392889023,-0.9566723108291626,-0.11011776328086853,-0.269540399312973,0.11005371809005737,-0.12775151431560516,-0.19977417588233948,-0.31959861899822056,-0.5776778452089616,0.17753340196356254,-0.7298128675617201,0.11034153050807384,-1.2961675502210661,2.3996542963335292
1772661033954164224,2.268057107925415,-0.7885370254516602,-0.04485996067523956,-0.03309987485408783,-0.9568374156951904,-0.10788263380527496,-0.269858181476593,0.1110885739326477,-0.14461982250213623,-0.2142573893070221,-0.3219056157273958,-0.5765792096794486,0.18063033422631483,-0.7289073042538943,0.10809300296276175,-1.295904908231532,2.391711358568017
1772661033964201472,2.2780942916870117,-0.7691394090652466,-0.030389411374926567,-0.1146908700466156,-0.9568545818328857,-0.10649141669273376,-0.2703494429588318,0.12265664339065552,-0.14956632256507874,-0.22081568837165833,-0.3243897066979563,-0.5755187516258728,0.1833124142950001,-0.727973888390016,0.10669372642828959,-1.295434070363771,2.383962588673798
1772661033974239232,2.2881321907043457,-0.7751432657241821,-0.03153803199529648,-0.1978006809949875,-0.9567742943763733,-0.10587367415428162,-0.27087628841400146,0.14084094762802124,-0.1485971212387085,-0.22219625115394592,-0.327143286017964,-0.5745137825367583,0.18573036840804608,-0.7269219884751372,0.10607247415088454,-1.294902264310659,2.3760631115069626
1772661033984276224,2.2981691360473633,-0.8062933683395386,-0.03413248062133789,-0.2907468378543854,-0.9566030502319336,-0.10605160892009735,-0.27141073346138,0.1620626449584961,-0.15064698457717896,-0.21368145942687988,-0.3302706097016652,-0.5735545609495017,0.18796222993699882,-0.7256905299422451,0.1062514142269594,-1.2943381984461912,2.3677301037364766
1772661033994314496,2.3082072734832764,-0.8538337349891663,-0.03610774874687195,-0.38880524039268494,-0.9563327431678772,-0.1070617288351059,-0.27196580171585083,0.17947733402252197,-0.1524444967508316,-0.20278087258338928,-0.33386062226352076,-0.5726221368852492,0.1900552259441491,-0.7242374901244092,0.10726731583392195,-1.2937269224530918,2.3587431936487944
1772661034004351488,2.318244218826294,-0.8919311761856079,-0.04243728518486023,-0.4879520535469055,-0.9559604525566101,-0.10887937992811203,-0.2725526988506317,0.1963931918144226,-0.15804260969161987,-0.1925809383392334,-0.33792627696057786,-0.5717050715959529,0.1920337335205503,-0.7225526140139729,0.10909565863940741,-1.2930565767872273,2.3490423693131226
1772661034014389248,2.328282117843628,-0.8969650864601135,-0.061304714530706406,-0.5877476334571838,-0.9555020928382874,-0.11158892512321472,-0.2730633318424225,0.20927107334136963,-0.16924908757209778,-0.18766048550605774,-0.34239805342665863,-0.5708774408486793,0.19382280728435833,-0.7206214005749093,0.11182181650924496,-1.2924359702312052,2.338842910861917
1772661034024426240,2.3383190631866455,-0.8711189031600952,-0.061756521463394165,-0.6934593319892883,-0.9549347758293152,-0.11531084030866623,-0.27350157499313354,0.21318978071212769,-0.17753583192825317,-0.18574219942092896,-0.3471945662038418,-0.5701856201715573,0.19528844788546032,-0.7184753086739417,0.11556792375293584,-1.2918548383799868,2.328452815599412
1772661034034463488,2.348356246948242,-0.8290697336196899,-0.0524037666618824,-0.7947502732276917,-0.9542072415351868,-0.12010224908590317,-0.27397817373275757,0.21046334505081177,-0.17771878838539124,-0.18241220712661743,-0.3522522218016924,-0.5696221516047787,0.19631992469545917,-0.7161756166397965,0.12039287801454947,-1.2911915281861128,2.3181138346629595
1772661034044501248,2.358394145965576,-0.7784639000892639,-0.04450429603457451,-0.8996050357818604,-0.9532939195632935,-0.1260019689798355,-0.2745075523853302,0.2097330093383789,-0.1703999936580658,-0.1663951575756073,-0.3575382887342614,-0.5692013112858375,0.19686566082118545,-0.7137368533223131,0.12633778743849974,-1.2904245445035012,2.3079428382753027
1772661034054538240,2.3684310913085938,-0.7370061874389648,-0.04066401720046997,-1.0010303258895874,-0.9521744251251221,-0.13300356268882751,-0.2750890254974365,0.21653294563293457,-0.16344419121742249,-0.14542794227600098,-0.36306083906348796,-0.568921227897285,0.19693686022558743,-0.711147925675768,0.1333988499498317,-1.289548220930418,2.297903272147606
1772661034064576512,2.378469228744507,-0.7020214796066284,-0.059507615864276886,-1.1048035621643066,-0.9508576393127441,-0.14107362926006317,-0.27562329173088074,0.2272704839706421,-0.17206722497940063,-0.12876519560813904,-0.36881661428210777,-0.5688104385250224,0.19657834083216086,-0.7083686076272158,0.14154580589666677,-1.288660589981969,2.287941337104131
1772661034074613248,2.3885061740875244,-0.6756657958030701,-0.1012212410569191,-1.1979705095291138,-0.9493908286094666,-0.15013954043388367,-0.27588993310928345,0.24058955907821655,-0.19373252987861633,-0.11964839696884155,-0.3747909017659074,-0.5689327351850253,0.19588410737736583,-0.7053203290583411,0.1507094106888248,-1.2879885025004731,2.277968611827926
1772661034084651264,2.3985440731048584,-0.6601638793945312,-0.1498805284500122,-1.2859750986099243,-0.9478045105934143,-0.16012117266654968,-0.27573132514953613,0.24893677234649658,-0.21371915936470032,-0.11489364504814148,-0.38095577516560625,-0.569331131693387,0.1949266680405607,-0.701953185252759,0.16081340978910208,-1.2876943424146388,2.267947887205905
1772661034094688512,2.408581256866455,-0.6839554905891418,-0.19037948548793793,-1.3582029342651367,-0.9460765719413757,-0.17084605991840363,-0.27522850036621094,0.24284476041793823,-0.22403612732887268,-0.11551856994628906,-0.3873587175919325,-0.5699264486613813,0.19382878466530223,-0.6982603005606394,0.17168829568809618,-1.287694482814081,2.2576271684293046
1772661034104726272,2.418619155883789,-0.7301216721534729,-0.21785025298595428,-1.4125056266784668,-0.9441834092140198,-0.18206198513507843,-0.27453842759132385,0.225433349609375,-0.21832862496376038,-0.12063372135162354,-0.394024979601404,-0.5706041745069994,0.19272173090840397,-0.6942720213347786,0.18308307850925112,-1.2878305231672564,2.246776270801082
1772661034114763264,2.4286561012268066,-0.7743005752563477,-0.22830502688884735,-1.449876070022583,-0.9421027898788452,-0.19352416694164276,-0.2738444209098816,0.20351636409759521,-0.20773622393608093,-0.1286061406135559,-0.4009410834314694,-0.5712545650673188,0.1916925108642705,-0.6900496173282916,0.19475294970274873,-1.2879176762192333,2.235286788013198
1772661034124801280,2.4386942386627197,-0.8104293942451477,-0.21294736862182617,-1.484471321105957,-0.9397754669189453,-0.2052159309387207,-0.2733282446861267,0.1764240860939026,-0.2010188102722168,-0.1456170380115509,-0.4080679098940119,-0.571823381704839,0.19066699070738805,-0.685670892780176,0.20668433077763465,-1.287760373961656,2.223297841636509
1772661034134838272,2.4487311840057373,-0.8471919298171997,-0.19400644302368164,-1.506881594657898,-0.9371607899665833,-0.21703845262527466,-0.27317383885383606,0.14843404293060303,-0.19999949634075165,-0.15604063868522644,-0.41538563533023093,-0.5722347163562373,0.18963256862046493,-0.6812060675378494,0.21877957348069965,-1.2871642234110645,2.2108326163577545
1772661034144876288,2.4587690830230713,-0.8466746211051941,-0.16362257301807404,-1.5235153436660767,-0.9342535138130188,-0.2289530336856842,-0.273406058549881,0.1264074444770813,-0.2118428647518158,-0.15002530813217163,-0.4228275664275316,-0.5724921183170819,0.18854639626458625,-0.6766977964915283,0.23100201432245376,-1.286099407769838,2.198051244027585
1772661034154913536,2.468806266784668,-0.8059482574462891,-0.09524617344141006,-1.5436891317367554,-0.9309900999069214,-0.24105718731880188,-0.2741331458091736,0.10472667217254639,-0.23953360319137573,-0.13323074579238892,-0.4302772202663085,-0.5726128660175981,0.18721093189341764,-0.6722560239517765,0.24345501793257124,-1.284435945332858,2.1853961002412476
1772661034164950272,2.4788432121276855,-0.740842342376709,-0.026421034708619118,-1.546957015991211,-0.9273143410682678,-0.253338485956192,-0.2755138874053955,0.08844703435897827,-0.267535537481308,-0.10008123517036438,-0.4376536747014396,-0.5725653350237644,0.18550469315475507,-0.6679942770219809,0.2561297850929271,-1.2819934847354995,2.1731430771590774
1772661034174988288,2.4888811111450195,-0.617996335029602,0.03167848661541939,-1.5596429109573364,-0.923258364200592,-0.26587098836898804,-0.2773208022117615,0.09093707799911499,-0.28486448526382446,-0.06618508696556091,-0.44480940364013666,-0.5724811851346234,0.18331635987815856,-0.6639315749114455,0.26910731849046937,-1.2789984296151513,2.1617238468929365
1772661034185025536,2.498918294906616,-0.42802906036376953,0.08671137690544128,-1.6032922267913818,-0.9187723994255066,-0.2789963185787201,-0.27931761741638184,0.09684246778488159,-0.2898208200931549,-0.039987802505493164,-0.4516252051744421,-0.5725369600785534,0.18039573246646154,-0.6600708082591306,0.2827487790592955,-1.2756630869395957,2.151694196866984
1772661034195063296,2.50895619392395,-0.17025770246982574,0.1258007287979126,-1.6660351753234863,-0.9137804508209229,-0.29317113757133484,-0.2811686098575592,0.1055988073348999,-0.29656580090522766,-0.024251312017440796,-0.45798569134332623,-0.5729570296127805,0.17645379245572484,-0.6563789144559998,0.29754204805408,-1.272292009642409,2.1436633685486353
1772661034205100288,2.5189931392669678,0.11881627142429352,0.15263047814369202,-1.7582460641860962,-0.908204197883606,-0.3087587356567383,-0.2825471758842468,0.11830258369445801,-0.3114194869995117,-0.007858067750930786,-0.46382080766940464,-0.5739217619090284,0.17128986897609602,-0.6527968244244217,0.3138877381319454,-1.269182540402391,2.1380439676104164
1772661034215138560,2.529031276702881,0.3786361515522003,0.1507367044687271,-1.8575433492660522,-0.9020054340362549,-0.3259141743183136,-0.28313639760017395,0.13445782661437988,-0.340131938457489,0.009698927402496338,-0.4691415671790588,-0.5755361197948103,0.16489383060148183,-0.6492106264719085,0.33197854501970697,-1.2666396566003164,2.1348582093644497
1772661034225175296,2.5390682220458984,0.5738645792007446,0.10426254570484161,-1.958906888961792,-0.8952150344848633,-0.3444906175136566,-0.28269490599632263,0.15411078929901123,-0.3735422194004059,0.03129109740257263,-0.47405650416182277,-0.5777936415058922,0.157502556937738,-0.6454595277360953,0.35169613415941653,-1.264922110724244,2.1336335773117083
1772661034235213312,2.5491061210632324,0.6752985715866089,0.031087132170796394,-2.0647380352020264,-0.8878622651100159,-0.3642781674861908,-0.28107309341430664,0.17755037546157837,-0.3982645571231842,0.05948495864868164,-0.4787762050364974,-0.5806260148585891,0.14945529112192585,-0.6413345173506323,0.3728575950342497,-1.2642052761145577,2.133567301153129
1772661034245250304,2.55914306640625,0.7282397747039795,-0.09284986555576324,-2.197866678237915,-0.87992262840271,-0.3851650357246399,-0.2781800627708435,0.18836379051208496,-0.4030734896659851,0.0860719084739685,-0.48353338121444356,-0.5839684201593015,0.14103493022193578,-0.6366203975670566,0.39538663492688675,-1.2645973708828717,2.133875576563137
1772661034255288320,2.569181203842163,0.7708961367607117,-0.22916215658187866,-2.3520901203155518,-0.8713180422782898,-0.4072541296482086,-0.27376788854599,0.17426609992980957,-0.3900328278541565,0.09542319178581238,-0.48845433915124614,-0.5878780408076593,0.1323460124460111,-0.6311071429938881,0.41944555437838366,-1.2663637058014952,2.134229082551695
1772661034265325312,2.5792181491851807,0.7780866026878357,-0.3392198383808136,-2.4817733764648438,-0.861922562122345,-0.43041473627090454,-0.2680162191390991,0.12605220079421997,-0.36293545365333557,0.10352647304534912,-0.49359725475277255,-0.5922457029112475,0.12343789973825559,-0.6247958754732215,0.4449521888169191,-1.2693226952323073,2.134441434633851
1772661034275362304,2.5892550945281982,0.7518401145935059,-0.42087846994400024,-2.5972423553466797,-0.8516503572463989,-0.45430877804756165,-0.26133352518081665,0.06281673908233643,-0.32736843824386597,0.11448293924331665,-0.4990042851273167,-0.5968611918129942,0.114411348736162,-0.6177875657437784,0.4715961307298534,-1.273062088005804,2.134251891921064
1772661034285400320,2.5992932319641113,0.6865748763084412,-0.47403210401535034,-2.69455623626709,-0.8404091596603394,-0.4786618649959564,-0.2541559934616089,0.008362650871276855,-0.29816311597824097,0.1319178342819214,-0.5047535987006465,-0.6015159816481744,0.1053590091851527,-0.6101654043518714,0.4991300085529722,-1.277121411200094,2.1333060131077732
1772661034295437312,2.609330177307129,0.6130713820457458,-0.5594668388366699,-2.7930665016174316,-0.8281726241111755,-0.5032857656478882,-0.24664442241191864,-0.021741807460784912,-0.2798410654067993,0.15280291438102722,-0.5108773147153085,-0.6061262948877104,0.09637791191295969,-0.6019356374534366,0.5273970044487857,-1.2813428843994732,2.1313736714157723
1772661034305475328,2.619368076324463,0.529464840888977,-0.6723853945732117,-2.8603262901306152,-0.8150235414505005,-0.5280115008354187,-0.2386220097541809,-0.01845729351043701,-0.2674901485443115,0.1634572148323059,-0.5173250804634785,-0.6107495440636214,0.08760133088156129,-0.5930309840234071,0.5562573516864601,-1.2859771422479627,2.1284332121993756
1772661034315512320,2.6294052600860596,0.385741263628006,-0.8141257166862488,-2.896460771560669,-0.8011417984962463,-0.552475094795227,-0.23009388148784637,0.007547438144683838,-0.24719226360321045,0.17864125967025757,-0.5241050583793415,-0.6153552281142222,0.07931585693564566,-0.5834045817379034,0.5853307553203895,-1.2911167611394996,2.124135901239185
1772661034325550336,2.6394431591033936,0.1965910941362381,-0.9656315445899963,-2.8973941802978516,-0.7867261171340942,-0.5762470364570618,-0.22136308252811432,0.03585618734359741,-0.21574515104293823,0.20158764719963074,-0.5312774438182929,-0.6198054477154589,0.07183080260078639,-0.573084602249456,0.6141291959283547,-1.2965153594677303,2.1179138729720437
1772661034335587328,2.649480104446411,0.03040771186351776,-1.1127376556396484,-2.8829801082611084,-0.7719435095787048,-0.5991082787513733,-0.21253833174705505,0.053132474422454834,-0.18497979640960693,0.21180593967437744,-0.5387974784893632,-0.624074578058434,0.06528211941517498,-0.5621089831181073,0.6423869323010328,-1.3021244052768164,2.109659275183618
1772661034345625344,2.659518241882324,-0.15268568694591522,-1.224921464920044,-2.867802143096924,-0.7567641139030457,-0.6210635900497437,-0.20393209159374237,0.038776934146881104,-0.16172754764556885,0.20161274075508118,-0.5466579487531613,-0.6280782099002525,0.05959628640906274,-0.5505735883393232,0.6700990343257738,-1.3075700906226968,2.099332969490764
1772661034355662336,2.669555187225342,-0.35979732871055603,-1.2949564456939697,-2.831371545791626,-0.7412149310112,-0.6419975757598877,-0.19605982303619385,-0.0004994869232177734,-0.13206547498703003,0.19076503813266754,-0.5549031191908705,-0.6316409145887606,0.05477085478364009,-0.5386208161491448,0.6971008391057705,-1.312207166889053,2.0865991279599245
1772661034365700352,2.679593086242676,-0.5398069024085999,-1.3199580907821655,-2.761946678161621,-0.7254279851913452,-0.6617333292961121,-0.18937595188617706,-0.046208977699279785,-0.10152655839920044,0.18759065866470337,-0.5634720840532664,-0.6346149087709895,0.050753733259538074,-0.526485718185326,0.7231283313123532,-1.315441167523476,2.071408030298049
1772661034375737344,2.6896302700042725,-0.7160008549690247,-1.3221908807754517,-2.669140577316284,-0.7096072435379028,-0.680126965045929,-0.1840783655643463,-0.08616912364959717,-0.06711119413375854,0.1902429461479187,-0.5722422852345199,-0.6369503229156481,0.04748790057324641,-0.5143714277155951,0.7479358294224713,-1.3169821104911108,2.0539356147945522
1772661034385774336,2.69966721534729,-0.9161670207977295,-1.3040977716445923,-2.5588839054107666,-0.6939196586608887,-0.6970742344856262,-0.18045279383659363,-0.1041455864906311,-0.031182050704956055,0.18872307240962982,-0.5812185904373165,-0.6385528770267717,0.044986932974011094,-0.5024056917857934,0.7713087724233454,-1.3163828054686026,2.033930541871569
1772661034395812352,2.709705114364624,-1.1619280576705933,-1.2485551834106445,-2.4483513832092285,-0.6784993410110474,-0.7124578952789307,-0.1790037453174591,-0.10037022829055786,0.006387948989868164,0.1853972226381302,-0.5905075197801313,-0.6392368367753709,0.04329427819339036,-0.490716531236213,0.7929946893213444,-1.3128506751412174,2.0107409746628617
1772661034405849344,2.7197420597076416,-1.3403655290603638,-1.2153191566467285,-2.3489129543304443,-0.6633723974227905,-0.726356565952301,-0.1798417866230011,-0.0941043496131897,0.0437852144241333,0.18646414577960968,-0.6001296939332781,-0.638973820209408,0.042326832700536686,-0.47933827981998633,0.8130060767553183,-1.3060573630141836,1.9841844104953206
1772661034415887360,2.7297801971435547,-1.3299869298934937,-1.1750767230987549,-2.2657761573791504,-0.6485641598701477,-0.7391166090965271,-0.18185485899448395,-0.0918533205986023,0.0760917067527771,0.18612730503082275,-0.6096874544044366,-0.638222239961827,0.04177255573147923,-0.46819722125198576,0.8317579032684839,-1.2974203729950657,1.9559634741242846
1772661034425924352,2.7398171424865723,-1.0858180522918701,-1.1137341260910034,-2.1952974796295166,-0.633978009223938,-0.7512315511703491,-0.18363907933235168,-0.09340858459472656,0.11069798469543457,0.13590960204601288,-0.6185425234787052,-0.6375735621631731,0.040992866313856055,-0.4574110082839184,0.849925968381794,-1.2888510880302833,1.929072843067167
1772661034435963904,2.74985671043396,-0.6277759075164795,-1.0127466917037964,-2.1192400455474854,-0.6195287704467773,-0.7632155418395996,-0.18353794515132904,-0.10491275787353516,0.1538405418395996,0.056188106536865234,-0.626010588827034,-0.6377145413739486,0.03938519723285268,-0.44707909612498725,0.86827506149357,-1.2827796739044628,1.9069221593640304
1772661034446000896,2.7598936557769775,-0.0004232153296470642,-0.9034396409988403,-2.020054817199707,-0.6052703261375427,-0.7753773331642151,-0.18010544776916504,-0.12072759866714478,0.1967945694923401,-0.02099013328552246,-0.6314526232849145,-0.6392312738701093,0.03647814605353676,-0.43740186011308324,0.8873123625256686,-1.2815777363788632,1.8928418299680012
1772661034456038912,2.7699317932128906,0.6078571677207947,-0.7831132411956787,-1.857845664024353,-0.5915015339851379,-0.7876126170158386,-0.17260465025901794,-0.14313292503356934,0.23957788944244385,-0.07826508581638336,-0.6345367920290573,-0.6423855103779782,0.03222619475565126,-0.4285620522153386,0.9069248244341144,-1.2868723094291725,1.888783675140012
1772661034466075904,2.779968738555908,1.0809129476547241,-0.651971697807312,-1.6231285333633423,-0.5788081884384155,-0.7992973923683167,-0.16156981885433197,-0.15826761722564697,0.29780203104019165,-0.10204100608825684,-0.6353790322751479,-0.6469031969231666,0.027043351892547387,-0.42080687407108647,0.9261251266850818,-1.2985831861371742,1.8944625742286079
1772661034476113920,2.790006637573242,1.466686725616455,-0.5127286314964294,-1.3624361753463745,-0.5676436424255371,-0.8098752498626709,-0.14792843163013458,-0.1584610939025879,0.3778989315032959,-0.09828740358352661,-0.6342908363940687,-0.6523644276609846,0.02136441221642327,-0.4142938343420023,0.9439394498538956,-1.3158655125256635,1.9086511092242215
1772661034486150656,2.8000435829162598,1.8454324007034302,-0.3468002676963806,-1.1011583805084229,-0.5581651926040649,-0.819172203540802,-0.13194186985492706,-0.13887161016464233,0.4557535648345947,-0.06637664139270782,-0.6313466693765448,-0.6586322834972244,0.015250593808787384,-0.4091117208086065,0.9599662363513215,-1.338672274299281,1.931339717427829
1772661034496187904,2.8100807666778564,2.169116497039795,-0.18101553618907928,-0.8329159617424011,-0.5504876971244812,-0.8270447254180908,-0.11384444683790207,-0.10069644451141357,0.5266754031181335,-0.04486222565174103,-0.6266228777525672,-0.665583329844078,0.008752519380493089,-0.4052976062824852,0.973829960117215,-1.3668646856053994,1.9623679670759688
1772661034506225920,2.8201186656951904,2.3683857917785645,-0.027140887454152107,-0.5277999043464661,-0.544903576374054,-0.8331807851791382,-0.09428755193948746,-0.060397446155548096,0.5750629901885986,-0.003063514828681946,-0.6203548549519599,-0.6729424426374554,0.0021662311204071333,-0.4028694517490781,0.9848349085530567,-1.399457613178909,2.000360021533515
1772661034516262656,2.830155611038208,2.4135336875915527,0.14477841556072235,-0.1944538801908493,-0.541813850402832,-0.8371900916099548,-0.0745018869638443,-0.027811944484710693,0.5797895789146423,0.030342943966388702,-0.6129414978792614,-0.680244298878911,-0.004092860569634974,-0.401937386203991,0.9921250187026359,-1.4341486746662448,2.042607974341603
1772661034526300928,2.840193748474121,2.296536445617676,0.30046403408050537,0.13568954169750214,-0.5414409041404724,-0.8388866782188416,-0.05577787384390831,-0.010789990425109863,0.5321696400642395,0.06278162449598312,-0.604869671515144,-0.687035903034474,-0.009629731865934438,-0.40251926346110983,0.995234569991999,-1.468140981175512,2.0857758110054676
1772661034536337920,2.8502306938171387,2.0808603763580322,0.43224096298217773,0.42714935541152954,-0.5436840057373047,-0.8383640050888062,-0.03941253200173378,-0.03155702352523804,0.4406895041465759,0.05998140946030617,-0.596691605969005,-0.6928869088356988,-0.014193831339055656,-0.40455567158007943,0.9942750248438791,-1.4984312878284591,2.1263851587283606
1772661034546375680,2.8602685928344727,1.9168888330459595,0.5515902638435364,0.6892350316047668,-0.5482131838798523,-0.8359549045562744,-0.025326624512672424,-0.09257954359054565,0.31849896907806396,0.04501045122742653,-0.5885545497306963,-0.6978689871031291,-0.017764145917929533,-0.4077581466531209,0.9898704437500796,-1.524630657807519,2.1635310569955686
1772661034556412928,2.8703057765960693,1.8574961423873901,0.6622395515441895,0.8960891962051392,-0.554753839969635,-0.8319134712219238,-0.012969071045517921,-0.1562294363975525,0.21547365188598633,0.006774008274078369,-0.5802645870896345,-0.7022041403974628,-0.020610906616874293,-0.41204073862889135,0.9825470828106767,-1.5474225202423713,2.198160036829213
1772661034566450944,2.8803436756134033,1.9648609161376953,0.7921657562255859,1.0078240633010864,-0.5626468658447266,-0.8266963958740234,-0.0011662105098366737,-0.22795671224594116,0.180853009223938,-0.07459366321563721,-0.5714615997960865,-0.7063101763805922,-0.0232987017801228,-0.41715064851082234,0.9732106255044557,-1.568723607890092,2.2326164946216784
1772661034576487680,2.890380620956421,2.084592580795288,0.7685309648513794,1.1267331838607788,-0.5714922547340393,-0.820532500743866,0.011085832491517067,-0.2898663282394409,0.22380709648132324,-0.1389697790145874,-0.561930492045036,-0.71053973605172,-0.0260038382814522,-0.4227187780312967,0.9623420073752873,-1.5901919380417964,2.268239705964672
1772661034586525952,2.900418758392334,2.212376594543457,0.754502534866333,1.2450387477874756,-0.5813532471656799,-0.8132888078689575,0.024290049448609352,-0.29910939931869507,0.35207659006118774,-0.1349010467529297,-0.5515900370803187,-0.7150749725133982,-0.02850980281122799,-0.428489816576424,0.9497821770419322,-1.6125539515889884,2.305062806105215
1772661034596562944,2.9104557037353516,2.3924288749694824,0.6999441981315613,1.2986780405044556,-0.5919510126113892,-0.8050470352172852,0.03864341229200363,-0.27186429500579834,0.5021601319313049,-0.09246110916137695,-0.5404646959690008,-0.7199787911783407,-0.03085848317454417,-0.43425366874686994,0.9357547881987158,-1.6359852611821137,2.3429972156539334
1772661034606599680,2.920492649078369,2.6199002265930176,0.6499693989753723,1.267970323562622,-0.6026015877723694,-0.7961597442626953,0.0547805093228817,-0.27114713191986084,0.5697041153907776,-0.05647421255707741,-0.5284152361615644,-0.7254419052513823,-0.033530526927333194,-0.43975791886923893,0.9209218229551115,-1.661453824261935,2.3833156379490448
1772661034616637952,2.9305307865142822,2.6925480365753174,0.591776967048645,1.2291721105575562,-0.6129157543182373,-0.7868445515632629,0.07217889279127121,-0.31137001514434814,0.5011543035507202,-0.04309559613466263,-0.5157897190433584,-0.7312704667920457,-0.03650961808070918,-0.4448274500570454,0.9056792523002447,-1.6880195799365185,2.424739219159429
1772661034626674944,2.9405677318573,2.5779566764831543,0.5226564407348633,1.1820685863494873,-0.6228166818618774,-0.7772329449653625,0.08948993682861328,-0.35434091091156006,0.34926968812942505,0.0010251998901367188,-0.5032330390030056,-0.7370138570277203,-0.03944035615007785,-0.44945701113303693,0.8902561331257661,-1.7135053978288655,2.464487050538065
1772661034636712704,2.950605630874634,2.3525164127349854,0.42327263951301575,1.126131534576416,-0.6322208046913147,-0.7675563097000122,0.10561349987983704,-0.3934292197227478,0.1909419298171997,0.04036736488342285,-0.4913684498985715,-0.7423260968279641,-0.04193704789963664,-0.4535970859725297,0.8750199539123652,-1.7363195102159785,2.5002043830715373
1772661034646749696,2.9606425762176514,2.1264240741729736,0.33647820353507996,1.0648627281188965,-0.6410287022590637,-0.7580300569534302,0.1203012466430664,-0.40779930353164673,0.09886568784713745,0.0873708501458168,-0.48041756170182526,-0.7471431894120285,-0.04390533943370534,-0.45721791864127276,0.8602873881980247,-1.7563075782439936,2.531464268953569
1772661034656787968,2.9706807136535645,1.8844077587127686,0.20687146484851837,0.9712539315223694,-0.6490947604179382,-0.748865008354187,0.1337047815322876,-0.393416166305542,0.08091157674789429,0.10204349458217621,-0.47047475429374935,-0.7515308821922009,-0.04531803690181739,-0.46021842730886403,0.8463477940739242,-1.7739414979382306,2.5584527133860266
1772661034666824704,2.980717658996582,1.5980262756347656,0.13697388768196106,0.8908714652061462,-0.6562647223472595,-0.7403397560119629,0.14565040171146393,-0.3742988109588623,0.10388028621673584,0.08486416935920715,-0.46167511381337817,-0.7554368328221581,-0.0462643435897495,-0.46263493221097063,0.8335756593827551,-1.7891948610441533,2.5812529827985715
1772661034676862976,2.990755796432495,1.2677568197250366,0.07733399420976639,0.8407821655273438,-0.6628255248069763,-0.7324358820915222,0.15556327998638153,-0.3408823013305664,0.11939877271652222,0.06623850762844086,-0.45418936574211755,-0.7586932390697695,-0.04654255772870478,-0.46468306073146687,0.8218928748034303,-1.8013212961649512,2.5991199275110763
1772661034686899968,3.0007927417755127,0.9756651520729065,0.02278432808816433,0.7792942523956299,-0.6688402891159058,-0.7252300977706909,0.16338327527046204,-0.3000165820121765,0.11451232433319092,0.04714226722717285,-0.4480173886451992,-0.7612872607053984,-0.046188140376422125,-0.46646415820461057,0.8113685155090876,-1.8103828125144035,2.612299264892415
1772661034696937728,3.0108306407928467,0.7467318177223206,-0.049794796854257584,0.7620462775230408,-0.6743777394294739,-0.7186266183853149,0.1696782112121582,-0.2891538143157959,0.07383590936660767,0.02491714060306549,-0.4429523311819537,-0.7634096734730852,-0.045219195957855465,-0.46792545014201886,0.8018253292428638,-1.8172869602460047,2.6216470851649385
1772661034706974720,3.0208675861358643,0.6275911927223206,-0.09870388358831406,0.7692113518714905,-0.6797537207603455,-0.712246298789978,0.17504295706748962,-0.28042078018188477,0.0410427451133728,0.007024869322776794,-0.43857787080307026,-0.7652531306831757,-0.04369356681190333,-0.4691779579570071,0.7926932059072205,-1.8228300582216388,2.6283203388702
1772661034717011968,3.030904769897461,0.7683643102645874,-0.11478245258331299,0.7025460004806519,-0.6848369836807251,-0.7059532999992371,0.1806325912475586,-0.2763903737068176,0.044133901596069336,-0.04077054560184479,-0.4342334148338453,-0.7671599319279312,-0.042212924618355956,-0.4702392894737542,0.7837682297574379,-1.8286830511554688,2.6350456658345207
1772661034727049728,3.040942668914795,1.1217516660690308,-0.11338841915130615,0.6366633176803589,-0.6893184185028076,-0.6996356844902039,0.18801549077033997,-0.30032074451446533,0.09279370307922363,-0.09157994389533997,-0.4290888288812494,-0.7695957208544312,-0.041595357592016526,-0.4710360467435445,0.7748874722888662,-1.8370747804108984,2.6453206727739054
1772661034737086720,3.0509796142578125,1.7430016994476318,-0.0756239965558052,0.5552206635475159,-0.6933313012123108,-0.6927207708358765,0.198568195104599,-0.31979113817214966,0.18681573867797852,-0.12619581818580627,-0.42220389811403075,-0.7729711566863915,-0.04242271735985721,-0.4716562633805788,0.7652547547493006,-1.8497273101682428,2.662140590416825
1772661034747124992,3.0610177516937256,2.323359727859497,-0.03915373980998993,0.450721800327301,-0.6966657042503357,-0.6850127577781677,0.21310722827911377,-0.3543597459793091,0.27592456340789795,-0.14920338988304138,-0.4130866802938265,-0.7775034449077673,-0.045188607129420286,-0.4720231932105568,0.7546212342857147,-1.867653459773017,2.68729189213659
1772661034757161728,3.071054697036743,2.7452335357666016,-0.004425854422152042,0.3948526680469513,-0.699499249458313,-0.6764002442359924,0.23061557114124298,-0.415033221244812,0.28698068857192993,-0.08109474182128906,-0.40214497866310184,-0.7828513022184338,-0.04951388892877698,-0.47219871880825903,0.7428641534427453,-1.8892612989795303,2.718719350476107
1772661034767199744,3.081092596054077,2.9050989151000977,0.04465261101722717,0.3409552276134491,-0.7020055651664734,-0.6669791340827942,0.24965445697307587,-0.4537562131881714,0.15632843971252441,0.0507148802280426,-0.3900566991603908,-0.788554027209335,-0.054861381893878854,-0.4722591246687755,0.7301469595654911,-1.9124781698249496,2.753588830081544
1772661034777236992,3.091129779815674,2.7308905124664307,0.06785593181848526,0.3617619574069977,-0.7044631242752075,-0.6571640968322754,0.26808011531829834,-0.4678238034248352,-0.058228909969329834,0.21809539198875427,-0.3779476127810388,-0.7939770035907548,-0.060337199851867584,-0.47235103345569357,0.7170501651617031,-1.9344197352105807,2.7876680028214977
1772661034787274752,3.101167678833008,2.3698999881744385,0.197309672832489,0.317239373922348,-0.7070593237876892,-0.6476184725761414,0.28400227427482605,-0.427828311920166,-0.23359179496765137,0.4077701270580292,-0.36685892237957374,-0.7985887786970628,-0.06524650477813516,-0.47266620624108063,0.7044547615415352,-1.9527388087194657,2.8175738791235974
1772661034797311744,3.1112046241760254,1.4923609495162964,0.03581344336271286,0.2546910345554352,-0.7092257738113403,-0.6398898363113403,0.29587113857269287,-0.3737362027168274,-0.3352382779121399,0.5278898477554321,-0.3582500192885914,-0.8019819391837869,-0.06899670835578481,-0.47299190793042745,0.694354932457654,-1.9660203648181465,2.8400488882097377
1772661034807350016,3.1212427616119385,1.1321872472763062,0.3104453980922699,0.1741824746131897,-0.7111287117004395,-0.6345826387405396,0.30265599489212036,-0.33597511053085327,-0.32167041301727295,0.5977040529251099,-0.3526312930792744,-0.8038844392255629,-0.07139893066042172,-0.47362758722072335,0.6874683572809621,-1.9731746210571037,2.85396929545448
1772661034817386752,3.131279706954956,0.713707685470581,0.29897812008857727,-0.0040341331623494625,-0.7126719951629639,-0.630998969078064,0.3064950704574585,-0.3465017080307007,-0.3159462809562683,0.3929831087589264,-0.34844213389296724,-0.8048569554254084,-0.07384317974723559,-0.47470057735753507,0.6828402041774448,-1.976948999061562,2.8648735479814036
1772661034827423744,3.1413166522979736,0.601047694683075,0.25137901306152344,-0.25738558173179626,-0.7127729058265686,-0.6300123333930969,0.30828502774238586,-0.47440671920776367,-0.29003167152404785,0.03247430920600891,-0.3461493431342914,-0.805180147435979,-0.07633767117121915,-0.4754348409268646,0.681569095591308,-1.979015035417181,2.872832342325097
1772661034837462016,3.1513547897338867,1.0191466808319092,0.22485394775867462,-0.31108877062797546,-0.7115914225578308,-0.6296648979187012,0.3117050528526306,-0.47688519954681396,-0.1098981499671936,0.007600456476211548,-0.3434795802011874,-0.8058904013307292,-0.07995739940169162,-0.4755726726705425,0.6811217903164674,-1.9836593781137777,2.884112233766859
1772661034847499008,3.1613917350769043,0.3141169250011444,0.1377219706773758,0.005195983685553074,-0.7111107707023621,-0.6284156441688538,0.31530195474624634,-0.29743415117263794,0.28539806604385376,0.04054832458496094,-0.34070691668085623,-0.806726386624973,-0.08272554845064574,-0.47567621549769656,0.679514799322393,-1.9881427949987014,2.8939688420060343
1772661034857536768,3.1714296340942383,-0.2467477172613144,0.33457645773887634,0.1287786364555359,-0.7125194072723389,-0.6278508305549622,0.3132401406764984,-0.06642645597457886,0.5878117680549622,0.0805433988571167,-0.34057640034203557,-0.8061003410278034,-0.08259726042953155,-0.47685179497633606,0.6787888536594027,-1.9849875455274475,2.892808765440602
1772661034867573760,3.181466579437256,-0.4484938085079193,0.14990325272083282,-0.05491315945982933,-0.7135154008865356,-0.6286578178405762,0.3093295097351074,0.0721275806427002,0.3288837671279907,-0.2378116250038147,-0.34188402168255183,-0.804962124658509,-0.08185796452475451,-0.4779648924461052,0.6798261627055758,-1.9798687294512778,2.888100126439102
1772661034877611776,3.191504716873169,0.06784705072641373,0.13170534372329712,-0.4113117456436157,-0.7125689387321472,-0.6309913396835327,0.30675002932548523,0.17161434888839722,-0.20357286930084229,-0.3850276470184326,-0.3432527415475005,-0.80408912018677,-0.08255723679091137,-0.4783331215395174,0.6828303577750571,-1.977303380152049,2.886696418894391
1772661034887648768,3.2015416622161865,0.19306480884552002,-0.23862344026565552,-0.46501970291137695,-0.7094767093658447,-0.6337316632270813,0.3082639276981354,0.18445241451263428,-0.3768578767776489,0.007486194372177124,-0.34364959153657093,-0.8043292137439532,-0.08477306707579373,-0.47725557146157527,0.6863677727743753,-1.9806815433209706,2.8912371284652996
1772661034897686784,3.2115795612335205,-0.1251579225063324,-0.4672073423862457,-0.2910710871219635,-0.7059247493743896,-0.6362757086753845,0.3111651539802551,0.05599182844161987,-0.09637510776519775,0.31349924206733704,-0.34455742936911016,-0.8051300455167953,-0.0857215656301103,-0.4750765212371028,0.6896609879697959,-1.985965559871958,2.8936182444103844
1772661034907723776,3.221616744995117,-0.5726865530014038,-0.5015159249305725,-0.14329402148723602,-0.7030063271522522,-0.6388734579086304,0.31244710087776184,-0.23479902744293213,0.18262028694152832,0.3694835305213928,-0.34663549986378134,-0.8056067884006806,-0.08497796693889008,-0.4728852188190315,0.6930330423014868,-1.9890204773999571,2.890802286396675
1772661034917761792,3.231654644012451,-0.5837791562080383,-0.2584207057952881,0.04805836081504822,-0.7013355493545532,-0.6413875222206116,0.3110473155975342,-0.522907555103302,0.42141687870025635,0.12385866045951843,-0.3497366631952738,-0.8054016945284133,-0.0827753730969643,-0.47133914924575676,0.6963054512269226,-1.9882376714679242,2.8827824091465284
1772661034927798784,3.2416915893554688,-1.7455195188522339,0.12990091741085052,-0.3887402415275574,-0.7002229690551758,-0.6465368270874023,0.3027836084365845,-0.7107571959495544,0.7655248641967773,-0.45691266655921936,-0.35577784278477115,-0.8031497949453406,-0.0796380015038083,-0.47120092110967327,0.703036035004589,-1.9789267639067125,2.866313805652686
1772661034937836032,3.2517287731170654,-0.00012929108925163746,0.2730277478694916,-0.500386118888855,-0.6977078318595886,-0.6524199843406677,0.29589205980300903,-0.8420718312263489,0.4920195937156677,-1.1699306964874268,-0.3601083324164197,-0.800954172283235,-0.08011516191052157,-0.47156761910258554,0.7107732441218022,-1.971897325051268,2.8590442350039402
1772661034947873792,3.2617666721343994,0.6735166907310486,-0.03122471086680889,-0.9994513988494873,-0.6935476660728455,-0.6562259793281555,0.297252357006073,-0.11191797256469727,-0.7585231065750122,-1.2028156518936157,-0.3602404943948626,-0.80097476742588,-0.08405712476136502,-0.4707446934310641,0.7158062312012506,-1.975709595195158,2.867132813044003
1772661034957910784,3.271803617477417,0.3560279607772827,-0.6200515031814575,-1.0385698080062866,-0.6854769587516785,-0.6618133187294006,0.30352044105529785,0.4237123727798462,-1.0538849830627441,0.11786630749702454,-0.36039534619727875,-0.8023598878985619,-0.0893243408420156,-0.4672847711186218,0.7232350513795992,-1.987635959470959,2.8805590803050896
1772661034967948800,3.28184175491333,-0.8809666037559509,-0.6939221024513245,-0.5555814504623413,-0.6780280470848083,-0.6681289672851562,0.30640050768852234,0.11398708820343018,-0.4189223051071167,0.161327064037323,-0.363716588921795,-0.8031146644819978,-0.09059301956662213,-0.463152055647101,0.7316912260195054,-1.995228734988117,2.881426498087106
1772661034977985792,3.2918787002563477,-1.2774966955184937,-0.6007253527641296,-0.3157123923301697,-0.6735363006591797,-0.674233615398407,0.30291613936424255,-0.35295307636260986,0.09356039762496948,-0.043837159872055054,-0.3694844169151539,-0.802278046349307,-0.08836292910987778,-0.4604598920036673,0.7399265129187591,-1.9934339387468973,2.8694899843778727
1772661034988023808,3.3019165992736816,-1.095401406288147,-0.5371382236480713,-0.4169920086860657,-0.6694095730781555,-0.6802918910980225,0.29848676919937134,-0.6367887258529663,0.17437130212783813,-0.1793307662010193,-0.37543641207077594,-0.8011610118891432,-0.08593260621999706,-0.4580440309063608,0.7481607734332397,-1.9902317599245434,2.8563522973220214
1772661034998061056,3.3119537830352783,-1.095625400543213,-0.5459839105606079,-0.29413479566574097,-0.6653507351875305,-0.6858966946601868,0.294711172580719,-0.6852049231529236,0.16741812229156494,-0.12680333852767944,-0.38078317566991443,-0.8001940403123843,-0.08393498224983319,-0.45568495700890144,0.7558351879561841,-1.9877645722559625,2.8449627331306337
1772661035008098816,3.3219916820526123,-1.252258062362671,-0.518901526927948,-0.22734178602695465,-0.6620793342590332,-0.6910564303398132,0.28998616337776184,-0.5655512809753418,0.24597281217575073,-0.03296709060668945,-0.3864020005075708,-0.7990075564476515,-0.08111728061504521,-0.45354208587737727,0.7629496225683858,-1.9836205622209304,2.8310465761341
1772661035018135808,3.33202862739563,-1.0228663682937622,-0.5240523815155029,-0.29699090123176575,-0.6587610840797424,-0.6961025595664978,0.28543820977211,-0.5187138319015503,0.3182186484336853,-0.046287208795547485,-0.3918147957241181,-0.7978430194901165,-0.07852142751885256,-0.4514000776875243,0.7699544768725779,-1.979672279772083,2.8177834961846644
1772661035028172800,3.3420655727386475,-0.861772358417511,-0.40839701890945435,-0.29531165957450867,-0.655299723148346,-0.7007597088813782,0.2819891571998596,-0.5677379369735718,0.35789477825164795,-0.23424449563026428,-0.3964335669935584,-0.7969419248768932,-0.07666912167902933,-0.44927246824682526,0.7764618602138741,-1.9771651949520508,2.807381123852227
1772661035038210816,3.3521037101745605,-0.5582116842269897,-0.2638656795024872,-0.2944754362106323,-0.6523244380950928,-0.7046796679496765,0.2791052758693695,-0.6201061606407166,0.4182720184326172,-0.3637762665748596,-0.40009732584393,-0.796146816350341,-0.07551744540498678,-0.4476266852264367,0.7819715766048297,-1.9750891654728695,2.7996114438695745
1772661035048247808,3.362140655517578,-0.40461453795433044,-0.11178253591060638,-0.35315752029418945,-0.6495524048805237,-0.708061933517456,0.27700138092041016,-0.623167872428894,0.42578965425491333,-0.38295844197273254,-0.40273552375875543,-0.7954982102158904,-0.0753875928932983,-0.4464340083045803,0.7867498861513025,-1.9738941941635328,2.795342409974072
1772661035058285824,3.372178792953491,-0.35629841685295105,-0.053476620465517044,-0.3355526924133301,-0.6468807458877563,-0.7113715410232544,0.2747650742530823,-0.5305789709091187,0.3504401445388794,-0.192138671875,-0.40508040752453695,-0.7947624360386819,-0.07573114414332736,-0.44556404597092913,0.7914477688643107,-1.9724584543832395,2.7921865202067897
1772661035068322816,3.382215738296509,-0.3137103319168091,-0.017996259033679962,-0.2750657796859741,-0.6446541547775269,-0.7142094373703003,0.2726272940635681,-0.33157259225845337,0.2594364881515503,0.12202593684196472,-0.4070647760560242,-0.7940515772949214,-0.07612976367166419,-0.4449544865021028,0.7954939375509388,-1.97089094300716,2.789548372653026
1772661035078360832,3.3922536373138428,-0.4928444027900696,-0.1056068018078804,-0.17013855278491974,-0.6429091691970825,-0.7167313098907471,0.2701191008090973,-0.11082929372787476,0.1519576907157898,0.333808571100235,-0.40918345420165225,-0.7932750929521627,-0.07598797681497807,-0.44442035893250076,0.7991036262632307,-1.9685528886083234,2.785448227348724
1772661035088397824,3.4022905826568604,-0.6357656121253967,-0.2795359790325165,-0.052534960210323334,-0.6416361331939697,-0.7189540863037109,0.26722288131713867,0.04640603065490723,0.029531478881835938,0.35570192337036133,-0.41176841272702563,-0.7924806698539717,-0.07473841011153798,-0.44366127341332995,0.8022963657315685,-1.9654207688182912,2.778419292359317
1772661035098435840,3.4123287200927734,-0.5990619659423828,-0.3992546498775482,-0.018165532499551773,-0.6405094861984253,-0.7208300232887268,0.26486119627952576,0.08249568939208984,-0.03673827648162842,0.23281940817832947,-0.4144777474975703,-0.7919222734077167,-0.07273044668196534,-0.4424675516193406,0.8049991379372758,-1.9629002245937328,2.7701185661089105
1772661035108472832,3.422365665435791,-0.42695745825767517,-0.42445695400238037,0.018042273819446564,-0.6394162774085999,-0.7221888303756714,0.2637989819049835,-0.01712357997894287,0.009572923183441162,0.16921493411064148,-0.4166769091490431,-0.7917701102725031,-0.07070774741597992,-0.44099973823802907,0.8069615689463261,-1.9620850743699008,2.763186051734605
