time,seconds_elapsed,rotationRateX,rotationRateY,rotationRateZ,gravityX,gravityY,gravityZ,accelerationX,accelerationY,accelerationZ,quaternionW,quaternionX,quaternionY,quaternionZ,pitch,roll,yaw
1772660384562772480,0.08200764656066895,0.006018926855176687,0.009932844899594784,0.010589683428406715,-0.00836891122162342,0.11605849117040634,-0.9932070970535278,0.0013346141204237938,0.012176364660263062,0.0022861361503601074,0.9707675689786691,-0.05554725964607969,-0.017633497739436288,0.23283907048555913,-0.11632062593516924,-0.008425949235788112,0.4703166582886042
1772660384572810496,0.09204554557800293,-0.005152501165866852,-0.002780020469799638,0.014268042519688606,-0.00832397025078535,0.11606238782405853,-0.9932070374488831,0.01160460989922285,0.0006673485040664673,0.012616217136383057,0.9707529929824543,-0.05555332141246849,-0.01761551476135435,0.23289928114814462,-0.11632454909353886,-0.008380704986224412,0.4704432870993163
1772660384582847232,0.10208249092102051,-0.0030964959878474474,-0.005259556695818901,0.014297204092144966,-0.008363566361367702,0.11613143235445023,-0.9931986331939697,0.015321573242545128,-0.007748253643512726,0.017490625381469727,0.9707325170346162,-0.05558103996211694,-0.01764730565003828,0.23297567388184828,-0.1163940631383191,-0.00842064050208403,0.47059907798022627
1772660384592884224,0.11211943626403809,0.006446675397455692,-0.007476371712982655,0.011452148668467999,-0.008416740223765373,0.11613330990076065,-0.9931979775428772,0.012002555653452873,-0.006956674158573151,0.018039286136627197,0.9707158155698326,-0.05557448658182342,-0.017677379860486585,0.23304474787312013,-0.11639595162016815,-0.008474180113873285,0.470738366714391
1772660384602922496,0.12215757369995117,0.011322123929858208,-0.006889677606523037,0.015560606494545937,-0.008460474200546741,0.11604935675859451,-0.9932073950767517,0.0068583060055971146,0.00237409770488739,0.015607357025146484,0.9707023149685359,-0.055527159270748985,-0.017692583786617817,0.2331110555662781,-0.11631143079647763,-0.008518130161550825,0.4708716423818016
1772660384612959488,0.13219451904296875,0.011668068356812,-0.009714492596685886,0.02364223636686802,-0.008454590104520321,0.11587043851613998,-0.9932283759117126,0.001893310807645321,0.008931197226047516,0.014041364192962646,0.97068617778237,-0.05543881719651175,-0.01767374129452941,0.23320052421873813,-0.1161312963306171,-0.008512026552208644,0.47105456644271393
1772660384622996224,0.14223146438598633,0.007408697623759508,-0.015551608055830002,0.02297751046717167,-0.008542202413082123,0.11574087291955948,-0.9932426810264587,0.0030337823554873466,0.011105440557003021,0.012880802154541016,0.970663402811416,-0.05536326888246558,-0.017707430839728727,0.2333108954304546,-0.1160008510991609,-0.0086001052733818,0.47127571029113674
1772660384633034496,0.15226960182189941,-3.750063478946686e-05,-0.02041454054415226,0.026929376646876335,-0.008719849400222301,0.11573921889066696,-0.9932413697242737,0.0060648238286376,0.005446091294288635,0.012879431247711182,0.970631501655317,-0.05533927369957574,-0.01780125156092045,0.2334423667521261,-0.11599918614562056,-0.00877895881808107,0.47153641309467625
1772660384643071488,0.162306547164917,-0.0037380519788712263,-0.019311726093292236,0.02713363990187645,-0.008873188868165016,0.11578602343797684,-0.9932345747947693,0.0067522162571549416,-0.0026573538780212402,0.008691728115081787,0.9705950124440909,-0.05534154770225081,-0.017889667167398943,0.23358629789025956,-0.11604630830785628,-0.008933391365072077,0.4718245900855354
1772660384653108480,0.17234349250793457,-0.005566844716668129,-0.02113199606537819,0.024815091863274574,-0.009007459506392479,0.1158430203795433,-0.9932267069816589,0.003331187181174755,-0.006696909666061401,0.0065934062004089355,0.9705605531977997,-0.055351175928107274,-0.017969474495963523,0.23372101926408695,-0.11610369551235707,-0.009068637464990726,0.47209503050327134
1772660384663143680,0.18237876892089844,-0.008801919408142567,-0.015292349271476269,0.017336802557110786,-0.009124907664954662,0.11591548472642899,-0.9932171702384949,-0.0009764125570654869,-0.0068456679582595825,0.003196418285369873,0.9705331906697963,-0.05537089312049983,-0.018041127983810336,0.23382429041880406,-0.1161766503786187,-0.009186964381489537,0.47230176444196165
1772660384673181440,0.19241666793823242,-0.009223763830959797,-0.014626826159656048,0.012624071910977364,-0.00921898428350687,0.11599471420049667,-0.9932070374488831,-0.004956433549523354,-0.00903061032295227,0.0015230774879455566,0.970512267049509,-0.055397143634509684,-0.01810065356135335,0.23390039885147912,-0.11625641649372076,-0.00928177056306376,0.4724539522184391
1772660384683218432,0.20245361328125,-0.0027023043949157,-0.014963981695473194,0.005298248957842588,-0.009319625794887543,0.11605791002511978,-0.9931987524032593,-0.004748980514705181,-0.009948298335075378,0.00011098384857177734,0.9704993070840391,-0.05541537030969259,-0.018159703557569695,0.23394532708598048,-0.1163200436861938,-0.009383169587981416,0.4725413507863563
1772660384693255680,0.21249079704284668,0.0016423767665401101,-0.008962548337876797,0.004860159009695053,-0.009421286173164845,0.11607702821493149,-0.9931955337524414,-0.00312143936753273,-0.010287843644618988,-0.0032186508178710938,0.9704929344815155,-0.05541235673059736,-0.018212783420710907,0.23396829361616867,-0.11633929031384665,-0.009485547711619299,0.47258300801479214
1772660384703293440,0.22252869606018066,0.0014631461817771196,-0.0022111693397164345,-0.0037463787011802197,-0.009465167298913002,0.11609351634979248,-0.9931932091712952,-0.0021772896870970726,-0.00786292552947998,-0.005036771297454834,0.970491526121206,-0.055415201766480134,-0.01823629428826386,0.23397163414150343,-0.11635589207220805,-0.00952974821432178,0.47258752271083615
1772660384713330432,0.23256564140319824,-0.00489009078592062,0.004634752403944731,-0.011866089887917042,-0.009446953423321247,0.11614073812961578,-0.9931878447532654,-0.0027753347530961037,-0.005636587738990784,-0.005652487277984619,0.9705001681126848,-0.05544117281698414,-0.018230647900809544,0.23393030197812434,-0.11640343205505921,-0.009511461826095375,0.4725038535729993
1772660384723367424,0.24260258674621582,-0.007431234698742628,0.006715347059071064,-0.017312919721007347,-0.009375532157719135,0.11619332432746887,-0.993182361125946,-0.0049829864874482155,-0.009122401475906372,-0.004925549030303955,0.9705156855176426,-0.05547654419492308,-0.01819807669204426,0.23386014610876696,-0.11645637587230097,-0.009439609617817262,0.47236388410758684
1772660384733405696,0.2526407241821289,-0.00818624161183834,0.009884774684906006,-0.015842055901885033,-0.009277092292904854,0.11625508219003677,-0.9931760430335999,-0.0042574480175971985,-0.01626424491405487,-0.005465865135192871,0.9705328395159865,-0.05551970446184065,-0.01815298477757821,0.23378225401597155,-0.11651855913863904,-0.009340562028393267,0.4722096179815275
1772660384743442432,0.2626776695251465,-0.013843283988535404,0.01753110997378826,-0.025167249143123627,-0.009165129624307156,0.1163388192653656,-0.9931672811508179,0.0007422817870974541,-0.013601399958133698,-0.0025754570960998535,0.9705560103708428,-0.05557569457174834,-0.018102305622529933,0.2336765497159265,-0.11660286438907538,-0.009227921426229534,0.47199902046210634
1772660384753479424,0.27271461486816406,-0.022345691919326782,0.016643479466438293,-0.032430488616228104,-0.009026947431266308,0.11648565530776978,-0.9931513667106628,0.005288542248308659,-0.006195135414600372,-0.002347290515899658,0.970587368692005,-0.055666345060677504,-0.01804390600149984,0.23352913454206942,-0.11675071042206132,-0.009088946155620519,0.4717046076450347
1772660384763517696,0.28275275230407715,-0.023170605301856995,0.02392735704779625,-0.025076301768422127,-0.008894081227481365,0.11667988449335098,-0.9931297302246094,0.00561344251036644,-0.0014455169439315796,-0.0035132765769958496,0.9706174541036674,-0.055779517352444644,-0.01799361723008987,0.2333809817963276,-0.11694626803288544,-0.008955368697176518,0.47140886848334657
1772660384773554688,0.2927896976470947,-0.002789966529235244,0.009323114529252052,0.018613655120134354,-0.008728019893169403,0.11685255914926529,-0.9931108951568604,0.007537837140262127,0.0011589080095291138,-0.005210578441619873,0.9706298787554332,-0.05588461949650358,-0.017928983130391676,0.23330921246207603,-0.1171201317636235,-0.008788339169769187,0.4712722766873487
1772660384783591424,0.3028266429901123,-0.013442877680063248,0.08822538703680038,0.06388526409864426,-0.008208847604691982,0.11683518439531326,-0.9931173920631409,0.008666610345244408,0.00395338237285614,-0.00912564992904663,0.970559179691522,-0.05593137218059574,-0.01769139752084521,0.2336099384423081,-0.11710264117393669,-0.008265549299621405,0.4719218791743593
1772660384793628416,0.3128635883331299,0.010866191238164902,0.07541532069444656,-0.04267686605453491,-0.007384928874671459,0.11690425127744675,-0.9931157231330872,0.009856856428086758,0.012948043644428253,-0.019015014171600342,0.9705620964639672,-0.05606183536275394,-0.017297505699434244,0.23359632761592405,-0.11717218429763787,-0.00743598425079205,0.4719424297227289
1772660384803666688,0.32290172576904297,0.002756865695118904,0.103980652987957,0.0441158190369606,-0.006495691370218992,0.11678207665681839,-0.9931363463401794,0.009852626360952854,0.04410659521818161,-0.028103888034820557,0.9705825182649186,-0.056107383701882535,-0.016846372350329774,0.23353341264169944,-0.11704916228869854,-0.006540490612175462,0.471863217531713
1772660384813703424,0.33293867111206055,-0.008125298656523228,0.10913240164518356,0.08397229015827179,-0.005367870908230543,0.11681829392910004,-0.9931387901306152,-0.00789201632142067,0.04835809767246246,-0.028620243072509766,0.9705055705199435,-0.056251728446453604,-0.016320052472702136,0.2338553291076512,-0.11708563283067719,-0.005404902593037234,0.47259269884012944
1772660384823740416,0.3429756164550781,0.0013952801236882806,0.1134929209947586,0.0590798556804657,-0.004183067474514246,0.11682181060314178,-0.9931440949440002,0.03265596553683281,0.042266324162483215,-0.034291207790374756,0.9704305951661154,-0.0563872502102821,-0.01576190136688712,0.2341716871542344,-0.11708917058628583,-0.004211919459932153,0.47331392138978423
1772660384833778688,0.3530137538909912,0.004599062725901604,0.13533803820610046,0.0714462399482727,-0.0028911398258060217,0.11678147315979004,-0.99315345287323,0.036262113600969315,0.05730605125427246,-0.02955162525177002,0.970367524490422,-0.056515030819136995,-0.015143893383513905,0.23444333794253366,-0.11704855588848195,-0.0029110623616116194,0.4739490159123729
1772660384843815680,0.3630506992340088,0.006050752010196447,0.1391519457101822,0.09199918806552887,-0.0014357775216922164,0.11676700413227081,-0.9931582808494568,0.005235214717686176,0.04181757569313049,-0.020025253295898438,0.9702777488605744,-0.05667351431898977,-0.01445558687689783,0.23481948691873453,-0.11703399209053879,-0.001445667303489573,0.474809570491865
1772660384853852416,0.37308764457702637,0.003306098049506545,0.15064294636249542,0.09697956591844559,0.00013082678196951747,0.11672300100326538,-0.9931644797325134,0.00960427988320589,0.031149908900260925,-0.007506847381591797,0.9701780879647369,-0.05683066813037934,-0.013712228096721527,0.23523771700677384,-0.11698968670697373,0.00013172720123056424,0.47576337365383486
1772660384863890688,0.38312578201293945,0.003878100775182247,0.14679402112960815,0.11413019150495529,0.001748468610458076,0.11670459061861038,-0.993165135383606,0.009070010855793953,0.023340575397014618,-0.002669215202331543,0.9700656348923359,-0.057006436064278715,-0.012949907973402707,0.23570136880381112,-0.11697114690198597,0.0017604995974471408,0.47681449400229825
1772660384873927680,0.39316272735595703,0.006747922860085964,0.1355094015598297,0.12430080026388168,0.003299287287518382,0.11666319519281387,-0.9931660294532776,0.0131344273686409,0.016942761838436127,0.007005751132965088,0.9699351525233392,-0.057162902733930626,-0.01222190756952498,0.23623890205009654,-0.11692946855801387,0.003321977267865091,0.47801407452792205
1772660384883964416,0.4031996726989746,0.008133654482662678,0.12291345745325089,0.1127525344491005,0.004720617085695267,0.11658576875925064,-0.9931694269180298,0.019891809672117233,0.009863816201686859,0.012609124183654785,0.9698042701873534,-0.057287215889943253,-0.011552953533739387,0.23677904332086494,-0.11685150670343142,0.004753047583960605,0.4792110715724527
1772660384894002688,0.4132378101348877,0.008585060015320778,0.11613012105226517,0.10860146582126617,0.0060319965705275536,0.11651570349931717,-0.9931705594062805,0.014246933162212372,0.005768232047557831,0.018332302570343018,0.9696816537665367,-0.05740323116707839,-0.010936324329443137,0.2372819634402354,-0.1167809634464773,0.006073400605252998,0.4803251822467335
1772660384904039680,0.4232747554779053,0.011736157350242138,0.10520942509174347,0.10969828814268112,0.007261068094521761,0.1164063885807991,-0.9931751489639282,0.010622229427099228,0.002139143645763397,0.023570656776428223,0.9695589038983096,-0.05749090976068421,-0.0103553305557171,0.23778780245067643,-0.11667089870211894,0.007310834467672858,0.4814399204092407
1772660384914076672,0.43331170082092285,0.003549599554389715,0.08655425161123276,0.10821490734815598,0.0083375945687294,0.11631686240434647,-0.9931771755218506,0.012246510945260525,-0.006239965558052063,0.026761770248413086,0.9694349535576938,-0.05757061947059954,-0.009851082807214443,0.23829483769761622,-0.11658076288820032,0.008394674507810599,0.48254857261187883
1772660384924114432,0.44334959983825684,-0.0031490493565797806,0.0680956169962883,0.1025162786245346,0.009226455353200436,0.11630096286535263,-0.9931711554527283,0.01389060728251934,-0.015058904886245728,0.030799388885498047,0.969310922660712,-0.05766439480103873,-0.009446502366929989,0.2387925091695779,-0.11656475170344896,0.00928962714676232,0.4836282490171669
1772660384934151680,0.4533867835998535,-0.01349436491727829,0.04960528761148453,0.10153676569461823,0.009920141659677029,0.11639130115509033,-0.9931538701057434,0.014921163208782673,-0.02476228028535843,0.034612059593200684,0.9691885096001316,-0.05778717181149426,-0.009148584445463126,0.23927064669578638,-0.11665570721965465,0.009988192440282711,0.4846581981852928
1772660384944188672,0.4634237289428711,-0.02419077232480049,0.030526136979460716,0.0896950215101242,0.010413825511932373,0.11657178401947021,-0.9931276440620422,0.014305410906672478,-0.03196180611848831,0.03702723979949951,0.9690725140342434,-0.05793048270396884,-0.00895677889272405,0.23971284823474023,-0.11683742994044104,0.010485503719627464,0.48560403925199397
1772660384954225664,0.47346067428588867,-0.028182318434119225,0.00888608954846859,0.06741607934236526,0.010715742595493793,0.11683600395917892,-0.9930934309959412,0.009853108786046505,-0.03907720744609833,0.03885453939437866,0.9689701340729131,-0.058092276421826995,-0.00886463696706845,0.24009112400307778,-0.11710346388433433,0.010789848138244637,0.48640831942774476
1772660384964263680,0.48349881172180176,-0.023338118568062782,-0.0005127384793013334,0.05608885735273361,0.010818888433277607,0.1170957162976265,-0.9930617213249207,0.005309649743139744,-0.041488416492938995,0.038105666637420654,0.9688886922616533,-0.05822871898601979,-0.008863693679591864,0.24038613844329892,-0.1173649687915469,0.010894046790172087,0.4870287021693449
1772660384974300672,0.49353575706481934,-0.018917270004749298,-0.013182194903492928,0.03520088642835617,0.010796398855745792,0.11730687320232391,-0.9930370450019836,0.0018531382083892822,-0.041867420077323914,0.03707391023635864,0.9688280491665978,-0.058326991796253065,-0.00891341497075756,0.2406049980813066,-0.11757759694949431,0.010871672437361087,0.4874834312843204
1772660384984337664,0.5035727024078369,-0.02003943733870983,-0.024372797459363937,0.015713738277554512,0.0106486352160573,0.11750470101833344,-0.9930152297019958,-0.0016612038016319275,-0.043911561369895935,0.03516000509262085,0.9687893306869256,-0.0584043791445101,-0.009017297020627516,0.24073843120305727,-0.11777679751870156,0.010723125306045148,0.4877539567823735
1772660384994375424,0.5136106014251709,-0.013698983937501907,-0.02938406728208065,-0.001923311734572053,0.010360282845795155,0.11767088621854782,-0.9929986000061035,-0.004775563254952431,-0.04912841320037842,0.03268676996231079,0.9687757939783985,-0.05845021189438144,-0.009179881460232915,0.2407756635213009,-0.11794414482591019,0.010432952528432108,0.48781666546023433
1772660385004412672,0.5236477851867676,-0.011779110878705978,-0.03253645449876785,-0.028595933690667152,0.01001616008579731,0.11778514832258224,-0.9929885864257812,-0.008200365118682384,-0.05150097608566284,0.02649688720703125,0.9687899818903284,-0.05846498281899736,-0.009356928709605285,0.2407078228313773,-0.11805921120914754,0.010086541086065735,0.4876579539771892
1772660385014449664,0.5336847305297852,-0.007761688437312841,-0.03143083676695824,-0.04876312240958214,0.009641051292419434,0.11788807809352875,-0.9929800629615784,-0.010556579567492008,-0.053312890231609344,0.019438862800598145,0.9688325566305394,-0.05847160534415314,-0.009540875575052664,0.24052763009565295,-0.11816286033795405,0.009708904310167459,0.4872652192791484
1772660385024487424,0.5437226295471191,-0.009825860150158405,-0.0388856939971447,-0.06774627417325974,0.009214951656758785,0.11797993630170822,-0.9929732084274292,-0.01121385209262371,-0.05659383535385132,0.013801515102386475,0.9688969140649846,-0.05846761156627195,-0.0097430592274269,0.2402611515928074,-0.11825536179010647,0.009279894567823924,0.4866910481273123
1772660385034524672,0.5537598133087158,-0.008918254636228085,-0.03642413392663002,-0.0842709168791771,0.008743682876229286,0.11808419227600098,-0.9929651021957397,-0.008499540388584137,-0.05744576454162598,0.009810805320739746,0.968983125610841,-0.058465264277898235,-0.009963289218163224,0.23990484820123234,-0.11836035341987508,0.008805401660527604,0.48592899470956435
1772660385044561664,0.5637967586517334,-0.005302170291543007,-0.037868231534957886,-0.09696527570486069,0.008247741498053074,0.11817377805709839,-0.992958664894104,-0.005684263072907925,-0.05710810422897339,0.004967331886291504,0.9690869888603082,-0.05845370436804658,-0.010189504614804173,0.23947818289193742,-0.11845057008631397,0.008306036938241338,0.48501997329051516
1772660385054599424,0.5738346576690674,-0.005902180448174477,-0.033294253051280975,-0.10790074616670609,0.007769651245325804,0.11824698001146317,-0.9929538369178772,-0.006045409943908453,-0.053183503448963165,-0.0005154013633728027,0.9692057678262516,-0.0584371529940959,-0.010401473449175684,0.23899168627158335,-0.11852429301540147,0.007824626533018395,0.48398832438755707
1772660385064636416,0.583871603012085,-0.013610788621008396,-0.02405601367354393,-0.11202357709407806,0.007361206691712141,0.11835845559835434,-0.9929436445236206,-0.008093627169728279,-0.04999908059835434,-0.0076819658279418945,0.9693321682469401,-0.05844824711473764,-0.010581966325604097,0.2384681233417914,-0.11863655404065733,0.007413383462511808,0.48288530308145394
1772660385074673664,0.5939087867736816,-0.015254759229719639,-0.00823390856385231,-0.11064193397760391,0.0070471069775521755,0.11850811541080475,-0.9929280877113342,-0.013074329122900963,-0.04821087419986725,-0.011222302913665771,0.9694615187955774,-0.05848968985617198,-0.01071998762525803,0.2379251623799826,-0.11878727602315632,0.007097179334867976,0.481748756851686
1772660385084710656,0.6039457321166992,-0.026258541271090508,-0.0067429374903440475,-0.10866493731737137,0.006840574089437723,0.11872093379497528,-0.9929041266441345,-0.017781125381588936,-0.04349510371685028,-0.015503466129302979,0.9695845345075169,-0.058574780433130684,-0.010814179539012581,0.23739821451375592,-0.11900160868282186,0.006889352058749738,0.4806530753612928
1772660385094748416,0.6139836311340332,-0.03373536467552185,0.005118515342473984,-0.09983815252780914,0.006718718446791172,0.11901750415563583,-0.9928694367408752,-0.022221650928258896,-0.040343187749385834,-0.018223702907562256,0.9696980968936059,-0.05871067151775098,-0.010878668283680712,0.23689702152649597,-0.11930029120411557,0.0067668676837960694,0.4796172462352531
1772660385104785664,0.6240208148956299,-0.036860138177871704,0.013185231015086174,-0.09398718923330307,0.006687934976071119,0.11937341839075089,-0.9928268790245056,-0.026432808488607407,-0.035770513117313385,-0.01507711410522461,0.9698040753428238,-0.05888618573760593,-0.010907140650396953,0.23641804515927406,-0.11965876126350503,0.006736152853762136,0.47863401859142257
1772660385114822656,0.6340577602386475,-0.03226405754685402,0.01802685670554638,-0.08616255223751068,0.006742815021425486,0.11972524970769882,-0.9927841424942017,-0.03066859394311905,-0.026539824903011322,-0.00971829891204834,0.9699026128385706,-0.059069578919659846,-0.010895047855442833,0.23596821339827215,-0.12001313500156671,0.0067917194905394804,0.4777161510368171
1772660385124860416,0.6440956592559814,-0.027384303510189056,0.029573125764727592,-0.07617796957492828,0.006894723046571016,0.12004674971103668,-0.9927443265914917,-0.03127826750278473,-0.013097897171974182,-0.006828427314758301,0.9699913713296355,-0.05924916445723013,-0.01083455693738277,0.23556093037762252,-0.12033697602031915,0.006945003147623922,0.4768915623342057
1772660385134897408,0.654132604598999,-0.022370902821421623,0.03661718592047691,-0.06376177817583084,0.007138300221413374,0.12030055373907089,-0.9927118420600891,-0.03068261221051216,0.0020138993859291077,-0.0027257800102233887,0.9700687027096916,-0.05940587427601938,-0.010724559338367539,0.23520753987361603,-0.12059262879796387,0.007190583364984566,0.4761825874363323
1772660385144934656,0.6641697883605957,-0.015924988314509392,0.03571464121341705,-0.05039617046713829,0.007443226408213377,0.1205068901181221,-0.9926846027374268,-0.028439320623874664,0.0118020698428154,-0.0016543865203857422,0.9701317958707627,-0.05954585728412351,-0.010582896070907346,0.23491839549529192,-0.12080048055381179,0.007497937592080647,0.47560915195720077
1772660385154972672,0.6742076873779297,-0.009769889526069164,0.03682224825024605,-0.03915044292807579,0.007766589056700468,0.12063667178153992,-0.9926663637161255,-0.026885848492383957,0.019042283296585083,0.0009976625442504883,0.9701833786614121,-0.059649921778980035,-0.010426588613997024,0.2346859309182957,-0.12093121405606094,0.007823807531009795,0.4751523657722981
1772660385165009408,0.6842446327209473,-0.0026457118801772594,0.03789829835295677,-0.02448907494544983,0.008091380819678307,0.12069544196128845,-0.9926565885543823,-0.023090766742825508,0.02502598613500595,0.0026358366012573242,0.9702215143751988,-0.059718706994336165,-0.010265093332591702,0.23451788353864453,-0.12099041864608717,0.008151057965619338,0.47482718859124706
1772660385175046656,0.694281816482544,0.008567261509597301,0.03682557865977287,-0.00881344173103571,0.008434733375906944,0.12066037207841873,-0.9926580190658569,-0.018078282475471497,0.03374331444501877,0.004010558128356934,0.9702435670918012,-0.059742949037838174,-0.010088258652672408,0.23442824796508693,-0.12095508539013274,0.008496914859163453,0.4746630565737319
1772660385185084672,0.7043197154998779,0.021058686077594757,0.036675240844488144,0.0030337630305439234,0.008784963749349117,0.12051370739936829,-0.9926728010177612,-0.014415453188121319,0.040542811155319214,0.0048187971115112305,0.9702545900812164,-0.059712834082704745,-0.00989854461028855,0.2343983590448029,-0.12080734566764177,0.008849577315647478,0.4746203498568204
1772660385195121408,0.7143566608428955,0.03257898613810539,0.03778817877173424,0.0071187857538461685,0.009148640558123589,0.12026841193437576,-0.9926992654800415,-0.01187996193766594,0.04451124370098114,0.005699753761291504,0.9702582906689595,-0.059635672073836465,-0.009693233753459337,0.23441105212139055,-0.12056025325694347,0.009215662646301439,0.4746642817741727
1772660385205158400,0.7243936061859131,0.03979082778096199,0.03493114188313484,0.017210302874445915,0.009543919935822487,0.11989738792181015,-0.9927403926849365,-0.008307958953082561,0.04605720192193985,0.005512058734893799,0.9702548139776522,-0.05950036287191842,-0.00946043558359572,0.23446904065919127,-0.12018652167062234,0.009613415071194618,0.4748009972500618
1772660385215196672,0.7344317436218262,0.04229792580008507,0.032957203686237335,0.02290121093392372,0.00991175789386034,0.11947639286518097,-0.9927875399589539,-0.004739031195640564,0.047180093824863434,0.007725954055786133,0.9702443406255437,-0.05933709853705711,-0.009237241852852436,0.23456253942072822,-0.11976247787962702,0.009983433339681855,0.47500813851832274
1772660385225233664,0.7444686889648438,0.03702056407928467,0.03453738987445831,0.02106189727783203,0.010273976251482964,0.11906015127897263,-0.9928339123725891,0.0009564943611621857,0.046238310635089874,0.004293262958526611,0.9702331223279319,-0.05917551282133309,-0.009017489438623693,0.23465880169373046,-0.11934324720499594,0.01034776252147397,0.4752206657055007
1772660385235270400,0.7545056343078613,0.029615910723805428,0.028113579377532005,0.017533741891384125,0.010609188117086887,0.1187267079949379,-0.9928702712059021,0.0028032902628183365,0.0408039316534996,0.0025443434715270996,0.970221719076504,-0.059051344561836805,-0.008820040011480535,0.234744669529582,-0.1190074223574423,0.010684964904673638,0.475411592753596
1772660385245307648,0.764542818069458,0.02017238549888134,0.025490498170256615,0.017848128452897072,0.01092339213937521,0.11847560852766037,-0.9928968548774719,0.006578440777957439,0.03383761644363403,-0.0004349946975708008,0.9702102265557556,-0.05896505419001475,-0.008641946296464387,0.23482045081883404,-0.11875453728260721,0.011001093303214804,0.4755820152051167
1772660385255345664,0.774580717086792,0.01234748587012291,0.03354816138744354,0.02066655270755291,0.011237697675824165,0.11831392347812653,-0.9929126501083374,0.008354589343070984,0.027346476912498474,-0.004584908485412598,0.9701941419829294,-0.05892242103081221,-0.008474848820163208,0.23490374727133514,-0.11859170633029134,0.011317428414198695,0.4757696964349312
1772660385265382656,0.7846176624298096,-0.0019030447583645582,0.0345376580953598,0.02328537218272686,0.011608468368649483,0.11825920641422272,-0.9929149150848389,0.014926568605005741,0.027874216437339783,-0.005528688430786133,0.9701704840394959,-0.05893859986422658,-0.008293970066005794,0.2350038681806316,-0.11853660659463629,0.01169076937048974,0.4759976633986966
1772660385275419392,0.7946546077728271,-0.025910109281539917,0.0351128987967968,0.022516250610351562,0.011989676393568516,0.11838579177856445,-0.9928953051567078,0.02147284895181656,0.023169994354248047,-0.0015810132026672363,0.9701420318099043,-0.059044647485115155,-0.008129300510064675,0.2351002975578803,-0.11866408256666759,0.012074882000024347,0.47622239050483983
1772660385285457664,0.8046927452087402,-0.048337653279304504,0.03337252512574196,0.029289469122886658,0.012375256046652794,0.11875387281179428,-0.9928466081619263,0.023788075894117355,0.013448275625705719,0.0065032243728637695,0.9701024747106806,-0.05926909872918272,-0.007992103927121949,0.23521174204094888,-0.11903477914932173,0.012463773860816756,0.4764834876387423
1772660385295494656,0.8147296905517578,-0.05841106176376343,0.03548600897192955,0.04615633562207222,0.012756978161633015,0.11927977204322815,-0.9927787184715271,0.02844175323843956,0.007764905691146851,0.0069236159324646,0.9700425130713601,-0.059569716518775115,-0.0078794899750065,0.23538687577251605,-0.11956444389554106,0.012849062966692526,0.47687920177341736
1772660385305531392,0.8247666358947754,-0.05581212788820267,0.04248599335551262,0.06635601073503494,0.013214178383350372,0.11984576284885406,-0.9927045702934265,0.03132622689008713,0.009396173059940338,-0.0015886425971984863,0.9699586098906583,-0.05989818587340263,-0.007740683235673565,0.2356537435343434,-0.1201345253892409,0.013310504110225836,0.4774699079245787
1772660385315569664,0.8348047733306885,-0.06244898959994316,0.04819847270846367,0.08718618750572205,0.01376920286566019,0.1204259917140007,-0.9926267862319946,0.030694905668497086,0.008739642798900604,-0.009921371936798096,0.969850706188585,-0.06024458493197854,-0.00756200171838886,0.2360148092388965,-0.12071898949693179,0.01387059044969733,0.47826166147110594
1772660385325606656,0.844841718673706,-0.08225536346435547,0.05083233863115311,0.11534246057271957,0.014409459196031094,0.12113696336746216,-0.9925311803817749,0.025309167802333832,0.002627067267894745,-0.011344492435455322,0.9697097669519268,-0.06066425831411476,-0.00736497701656463,0.23649212766385272,-0.12143520331587518,0.014516869979611768,0.47930200598843525
1772660385335643648,0.8548786640167236,-0.09980373084545135,0.048834171146154404,0.140035018324852,0.01507496926933527,0.12203909456729889,-0.9924107789993286,0.019654033705592155,-0.005172029137611389,-0.009038746356964111,0.9695322993250273,-0.06117965267884731,-0.007186658619468265,0.2370916118534197,-0.12234407242955919,0.015189083225041216,0.48060108293709236
1772660385345681664,0.8649168014526367,-0.12791486084461212,0.040920455008745193,0.1761031448841095,0.015704821795225143,0.1231459453701973,-0.9922642707824707,0.01749829761683941,-0.010642901062965393,-0.0048517584800720215,0.9693119358035818,-0.06179001395873726,-0.007060197002521061,0.23783688550507628,-0.12345933985253314,0.015825936100423835,0.48220451588708696
1772660385355718656,0.8749537467956543,-0.17487677931785583,0.021269256249070168,0.20742884278297424,0.01624257117509842,0.12461284548044205,-0.9920724630355835,0.01522105373442173,-0.009515807032585144,-8.445978164672852e-05,0.9690385529099685,-0.06256424968461635,-0.007033578040823151,0.23874807617583738,-0.12493762660760391,0.016370901398094655,0.48415441933339715
1772660385365755648,0.8849906921386719,-0.21520698070526123,-0.0013756025582551956,0.2566626965999603,0.01663587987422943,0.12652097642421722,-0.9918244481086731,0.00954819843173027,-0.0019024461507797241,0.011157333850860596,0.9686975497514794,-0.06353521928420447,-0.007145889165727135,0.23986925412047,-0.1268609842853331,0.01677143700525414,0.48654080682218637
1772660385375793408,0.8950285911560059,-0.22720292210578918,-0.019799085333943367,0.302375853061676,0.016883620992302895,0.12868289649486542,-0.9915420413017273,0.0019762422889471054,0.01612299680709839,0.01349949836730957,0.9682862527797524,-0.06461060412913631,-0.007378318012435313,0.24123183681635224,-0.12904071224678657,0.017025994993985404,0.48942465515806816
1772660385385830656,0.9050657749176025,-0.2570306360721588,-0.046525903046131134,0.339883953332901,0.01697605848312378,0.13103486597537994,-0.9912323951721191,-0.014595681801438332,0.032905563712120056,-0.01094961166381836,0.9678161744636797,-0.06575791857659156,-0.007726161126142971,0.24279254945851445,-0.13141277144142313,0.017124539571338273,0.4927147648827012
1772660385395867648,0.9151027202606201,-0.2516196370124817,-0.040684524923563004,0.3812074363231659,0.017011068761348724,0.1335441619157791,-0.9908968806266785,-0.04916134476661682,0.036591336131095886,-0.04886752367019653,0.9672848530608477,-0.06697255287682655,-0.008139382832481036,0.24455744513636618,-0.13394432382585342,0.017165660026512167,0.4964298513038452
1772660385405904640,0.9251396656036377,-0.20142978429794312,0.02088243141770363,0.4133259654045105,0.017418084666132927,0.13575828075408936,-0.9905888438224792,-0.09833544492721558,0.02513037621974945,-0.10932564735412598,0.9667171345535305,-0.06808691874187464,-0.008350971309607626,0.24648007671154604,-0.13617878622920263,0.017581753257562775,0.5004932822192848
1772660385415942656,0.9351778030395508,-0.11299924552440643,0.13009147346019745,0.45244964957237244,0.01873500645160675,0.13726921379566193,-0.9903565645217896,-0.15998561680316925,0.01069524884223938,-0.22648602724075317,0.9661259175694554,-0.06897055827593374,-0.008048017165751858,0.24855389702078107,-0.1377040070195825,0.018915178680838873,0.5049203585238405
1772660385425979648,0.9452147483825684,0.019578056409955025,0.29150593280792236,0.5087864398956299,0.02142583578824997,0.13766779005527496,-0.9902467131614685,-0.23150883615016937,0.011654719710350037,-0.356173574924469,0.9655142202442787,-0.0694858603445731,-0.006954689242196823,0.2508102935226548,-0.13810639521892323,0.02163349077811259,0.5097990082214817
1772660385436016640,0.9552516937255859,0.12661395967006683,0.5052680373191833,0.5758243203163147,0.02610933780670166,0.13676080107688904,-0.9902599453926086,-0.29823458194732666,0.024463564157485962,-0.46013373136520386,0.9648681737620809,-0.06962384385834011,-0.004747649924956346,0.2532972007723599,-0.13719074155391922,0.026360037041250416,0.5152652612014184
1772660385446054400,0.9652895927429199,0.1518506407737732,0.7261640429496765,0.6362976431846619,0.03307819738984108,0.13514520227909088,-0.9902734756469727,-0.3516359329223633,0.02562139928340912,-0.49309438467025757,0.9641511183056639,-0.0697237205999789,-0.0013607770103840307,0.25602611208846837,-0.13556000065856078,0.033390676920216064,0.5213778710092207
1772660385456091648,0.9753267765045166,0.09518098086118698,0.894993007183075,0.7054780721664429,0.042068641632795334,0.1336369663476944,-0.9901370406150818,-0.38177505135536194,-0.0014043152332305908,-0.45633506774902344,0.9633283591581927,-0.07016145544142217,0.002973435987923433,0.2589730306116628,-0.1340379578609891,0.042462154924778284,0.5280953443498261
1772660385466128640,0.9853637218475342,0.028870536014437675,1.0097503662109375,0.8195900917053223,0.052548620849847794,0.13269944489002228,-0.9897623658180237,-0.3810703456401825,-0.04686877131462097,-0.3773946166038513,0.9623289422121346,-0.0711061382248074,0.007921183649758738,0.26230542225942766,-0.13309202350004792,0.05304235826286876,0.535753718193825
1772660385476166400,0.9954016208648682,-0.005202746018767357,1.1249380111694336,0.9253617525100708,0.06426001340150833,0.132136270403862,-0.9891464114189148,-0.3583121597766876,-0.0740002989768982,-0.29149317741394043,0.9611156660975921,-0.07244329957649673,0.013369926858686699,0.2661386411942798,-0.13252384126733266,0.06487395498163108,0.5445809954845877
1772660385486203648,1.0054388046264648,0.031579725444316864,1.244286298751831,0.999790370464325,0.07717614620923996,0.13141363859176636,-0.988318920135498,-0.34147363901138306,-0.07053108513355255,-0.23284196853637695,0.9597396050576233,-0.0739233523026206,0.01938752144619784,0.27029482245786196,-0.13179485689045162,0.07793015485061129,0.5541910087312757
1772660385496240640,1.0154757499694824,0.1416681408882141,1.3609455823898315,1.0707447528839111,0.09131854772567749,0.1297469437122345,-0.9873331189155579,-0.3491005301475525,-0.050691157579422,-0.19404810667037964,0.9582112031877766,-0.07518440700370271,0.02609127294944811,0.27476872262799,-0.1301137689256249,0.09222772227323926,0.5645298672511772
1772660385506278400,1.0255136489868164,0.29329371452331543,1.448633074760437,1.143171787261963,0.10655572265386581,0.1265125870704651,-0.9862253665924072,-0.3527105152606964,-0.017503812909126282,-0.17139792442321777,0.9565455760344775,-0.07592283716517362,0.033511897007776445,0.27952334695435793,-0.12685252843443356,0.10762649580224048,0.5754531795214705
1772660385516315392,1.035550594329834,0.38938453793525696,1.5035825967788696,1.2393696308135986,0.12266987562179565,0.1217256635427475,-0.984954297542572,-0.33763569593429565,0.0115598663687706,-0.15045219659805298,0.9547166875272781,-0.07613500837990422,0.04154891682464062,0.2845930499429677,-0.12202828657258988,0.12390571394803071,0.5869892132746547
1772660385526352640,1.0455877780914307,0.4351314604282379,1.4855436086654663,1.3400883674621582,0.1388997882604599,0.11595762521028519,-0.9834941029548645,-0.3186635673046112,-0.0008300691843032837,-0.082896888256073,0.9526889847481116,-0.07600721360660505,0.049757853397413114,0.29005315722730346,-0.11621907480258084,0.1403029976109902,0.5992576773718221
1772660385536390656,1.0556256771087646,0.5029195547103882,1.5446038246154785,1.404667854309082,0.15529656410217285,0.10932670533657074,-0.9817997217178345,-0.32311272621154785,-0.05993400514125824,-0.006939291954040527,0.9504431094442821,-0.07561880052788501,0.0581545082679573,0.29590166939224083,-0.10954566819442928,0.15687570297899936,0.6122564156108715
1772660385546427392,1.0656626224517822,0.6087368726730347,1.6565521955490112,1.4108457565307617,0.172487273812294,0.10159055143594742,-0.9797589182853699,-0.3662891387939453,-0.12341061979532242,0.020927131175994873,0.9480355291865484,-0.07494610134589874,0.06710910938554478,0.3018411788971114,-0.10176611148194516,0.17426500161253244,0.6253735174622483
1772660385556464640,1.075699806213379,0.7116795182228088,1.779537558555603,1.4103968143463135,0.1906539350748062,0.0925552099943161,-0.97728431224823,-0.4181472063064575,-0.1685744971036911,0.01405799388885498,0.9455234414745164,-0.07392022507405753,0.07677010474327743,0.30761584924592333,-0.09268786648651103,0.19266558107963103,0.6380402695663605
1772660385566501632,1.0857367515563965,0.7603344321250916,1.8653570413589478,1.4538524150848389,0.20966345071792603,0.08245009928941727,-0.9742911458015442,-0.4374924302101135,-0.18512649834156036,0.01376563310623169,0.9428228455412568,-0.07265801289139949,0.08703588828279969,0.313417662949688,-0.08254380268935867,0.2119633964324704,0.6506511961665239
1772660385576539392,1.0957746505737305,0.7880004048347473,1.8740602731704712,1.5104507207870483,0.22892864048480988,0.07163035124540329,-0.9708041548728943,-0.4074564576148987,-0.1806391477584839,0.03818702697753906,0.9398893535754308,-0.07126134031448608,0.09756909990896251,0.3193900442779008,-0.07169174853388376,0.2315826576968624,0.663490330452832
1772660385586576384,1.105811595916748,0.8030353784561157,1.8191946744918823,1.518362283706665,0.24776259064674377,0.060252320021390915,-0.9669453501701355,-0.35028642416000366,-0.1892653852701187,0.06759238243103027,0.9367695910827024,-0.06969364861425544,0.10802828204733897,0.3254770860818114,-0.060288836291718495,0.2508356567165298,0.6763993237563629
1772660385596613632,1.1158487796783447,0.7910663485527039,1.7410473823547363,1.487808108329773,0.265691876411438,0.048636626452207565,-0.9628303647041321,-0.3024502992630005,-0.21823808550834656,0.09567338228225708,0.9335632877315181,-0.06800141720903004,0.11815509086103443,0.331473765633016,-0.04865582305264037,0.26924808703451714,0.6889476995638751
1772660385606651648,1.1258866786956787,0.7799435257911682,1.6610478162765503,1.4585236310958862,0.2826650142669678,0.0370466522872448,-0.958503007888794,-0.27439478039741516,-0.2364637702703476,0.13960957527160645,0.9303083964299294,-0.06628045104730261,0.1278882083636549,0.33730970574797825,-0.03705513177183395,0.28677374044231796,0.7010230753988002
1772660385616688384,1.1359236240386963,0.8064046502113342,1.6148006916046143,1.4499006271362305,0.29875949025154114,0.025210460647940636,-0.953995406627655,-0.25502780079841614,-0.22482594847679138,0.17819279432296753,0.927003699040538,-0.06440665960643181,0.13731017935300052,0.3430188586768294,-0.025213132638401477,0.3034920396070076,0.7126679010564606
1772660385626725632,1.145960807800293,0.8633260726928711,1.6000877618789673,1.456816554069519,0.314351350069046,0.012791642919182777,-0.9492205381393433,-0.23772168159484863,-0.19702626764774323,0.20099055767059326,0.9236052347020861,-0.06228957267829386,0.1466620039583305,0.3486598623506873,-0.012791991428508759,0.31980036847543786,0.7239823080662415
1772660385636763648,1.155998706817627,0.9466199278831482,1.5863245725631714,1.459304690361023,0.3295680284500122,-0.0005110391648486257,-0.9441316723823547,-0.2294398844242096,-0.1721726804971695,0.21979695558547974,0.9201054800381104,-0.05980531438390752,0.1560688186230564,0.35422012917097406,0.0005110392066139732,0.33584606357825025,0.7348923798013338
1772660385646800640,1.1660356521606445,0.9860786199569702,1.581579327583313,1.4597193002700806,0.3444119691848755,-0.014625206589698792,-0.9387046694755554,-0.2292996644973755,-0.1622699350118637,0.2348778247833252,0.9164981724913274,-0.056986889380109644,0.16552989224319867,0.359699280080392,0.014625727628296703,0.3516516044567557,0.745400357617377
1772660385656837376,1.176072597503662,1.005247950553894,1.5605051517486572,1.4510486125946045,0.3588572144508362,-0.029124898836016655,-0.9329379796981812,-0.22456461191177368,-0.1577189862728119,0.25766026973724365,0.9127747678100518,-0.05403217240749356,0.1749615321932391,0.3651182758117636,0.029129017840810116,0.36720643421444243,0.7556191949222222
1772660385666875392,1.186110496520996,1.0292954444885254,1.5324201583862305,1.4304736852645874,0.37276315689086914,-0.043906040489673615,-0.9268872141838074,-0.21242380142211914,-0.15924948453903198,0.2831341624259949,0.90899003925733,-0.05093892384663826,0.18428679585885252,0.370379188973253,0.04392015802784699,0.38237281540612,0.765343565307329
1772660385676912384,1.1961474418640137,1.0246378183364868,1.4864691495895386,1.4005714654922485,0.3860291838645935,-0.05884193629026413,-0.9206079840660095,-0.1877717673778534,-0.17267966270446777,0.2878870964050293,0.9051606856646898,-0.04773815489967908,0.19343492742587537,0.37548373423064524,0.05887594419131796,0.39704966874731035,0.7745948760858655
1772660385686949376,1.2061843872070312,1.017018437385559,1.4102821350097656,1.3639432191848755,0.3984203636646271,-0.07369531691074371,-0.9142374992370605,-0.1611461639404297,-0.1956986039876938,0.27991437911987305,0.9013135395327688,-0.04448867224519717,0.20224244716234374,0.3804636530081611,0.07376218527332999,0.4109786713073915,0.783478624809312
1772660385696986112,1.2162213325500488,1.0053218603134155,1.3388921022415161,1.316693663597107,0.4098898470401764,-0.0884038656949997,-0.9078409075737,-0.1292349398136139,-0.2188776135444641,0.26402682065963745,0.8975288339079125,-0.04116468647405799,0.2106775490777747,0.3851783332663681,0.08851942481402056,0.424100337996963,0.7916991769126702
1772660385707024384,1.226259469985962,0.9888309836387634,1.2670944929122925,1.2627545595169067,0.4204789698123932,-0.10282261669635773,-0.9014571309089661,-0.10169234871864319,-0.23462551832199097,0.25123435258865356,0.8938151931754879,-0.03783047540909892,0.21872421898565164,0.38964482965873215,0.10300466403089623,0.43644400876463685,0.7993305449467126
1772660385717061376,1.2362964153289795,1.0105538368225098,1.197776198387146,1.192219614982605,0.43020910024642944,-0.11705276370048523,-0.8951082825660706,-0.07840248942375183,-0.23972824215888977,0.24999719858169556,0.8902085054560778,-0.0344136051716835,0.22641018553157538,0.39380590322600983,0.11732172561372267,0.44802572741331653,0.8062304645763175
1772660385727098112,1.246333360671997,1.015838384628296,1.143978476524353,1.1027371883392334,0.439250648021698,-0.1311509609222412,-0.8887397050857544,-0.049693793058395386,-0.2354414463043213,0.2356024980545044,0.8867507938426019,-0.030879915425240087,0.233830231157907,0.39754597981667605,0.13152987661795387,0.45902895127331755,0.8121364009434997
1772660385737136384,1.2563714981079102,0.9886648058891296,1.067095160484314,1.0000211000442505,0.44763365387916565,-0.14474081993103027,-0.8824251890182495,-0.00840941071510315,-0.21536660194396973,0.2161654233932495,0.8834727352134151,-0.027392163726564125,0.24090885842283016,0.40085964836888466,0.14525103010916027,0.46945192576355504,0.8171136715023114
1772660385747173376,1.2664084434509277,0.9749515652656555,0.977764368057251,0.8904998302459717,0.4552193880081177,-0.15768803656101227,-0.8763046264648438,0.032146334648132324,-0.19855891168117523,0.19948577880859375,0.8804344213773794,-0.023954498777986544,0.24753558237759313,0.4037172434047567,0.15834895686750278,0.4791068755598336,0.8211196386231905
1772660385757210368,1.2764453887939453,0.9480997323989868,0.8965360522270203,0.7800108790397644,0.46203774213790894,-0.17000184953212738,-0.8704140186309814,0.05798181891441345,-0.1926232874393463,0.17914509773254395,0.8776673013533326,-0.020542379231503684,0.25371443226036355,0.4060876449833693,0.17083153986250682,0.4880026406194913,0.8240851522654343
1772660385767248384,1.2864835262298584,0.8829091191291809,0.8298056125640869,0.6725205183029175,0.468230664730072,-0.18138755857944489,-0.8647881746292114,0.06539970636367798,-0.18476234376430511,0.16259396076202393,0.8751693427146178,-0.017320069537066482,0.25943385057680757,0.4080106496128617,0.18239723376102818,0.4962472522682708,0.8261707966995535
1772660385777285376,1.296520471572876,0.8144432306289673,0.7803704142570496,0.5866266489028931,0.47401872277259827,-0.19169777631759644,-0.8593940734863281,0.06951457262039185,-0.15241841971874237,0.1578865647315979,0.8728914924057549,-0.014423084647542139,0.264754477125306,0.4095820339427757,0.19289171594857693,0.5040502303364283,0.8276369789379837
1772660385787322368,1.3065574169158936,0.7793785333633423,0.7469611167907715,0.5291681289672852,0.4794422388076782,-0.20122718811035156,-0.8541913032531738,0.07432973384857178,-0.10725975036621094,0.15070009231567383,0.8707731262901388,-0.011749599897555219,0.2697522957551373,0.41091339298501767,0.20261057738647512,0.5114637673358208,0.828680296290599
1772660385797360128,1.3165953159332275,0.7299332022666931,0.7354844808578491,0.471499502658844,0.48472490906715393,-0.21012170612812042,-0.8490527868270874,0.08462628722190857,-0.07169286906719208,0.1400684118270874,0.8687680662064488,-0.009288034293003069,0.2745675406908415,0.4120297742457081,0.21169944567796606,0.5187481614113367,0.8293330128969707
1772660385807397376,1.3266324996948242,0.6760319471359253,0.7032599449157715,0.42987218499183655,0.4898729920387268,-0.21828621625900269,-0.8440234661102295,0.09411141276359558,-0.047933876514434814,0.12304568290710449,0.8668681083757472,-0.0070941532468252735,0.279173673469224,0.41297877993140913,0.22005799071564255,0.5258846114372665,0.8297286339977938
1772660385817434368,1.3366694450378418,0.6455355286598206,0.6605598330497742,0.40973415970802307,0.49468329548835754,-0.22592267394065857,-0.8391944766044617,0.10819146037101746,-0.03349199891090393,0.11595839262008667,0.865057686055015,-0.0050505559863844715,0.2835088049707637,0.4138508512161544,0.2278900970103072,0.532643803934624,0.830032129421736
1772660385827471360,1.3467063903808594,0.6286011338233948,0.5983870625495911,0.37830352783203125,0.49906033277511597,-0.2332143485546112,-0.8345956206321716,0.12256747484207153,-0.026276618242263794,0.10572904348373413,0.8633490722879515,-0.003044204080877761,0.2875637696984554,0.41463980597531064,0.23538187743568026,0.5389230271049497,0.8301911328713739
1772660385837509120,1.3567442893981934,0.6571488976478577,0.5377098321914673,0.3387366831302643,0.5029439330101013,-0.24036698043346405,-0.8302235007286072,0.1163339614868164,-0.02817244827747345,0.09514659643173218,0.8617817768250442,-0.0009345700643799512,0.2913543664238715,0.41526367937996683,0.2427438989548192,0.5446684892145301,0.829971245715644
1772660385847546368,1.36678147315979,0.7209699749946594,0.504845380783081,0.298191100358963,0.5064590573310852,-0.24770678579807281,-0.8259180188179016,0.0924178957939148,-0.020878419280052185,0.08292180299758911,0.860349277089611,0.0014287413414057826,0.295023630375113,0.41564189236617627,0.25031256286214293,0.5500742617113242,0.8291096896475634
1772660385857583360,1.3768184185028076,0.8081062436103821,0.5130417943000793,0.2452264279127121,0.5099422335624695,-0.25545260310173035,-0.8214030265808105,0.07178384065628052,0.012151211500167847,0.07315778732299805,0.8590174221287619,0.004098492495304417,0.298800434045321,0.41568089327351015,0.2583158222715205,0.5555867810964293,0.8273325825071199
1772660385867621120,1.3868563175201416,0.7907538414001465,0.544116735458374,0.2073257714509964,0.5137215256690979,-0.2632245421409607,-0.816580057144165,0.0723838210105896,0.06096929311752319,0.05762314796447754,0.8577292712224105,0.006801172893778691,0.3027601472248562,0.41544011561230765,0.2663631095985888,0.5615518460760447,0.8248600879338127
1772660385877658368,1.3968935012817383,0.7338202595710754,0.5452698469161987,0.19990487396717072,0.5176160931587219,-0.2705307900905609,-0.8117182850837708,0.0830308198928833,0.10530868172645569,0.04540669918060303,0.8564450015288364,0.009272570439085354,0.30668366941412445,0.4151637686082479,0.27394433697167964,0.5676652497710963,0.8223783224102404
1772660385887695360,1.4069304466247559,0.641158938407898,0.5485343933105469,0.18505163490772247,0.5215470790863037,-0.27713969349861145,-0.8069586753845215,0.09799027442932129,0.12630656361579895,0.057080745697021484,0.8551563366920979,0.011389048401846031,0.31046892947495225,0.4149543597799184,0.28081592489294516,0.573778235124231,0.8201879540545739
1772660385897733120,1.4169683456420898,0.52264803647995,0.51864093542099,0.15225401520729065,0.5253870487213135,-0.28271669149398804,-0.8025208711624146,0.10367178916931152,0.10595884919166565,0.04756176471710205,0.8539303670921906,0.013030094971330472,0.31395824351518087,0.41480531269138965,0.2866251592279568,0.5796517893777788,0.8183667182046991
1772660385907770112,1.4270052909851074,0.4174952208995819,0.48250478506088257,0.13049064576625824,0.5290082693099976,-0.2872280478477478,-0.798530101776123,0.08920156955718994,0.0669979453086853,0.04067182540893555,0.852812169703649,0.014218036643446159,0.3170690792168193,0.41470049287775185,0.2913316704272145,0.585096858216674,0.8168987745412224
1772660385917807360,1.437042474746704,0.32626116275787354,0.4575467109680176,0.12190728634595871,0.5323892831802368,-0.2908494770526886,-0.7949643135070801,0.07843524217605591,0.0443589985370636,0.03403902053833008,0.8517771628506585,0.015024662851323426,0.3198313559204678,0.41467816011563896,0.2951145875556239,0.5901011246601363,0.8158398140550017
1772660385927845120,1.447080373764038,0.24067261815071106,0.4785594642162323,0.11861096322536469,0.5357570648193359,-0.2937483787536621,-0.791628897190094,0.08432960510253906,0.062318354845047,0.035677969455718994,0.8507534600430267,0.015456465680350435,0.32240760316148226,0.4147685953108423,0.2981458689689362,0.5949701726833527,0.8152207398607403
1772660385937882112,1.4571173191070557,0.2179553210735321,0.4706501364707947,0.12481159716844559,0.5391468405723572,-0.29618388414382935,-0.7884134650230408,0.09899097681045532,0.09928447008132935,0.013572156429290771,0.8497151285962228,0.015627295243889762,0.3248831372738706,0.4149590524915475,0.3006947926010251,0.599796229321266,0.8149490600319853
1772660385947919360,1.4671545028686523,0.2290835678577423,0.493196576833725,0.10796137154102325,0.5425968170166016,-0.298597514629364,-0.7851294875144958,0.10480302572250366,0.12399119138717651,-0.00667959451675415,0.8486629694107674,0.01577389343523965,0.3273934222465514,0.4151336708707349,0.3032227788422183,0.6047224815412211,0.8146371882300879
1772660385957956352,1.47719144821167,0.2116478532552719,0.5173546075820923,0.09861234575510025,0.5462650060653687,-0.30092447996139526,-0.7816898226737976,0.10105854272842407,0.12912577390670776,-0.028185665607452393,0.8475956870446544,0.015844367469371054,0.3300061253673887,0.41524267130473685,0.305661925660239,0.6099374791951947,0.814181298572608
1772660385967994112,1.487229347229004,0.1500421017408371,0.5453295707702637,0.10594776272773743,0.5501101016998291,-0.30290600657463074,-0.7782202959060669,0.08932465314865112,0.12950512766838074,-0.029579997062683105,0.8464852458638943,0.01567817414047359,0.3326319839276729,0.41541905794421025,0.30774045292356245,0.6153299887337754,0.8139674222785803
1772660385978031104,1.4972662925720215,0.09105627238750458,0.5386034846305847,0.10172372311353683,0.5540184378623962,-0.30444228649139404,-0.7748409509658813,0.09255748987197876,0.13178908824920654,0.00045740604400634766,0.8453502738199085,0.015244686116127107,0.33518221642556423,0.4156964286532518,0.30935288134864797,0.6207284013447846,0.8141089914403598
1772660385988068352,1.5073034763336182,0.015075894072651863,0.5205199718475342,0.08790498226881027,0.5578632950782776,-0.305404931306839,-0.7716971039772034,0.09400737285614014,0.1175539493560791,0.01586824655532837,0.8442430395133397,0.014524921555064829,0.33755070046774216,0.4160557045199961,0.3103636336860723,0.6259332866040583,0.814604579064658
1772660385998106368,1.5173413753509521,-0.05636153742671013,0.5135887861251831,0.07874264568090439,0.5616052150726318,-0.30570775270462036,-0.7688578367233276,0.09144043922424316,0.10316261649131775,0.009595811367034912,0.8431966116743493,0.013499829053558897,0.3396893277711382,0.4164713315772872,0.31068168135335644,0.630865314131153,0.815424143201633
1772660386008143104,1.5273783206939697,-0.09580881148576736,0.51067054271698,0.0788225308060646,0.5652901530265808,-0.3055596351623535,-0.7662116885185242,0.09410315752029419,0.09973382949829102,0.0011970996856689453,0.8421654374438692,0.012242684425236844,0.3416785895339552,0.4169692243245143,0.31052612874190966,0.6356296552393256,0.8165744573732572
1772660386018180352,1.5374155044555664,-0.09435605257749557,0.5227359533309937,0.083509162068367,0.5689998865127563,-0.30529800057411194,-0.7635654807090759,0.10295140743255615,0.10556045174598694,-0.021834850311279297,0.8411121884724309,0.010902764159277266,0.3436544406139896,0.41750823359634603,0.31025136757298455,0.6404143375224748,0.8178633056794186
1772660386028218368,1.5474534034729004,-0.08330775797367096,0.5247882008552551,0.0866176038980484,0.5727404952049255,-0.3051062524318695,-0.760840654373169,0.10514646768569946,0.10138612985610962,-0.049584150314331055,0.8400333552710822,0.009578474999679279,0.3456702342958357,0.41804837819672536,0.31004998521569893,0.6452736335133527,0.8191439395611494
1772660386038255104,1.557490348815918,-0.06628909707069397,0.5281661748886108,0.07956501841545105,0.5765025615692139,-0.30501729249954224,-0.7580298781394958,0.09447216987609863,0.08782368898391724,-0.05321890115737915,0.8389437971108429,0.00830156468162214,0.3477300077838586,0.41855489935313234,0.3099565835488199,0.650204730799908,0.8203236968286928
1772660386048292096,1.5675272941589355,-0.05977393314242363,0.554918110370636,0.08037622272968292,0.5803623795509338,-0.3050045073032379,-0.7550839781761169,0.07831376791000366,0.07923546433448792,-0.06048309803009033,0.8378358534383081,0.007044398652400513,0.34986911825727507,0.41901441310690196,0.3099431607400836,0.6553032582839364,0.8213769479818602
1772660386058330368,1.5775654315948486,-0.06596525013446808,0.596010684967041,0.08690309524536133,0.5844374895095825,-0.3050195872783661,-0.7519280910491943,0.062016308307647705,0.08144780993461609,-0.06794184446334839,0.8366520878363639,0.0057226976893837034,0.3521408695336574,0.41949654949220083,0.3099589819794252,0.6607153613299444,0.822482974183046
1772660386068367360,1.5876023769378662,-0.08525652438402176,0.6444364190101624,0.10100279748439789,0.5888422727584839,-0.30501964688301086,-0.7484836578369141,0.04934132099151611,0.09072521328926086,-0.07248497009277344,0.8353512761078941,0.004268667734343798,0.35459829231640144,0.42003582799490363,0.30995906111752974,0.6665868192859024,0.8237380037949091
1772660386078404096,1.5976393222808838,-0.13356786966323853,0.6776391267776489,0.10673605650663376,0.5934798121452332,-0.30483752489089966,-0.7448864579200745,0.035823166370391846,0.08965808153152466,-0.06659120321273804,0.8339535155735924,0.0026134364063034,0.35714136220916776,0.42067172514951995,0.30976781944183157,0.6727491309352768,0.8252910889438033
1772660386088442368,1.6076774597167969,-0.17920641601085663,0.6822542548179626,0.10474494844675064,0.5982350707054138,-0.30428802967071533,-0.7412985563278198,0.022248268127441406,0.07174411416053772,-0.0504341721534729,0.8325084974043,0.0007037796635365863,0.35965291058964677,0.42140105208248535,0.30919093289014404,0.6790004923217525,0.8271965459693421
1772660386098479360,1.6177144050598145,-0.21029295027256012,0.6664507985115051,0.10349778831005096,0.6029248833656311,-0.3034769892692566,-0.7378233671188354,0.012904584407806396,0.04448956251144409,-0.03533947467803955,0.8310614262551206,-0.0013487019097758025,0.3620587139200115,0.42219490065299214,0.30833961599878157,0.6851213299741344,0.8293576624768663
1772660386108516096,1.627751350402832,-0.21837951242923737,0.653648316860199,0.10100972652435303,0.6074765920639038,-0.30249840021133423,-0.734484076499939,0.008597016334533691,0.02277427911758423,-0.031598687171936035,0.8296408778348957,-0.003461557470449137,0.36434320575865015,0.4230106400995179,0.3073127778384406,0.6910359981581514,0.8316447367783121
1772660386118553088,1.6377882957458496,-0.1849248856306076,0.6627081036567688,0.08331675827503204,0.6120305061340332,-0.3015578091144562,-0.7310824990272522,0.008224010467529297,0.025785714387893677,-0.0368923544883728,0.8282362522219396,-0.005538899078916006,0.36664433751728726,0.4237524111991172,0.3063261030189203,0.6969903653470515,0.8337635130572297
1772660386128591360,1.6478264331817627,-0.11421467363834381,0.683541476726532,0.05672082677483559,0.616748571395874,-0.30088403820991516,-0.7273856997489929,0.009380578994750977,0.04316309094429016,-0.053208112716674805,0.8268421302114205,-0.007467264753935933,0.36912244086914564,0.42429353920317714,0.3056195102175632,0.7032722318439837,0.8353356894520997
1772660386138628352,1.6578633785247803,-0.054901015013456345,0.687340259552002,0.03423735499382019,0.6216017007827759,-0.3005494177341461,-0.7233818769454956,0.013453841209411621,0.06139841675758362,-0.0738440752029419,0.8254731313943521,-0.009189213482743791,0.37178569952019863,0.4245998832636356,0.3052686670062047,0.7098681739104318,0.8362518928642438
1772660386148665088,1.6679003238677979,-0.017662877216935158,0.7019805312156677,0.018949344754219055,0.6265407204627991,-0.30046409368515015,-0.7191439270973206,0.016357839107513428,0.06969016790390015,-0.08336150646209717,0.824118566284611,-0.010759007863816917,0.37458279711200243,0.42473586172787076,0.3051791981214105,0.7166915519309824,0.8366920579218204
1772660386158703360,1.677938461303711,-0.019824566319584846,0.735579252243042,0.0023083179257810116,0.6316744685173035,-0.300409197807312,-0.7146619558334351,0.016122162342071533,0.07468593120574951,-0.08242666721343994,0.8227420974769878,-0.01233757197152806,0.3775139861552763,0.42476636219020175,0.30512164685279564,0.7238365680319033,0.8368845693123249
1772660386168740352,1.6879754066467285,-0.060585442930459976,0.7541360259056091,-0.013639355078339577,0.6369999647140503,-0.3001159131526947,-0.7100432515144348,0.009636938571929932,0.06879270076751709,-0.07686769962310791,0.8213385720690899,-0.014080298395586601,0.38049981389220694,0.4247640652587241,0.3048141642917685,0.7312262927204949,0.8370962897287663
1772660386178777344,1.698012351989746,-0.13591161370277405,0.7484760284423828,-0.007078659255057573,0.6423695683479309,-0.29936426877975464,-0.7055085897445679,-2.0325183868408203e-05,0.05151575803756714,-0.05646955966949463,0.8199127304179191,-0.016099639305386104,0.3833882020344614,0.42484989749310104,0.3040263062883727,0.7385891406525745,0.8376971315080494
1772660386188815360,1.7080504894256592,-0.22474455833435059,0.7323465943336487,0.00866648182272911,0.6475951075553894,-0.29810336232185364,-0.7012524008750916,0.0007355809211730957,0.03517922759056091,-0.03280210494995117,0.8184644177739712,-0.018415903979790642,0.38605006779642637,0.4251377311494223,0.30270507130143465,0.745639002879019,0.8389839492366039
1772660386198852352,1.7180874347686768,-0.2773696780204773,0.7109252214431763,0.03578917682170868,0.6525721549987793,-0.29647186398506165,-0.6973192095756531,0.009186267852783203,0.023751497268676758,-0.013786137104034424,0.8169929194872206,-0.020947878282923996,0.3884605372362744,0.42565506196438946,0.30099628957730257,0.7522616757743753,0.8409794643375148
1772660386208889344,1.7281243801116943,-0.2772810459136963,0.7035765647888184,0.053550731390714645,0.6573716402053833,-0.29480665922164917,-0.6935067176818848,0.0209578275680542,0.02628248929977417,-0.014897823333740234,0.8154822486845547,-0.02352275176107256,0.3907599189991133,0.4263121899570594,0.2992531807430797,0.758655200111303,0.8433531821475323
1772660386218927360,1.7381625175476074,-0.25217488408088684,0.6896098852157593,0.06393812596797943,0.662020742893219,-0.29334646463394165,-0.689693033695221,0.024731576442718506,0.03994375467300415,-0.028568744659423828,0.8139540521030587,-0.025986677135102214,0.3930371298017577,0.4269957681524116,0.297725425438449,0.7649290230581045,0.8457446202239527
1772660386228964352,1.748199462890625,-0.18565122783184052,0.6974469423294067,0.07295998930931091,0.666596531867981,-0.2922787666320801,-0.6857275366783142,0.015257716178894043,0.05746126174926758,-0.04292541742324829,0.8124111483613488,-0.02823353776056308,0.3953974085673187,0.42761185631764664,0.296608780716132,0.7712523519680611,0.8478571137511389
1772660386239001344,1.7582364082336426,-0.09569362550973892,0.7260159850120544,0.08414366096258163,0.6712425351142883,-0.2918327748775482,-0.6813714504241943,0.0039893388748168945,0.0771263837814331,-0.04279536008834839,0.8108073322577516,-0.030180561987271124,0.3979992527103103,0.4281088712639055,0.29614247198061955,0.7779099144988595,0.8494846985006873
1772660386249038336,1.7682733535766602,-0.012444635853171349,0.7523418664932251,0.08349891006946564,0.6760507225990295,-0.2920362651348114,-0.6765133142471313,0.000615537166595459,0.09060502052307129,-0.04986602067947388,0.8091304247148873,-0.03182480414397359,0.4009121188193573,0.4284443977961378,0.2963552282704458,0.7850561421792076,0.8505113465858174
1772660386259076352,1.7783114910125732,0.009770655073225498,0.8025680184364319,0.07637575268745422,0.6810594797134399,-0.29263120889663696,-0.6712116003036499,-0.0002123713493347168,0.08755305409431458,-0.0548931360244751,0.8073900472719769,-0.03330388378388104,0.4040854513032721,0.4286341495437215,0.2969773350414136,0.7926805302197402,0.8510649808247813
1772660386269113344,1.7883484363555908,-0.11233963072299957,0.8329250812530518,0.07059110701084137,0.6863338351249695,-0.2928602397441864,-0.6657167673110962,-0.000924229621887207,0.06359690427780151,-0.04514443874359131,0.805554872880937,-0.035084742957784416,0.4073213488871476,0.4288820104003483,0.29721685613517884,0.8006457202636341,0.8519303281375392
1772660386279150336,1.7983853816986084,-0.34116560220718384,0.8572352528572083,0.08422861993312836,0.6917650699615479,-0.2918885350227356,-0.6605014204978943,0.001792609691619873,0.021350234746932983,-0.020132124423980713,0.8036071297175701,-0.037667027482147966,0.410280999944772,0.42949528956107413,0.2962007600788985,0.8085135291946685,0.8541846068141845
1772660386289188352,1.8084235191345215,-0.5591807961463928,0.8115917444229126,0.10626454651355743,0.6970071196556091,-0.28953567147254944,-0.6560108065605164,0.011168479919433594,-0.036071598529815674,0.013570010662078857,0.801589150077374,-0.041109685763563455,0.4126797850543697,0.4306508717554784,0.29374168547587465,0.8156888223530573,0.8583336243634546
1772660386299225344,1.818460464477539,-0.7462681531906128,0.7471382021903992,0.09616982936859131,0.7018166184425354,-0.28597232699394226,-0.6524364352226257,0.029140472412109375,-0.09897640347480774,0.03617978096008301,0.7996072542486277,-0.04520590267798403,0.41441308910032243,0.43225743170812375,0.2900209911566385,0.8218450423352522,0.8640832338301403
1772660386309262336,1.8284974098205566,-0.902559757232666,0.7030455470085144,0.08202444761991501,0.7062886357307434,-0.28119105100631714,-0.6496829390525818,0.044367432594299316,-0.13613680005073547,0.015832901000976562,0.797711448167497,-0.04990982724980709,0.41553282326600405,0.4341634458523256,0.28503500458545455,0.8271194019338545,0.8710721043196228
1772660386319300096,1.8385353088378906,-0.9600715041160583,0.6970619559288025,0.08462130278348923,0.7106091380119324,-0.2756751775741577,-0.6473312973976135,0.05013304948806763,-0.12828600406646729,-0.006553530693054199,0.7958223589816503,-0.055016082836707045,0.41630225578609414,0.4362710503940849,0.279292036482992,0.8319628478435671,0.8788933304224081
1772660386329337344,1.8485724925994873,-0.8916687369346619,0.7246730923652649,0.09177721291780472,0.7149577140808105,-0.2702595293521881,-0.64482182264328,0.04901927709579468,-0.086506187915802,-0.027236223220825195,0.7938810643405312,-0.060102784971128045,0.41710519259049356,0.43836478818096436,0.27366258541936417,0.8369313651567954,0.8867103024202961
1772660386339374336,1.8586094379425049,-0.7559306025505066,0.7723532915115356,0.08167184889316559,0.7195497155189514,-0.26553741097450256,-0.6416682600975037,0.037560880184173584,-0.042034000158309937,-0.05799305438995361,0.7918658076849735,-0.06486160449499595,0.41828083431945834,0.44020759173672114,0.26876131501607053,0.8425504184341456,0.8937264923149446
1772660386349412096,1.8686473369598389,-0.5640807747840881,0.8336430191993713,0.07318329066038132,0.7244966626167297,-0.26183822751045227,-0.6376091837882996,0.020101726055145264,-0.0064265429973602295,-0.08295667171478271,0.7897839041686165,-0.06910758942749501,0.42002328836019187,0.4416402141331872,0.2649263894530723,0.8491009436891299,0.8994271255823447
1772660386359449344,1.8786845207214355,-0.3796707093715668,0.8980526328086853,0.05149424076080322,0.7298384308815002,-0.25932154059410095,-0.6325253248214722,0.012700021266937256,0.017851173877716064,-0.09858429431915283,0.787653703151951,-0.07273757785494951,0.42242936761785277,0.4425658133341708,0.2623196535743734,0.8567066465475048,0.9035057559012253
1772660386369486336,1.8887214660644531,-0.2951286733150482,0.9658641219139099,0.026528434827923775,0.7356339693069458,-0.25750574469566345,-0.6265249848365784,0.0139082670211792,0.021894782781600952,-0.11116117238998413,0.7854604047822344,-0.07603921118895356,0.42538869884177233,0.4430739875142025,0.26044001686431206,0.8653275376816812,0.9063787603886789
1772660386379523328,1.8987584114074707,-0.2946663498878479,1.0061566829681396,7.046363316476345e-05,0.7417413592338562,-0.2558170258998871,-0.6199818849563599,0.0198553204536438,0.006366312503814697,-0.10531413555145264,0.7832135728810962,-0.07932102511528122,0.428622484579695,0.4433594107814625,0.2586927480980559,0.8745767200900842,0.9087446101985484
1772660386389561088,1.9087963104248047,-0.39042457938194275,1.0567734241485596,-0.04109281674027443,0.748197615146637,-0.2535938620567322,-0.6130991578102112,0.029634416103363037,-0.03247791528701782,-0.0854177474975586,0.7808813187039585,-0.08298797710780736,0.43192988805622756,0.4435921228305864,0.2563937768732476,0.8843167322565706,0.9113150911803474
1772660386399598336,1.9188334941864014,-0.5501771569252014,1.0512304306030273,-0.09202830493450165,0.7548369765281677,-0.25021839141845703,-0.6063100695610046,0.033981382846832275,-0.08942699432373047,-0.07676482200622559,0.7785289959723158,-0.08732451918462629,0.4349935442179181,0.4439005347187789,0.25290581730754336,0.894087052315661,0.9146602240930136
1772660386409635328,1.928870439529419,-0.7179214954376221,1.0319753885269165,-0.14803098142147064,0.7614441514015198,-0.24546633660793304,-0.5999576449394226,0.034515380859375,-0.15272703766822815,-0.05359154939651489,0.7762269688306737,-0.09238571111354967,0.4375912116397023,0.4443540919182115,0.24800071080905256,0.9034643114419384,0.9190356794817159
1772660386419673088,1.938908338546753,-0.8762208223342896,1.0132719278335571,-0.19743049144744873,0.7679879665374756,-0.23934480547904968,-0.594061017036438,0.047945261001586914,-0.19571377336978912,-0.04856288433074951,0.7739854083502736,-0.09815423859977118,0.4396990241495832,0.4449460594494944,0.24169098051728982,0.9124058613824456,0.9244382730888707
1772660386429710336,1.9489455223083496,-0.9980069398880005,1.0284061431884766,-0.218125119805336,0.7745355367660522,-0.23213833570480347,-0.5883932113647461,0.059219956398010254,-0.20249301195144653,-0.0673990249633789,0.7717171782562591,-0.10454966869171793,0.4414439504179519,0.4457008487549885,0.2342754982658076,0.9211336002871612,0.9308495104150826
1772660386439747328,1.9589824676513672,-1.0497651100158691,1.0682986974716187,-0.2307327836751938,0.7812013626098633,-0.22434483468532562,-0.582575261592865,0.06743144989013672,-0.17201748490333557,-0.10481792688369751,0.7693379391614777,-0.11136811319658177,0.44306829931221503,0.4465499548721205,0.226270675565762,0.9300254277701179,0.9379318969686515
1772660386449785344,1.9690203666687012,-1.0659492015838623,1.1328991651535034,-0.24409878253936768,0.7881243824958801,-0.2163291573524475,-0.5762479901313782,0.06255310773849487,-0.1322731375694275,-0.1474611759185791,0.766807215262692,-0.1184409868635345,0.4448007924520473,0.44735977774333174,0.21805302291154974,0.939459810477437,0.9452411908716186
1772660386459822080,1.9790573120117188,-1.0641486644744873,1.1919875144958496,-0.25894030928611755,0.7953464984893799,-0.20821185410022736,-0.569273054599762,0.04226946830749512,-0.10163310170173645,-0.1809864044189453,0.7641199122420032,-0.125703852732261,0.44672365431314665,0.4480594268194033,0.20974639044506568,0.9495747589313319,0.9525770871076941
1772660386469859328,1.9890944957733154,-1.0409562587738037,1.238390564918518,-0.2651490867137909,0.8027746677398682,-0.20014671981334686,-0.5616886615753174,0.022435903549194336,-0.08446021378040314,-0.19403338432312012,0.7613024495820213,-0.1330426983502426,0.4488377182185832,0.4486233781776042,0.20150767109946122,0.9602823772058212,0.9598030543428644
1772660386479897344,1.9991323947906494,-1.056464672088623,1.2725826501846313,-0.26751235127449036,0.8103285431861877,-0.19211263954639435,-0.5535885691642761,0.01265418529510498,-0.08373573422431946,-0.2016451358795166,0.7583533748319166,-0.14046993964220242,0.45108082466463106,0.44910393059646875,0.1933144312241411,0.9714582002482215,0.9670593584959739
1772660386489934080,2.009169340133667,-1.1205130815505981,1.298032283782959,-0.2326635867357254,0.8178906440734863,-0.18405893445014954,-0.545139491558075,0.013652205467224121,-0.08475512266159058,-0.18542075157165527,0.755218826298556,-0.1480683119776526,0.4533277246880506,0.44968227195253896,0.18511434766066537,0.9828960989028254,0.9748246174761186
1772660386499971328,2.0192065238952637,-1.2006582021713257,1.300719976425171,-0.16839830577373505,0.8253050446510315,-0.17608892917633057,-0.5365298390388489,0.029995858669281006,-0.08309683203697205,-0.1741788387298584,0.7518236855202257,-0.1558586904733051,0.4554592795748394,0.45058412799271946,0.17701187892512285,0.9943516523131156,0.9836097786671688
1772660386510009344,2.0292444229125977,-1.2738689184188843,1.3077045679092407,-0.09862841665744781,0.8324846029281616,-0.16837920248508453,-0.5278425216674805,0.049778521060943604,-0.07336574792861938,-0.17822736501693726,0.7481487670517826,-0.16376661745238372,0.45744861656092667,0.45187894003617335,0.16918516708491582,1.0057107585622567,0.9934955749026229
1772660386520046336,2.0392813682556152,-1.3208180665969849,1.3280854225158691,-0.035984475165605545,0.8394975066184998,-0.161001518368721,-0.5189628005027771,0.053874075412750244,-0.05854193866252899,-0.19256973266601562,0.744179861165687,-0.17177008791843112,0.45936219796774114,0.45351707638364774,0.16170532923712314,1.017114395481386,1.004351597173253
1772660386530083072,2.049318313598633,-1.3495441675186157,1.35526442527771,-0.00499593373388052,0.8464378118515015,-0.1539606899023056,-0.5097442269325256,0.039121270179748535,-0.0471959114074707,-0.2109130620956421,0.7399508136992828,-0.17983397490252948,0.4612890998847277,0.45535141200583473,0.15457551956503074,1.0287439527374889,1.015833094685486
1772660386540120320,2.0593554973602295,-1.3725628852844238,1.389135479927063,0.019993038848042488,0.8533744215965271,-0.14712674915790558,-0.5001056790351868,0.006412506103515625,-0.04545441269874573,-0.22490030527114868,0.7354936243397069,-0.18799834784344627,0.463253459703576,0.4572765860478126,0.1476627777018352,1.0407098668537345,1.0277659754939266
1772660386550158336,2.0693933963775635,-1.382352352142334,1.427666187286377,0.027938714250922203,0.8603339791297913,-0.1404942125082016,-0.4899866580963135,-0.01774364709854126,-0.04596821963787079,-0.22529959678649902,0.7308265331772066,-0.19624902736353847,0.46528807728915944,0.4592232420589137,0.14096055401503643,1.0530820516714352,1.0399984385808463
1772660386560195328,2.079430341720581,-1.3709527254104614,1.4519848823547363,0.022246206179261208,0.8672800660133362,-0.13403141498565674,-0.47943809628486633,-0.02479654550552368,-0.04477106034755707,-0.20812293887138367,0.7260248832346314,-0.204528157502495,0.4673854826014677,0.4610931414511337,0.13443599623097716,1.065800929869984,1.0522772619231424
1772660386570232320,2.0894675254821777,-1.3625253438949585,1.4826141595840454,0.01070619747042656,0.8742364048957825,-0.12766709923744202,-0.46841421723365784,-0.023238420486450195,-0.04185806214809418,-0.18980413675308228,0.7211050387994897,-0.21285840001918932,0.469557441342845,0.46283329437474996,0.12801647928578203,1.0789220032843718,1.0645230865985995
1772660386580270336,2.0995054244995117,-1.3495993614196777,1.516055703163147,-0.008682680316269398,0.8811609148979187,-0.12140033394098282,-0.45696553587913513,-0.0204736590385437,-0.03661968559026718,-0.15834516286849976,0.7161010444363541,-0.221206449059215,0.471789088944186,0.46441586149432296,0.12170052970157512,1.0923837152909546,1.0766512570622928
1772660386590307328,2.1095423698425293,-1.4204607009887695,1.5501329898834229,-0.03513665869832039,0.8881163001060486,-0.11496515572071075,-0.4450083076953888,-0.01743459701538086,-0.04615239053964615,-0.1396474540233612,0.7109516652050862,-0.22977604492958378,0.47402407327201046,0.46588823893600356,0.1152199249206916,1.1062932204368598,1.088996756603825
1772660386600344064,2.119579315185547,-1.542114496231079,1.5363056659698486,-0.05634554103016853,0.8949558734893799,-0.10802844166755676,-0.43287861347198486,-0.022534608840942383,-0.07548901438713074,-0.11894023418426514,0.7056417543934322,-0.2387622156631413,0.4759761597312082,0.46744948548849,0.10823967356177064,1.1202839992366902,1.1022272293270883
1772660386610382336,2.12961745262146,-1.647118091583252,1.5048651695251465,-0.08943451941013336,0.9015169143676758,-0.10056404024362564,-0.4208967983722687,-0.02367877960205078,-0.11330316215753555,-0.07414406538009644,0.7002372880598677,-0.2481121929550911,0.47748500898401236,0.4691653652347696,0.1007343178750997,1.133997098491791,1.1164520257684036
1772660386620419328,2.1396543979644775,-1.7567332983016968,1.4598188400268555,-0.13717353343963623,0.9077739715576172,-0.0924530103802681,-0.40914419293403625,-0.018278121948242188,-0.1491699516773224,-0.05688971281051636,0.6948042386507759,-0.2578187584918857,0.4784949176354985,0.4709769366895153,0.09258522576680057,1.1473508426360324,1.1315674210239604
1772660386630456320,2.149691343307495,-1.859664797782898,1.427757740020752,-0.17615649104118347,0.9137222170829773,-0.08368586003780365,-0.3976283669471741,-0.02410435676574707,-0.16159915924072266,-0.03543129563331604,0.6893447798126984,-0.26787873400810097,0.47898518361414194,0.47288255057228495,0.08378384577435875,1.16033968438504,1.1475891613108884
1772660386640494336,2.159729480743408,-1.9098395109176636,1.4073081016540527,-0.19299805164337158,0.9194045662879944,-0.07457064837217331,-0.3861793577671051,-0.03250277042388916,-0.1468038707971573,-0.016683191061019897,0.6838056456900266,-0.27817750935359076,0.4790903780736603,0.4748679707023545,0.07463993380293306,1.1731411178898112,1.164362626612039
1772660386650531328,2.169766426086426,-1.8686497211456299,1.4121915102005005,-0.19798630475997925,0.9248894453048706,-0.06552982330322266,-0.3745470643043518,-0.041954874992370605,-0.11632444709539413,-0.023051202297210693,0.6782072052199886,-0.28847007964802684,0.4790735621944995,0.4767689497580864,0.06557681528944881,1.1860178438212983,1.1812497413702736
1772660386660568320,2.1798033714294434,-1.784974217414856,1.4463651180267334,-0.20245054364204407,0.9302682280540466,-0.056898485869169235,-0.36244118213653564,-0.05880826711654663,-0.08598481863737106,-0.038269877433776855,0.6725765472151938,-0.2985572517201771,0.47921077939666107,0.47839459859552746,0.05692923158491928,1.1992793763405742,1.1975984944433857
1772660386670607104,2.1898422241210938,-1.6737500429153442,1.4692857265472412,-0.2021111398935318,0.9355672001838684,-0.04881688207387924,-0.34975823760032654,-0.07678735256195068,-0.06963706016540527,-0.04689398407936096,0.6669321532105329,-0.308353971686008,0.47962351106112106,0.4796671009279353,0.04883629157580801,1.2130375986677266,1.2131269875440382
1772660386680644096,2.1998791694641113,-1.554980993270874,1.4978828430175781,-0.20985853672027588,0.9407484531402588,-0.04133591428399086,-0.33657658100128174,-0.09333634376525879,-0.06997696310281754,-0.03483760356903076,0.6613367627097925,-0.31777717059334926,0.48034298007427123,0.4805434717310265,0.0413476965570032,1.2272115709139455,1.2276211078443302
1772660386690681088,2.209916114807129,-1.5091005563735962,1.5010172128677368,-0.21680006384849548,0.945793867111206,-0.034271735697984695,-0.32295435667037964,-0.10378330945968628,-0.0983576774597168,-0.01792699098587036,0.655752560736226,-0.3269621933354768,0.4812676472058053,0.481108930322854,0.03427844734152966,1.241746295358404,1.2414232781586088
1772660386700717824,2.2199530601501465,-1.4901801347732544,1.4798598289489746,-0.22834299504756927,0.9505809545516968,-0.027418678626418114,-0.30926355719566345,-0.10763972997665405,-0.13119640946388245,0.0027298033237457275,0.650199105637768,-0.335996042345863,0.48215648455941534,0.4815317704097122,0.02742211543646293,1.2562554602258362,1.2549885425055534
1772660386710756096,2.2299911975860596,-1.4973478317260742,1.4483510255813599,-0.23556962609291077,0.9550678730010986,-0.020674018189311028,-0.29566508531570435,-0.10600787401199341,-0.15675516426563263,0.028895705938339233,0.6446694869608252,-0.34493898767438796,0.48289186850093535,0.4819063324665089,0.020675491235052672,1.2705784990088214,1.268586730119954
1772660386720793088,2.240028142929077,-1.5207375288009644,1.4504985809326172,-0.22938069701194763,0.95930016040802,-0.014078677631914616,-0.28203704953193665,-0.1085922122001648,-0.16087856888771057,0.04541906714439392,0.6390779951979151,-0.35385694067460843,0.48349430175370517,0.4822839111668382,0.014079142415527554,1.2848504771014948,1.2824124725166355
1772660386730830080,2.2500650882720947,-1.5277938842773438,1.4372303485870361,-0.22992119193077087,0.9633097052574158,-0.0076381247490644455,-0.2682834267616272,-0.10535383224487305,-0.1455448418855667,0.06326636672019958,0.6333921559468559,-0.3627805232404895,0.4839923282936337,0.48265517150999093,0.007638199213720492,1.2991774858564797,1.29649289917878
1772660386740868096,2.260103225708008,-1.5511354207992554,1.4268561601638794,-0.20902283489704132,0.9670771956443787,-0.0014590212376788259,-0.2544786036014557,-0.09830290079116821,-0.1286221146583557,0.08385488390922546,0.6276124226870753,-0.3716568512214942,0.48438815104383615,0.4830546885150142,0.001459021756591417,1.3134874997186619,1.3108186261095316
1772660386750905088,2.2701401710510254,-1.577530860900879,1.3987693786621094,-0.17310172319412231,0.9705798029899597,0.004267347976565361,-0.2407412827014923,-0.08790481090545654,-0.11580906063318253,0.106601282954216,0.6216874209380553,-0.3804433576978109,0.4846567927664397,0.4836065013911445,-0.004267360821560792,1.3276645097571345,1.3255683942086733
1772660386760942080,2.280177116394043,-1.6101969480514526,1.3693137168884277,-0.14598222076892853,0.973812997341156,0.009549620561301708,-0.22715038061141968,-0.07845765352249146,-0.11131052672863007,0.1414569914340973,0.615635985029925,-0.38912745622713674,0.4847727621888124,0.4843218776540361,-0.009549765948170906,1.3416351446755554,1.3407376507940236
1772660386770980096,2.290215253829956,-1.617574691772461,1.33734130859375,-0.1252676248550415,0.9767916202545166,0.01444772258400917,-0.21370460093021393,-0.07734692096710205,-0.12054210901260376,0.15685030817985535,0.6094754352577822,-0.39772250333964315,0.48473138047667663,0.48517229157313,-0.014448225018422122,1.35540791750992,1.3562834377356896
1772660386781017088,2.3002521991729736,-1.5964607000350952,1.289055585861206,-0.1044749841094017,0.9794939160346985,0.018930278718471527,-0.20058239996433258,-0.08627492189407349,-0.12983116507530212,0.15176953375339508,0.6033287106143576,-0.4060908720688169,0.4845606308633236,0.48609219893628947,-0.01893141013703317,1.3688072611998985,1.3718418107803456
1772660386791054080,2.310289144515991,-1.5412518978118896,1.2423690557479858,-0.07730647921562195,0.9819396138191223,0.022896071895956993,-0.18780361115932465,-0.09412235021591187,-0.13605523109436035,0.15159454941749573,0.5972435177131472,-0.4141360926419304,0.48434439000910895,0.4870337418942799,-0.022898073240156615,1.381820675155748,1.3871388473980029
1772660386801091840,2.320327043533325,-1.4844133853912354,1.216436505317688,-0.05062320828437805,0.9841631650924683,0.026300618425011635,-0.17530319094657898,-0.09794795513153076,-0.13099119067192078,0.15380358695983887,0.591246953928499,-0.42181104819563575,0.4841733651661517,0.4879330520437314,-0.026303652256700245,1.3945210022043089,1.4019434195374867
1772660386811129088,2.330364227294922,-1.402154803276062,1.1771328449249268,-0.01588519848883152,0.9861838221549988,0.02908037044107914,-0.16308289766311646,-0.10530906915664673,-0.11256124079227448,0.15586547553539276,0.5853422733997956,-0.42908290539813165,0.48409339030403015,0.4887903506868562,-0.029084470905156652,1.4069118241731184,1.4161720969191238
1772660386821166080,2.3404011726379395,-1.2955279350280762,1.150711178779602,0.012109416536986828,0.9880174398422241,0.031199587509036064,-0.1511572152376175,-0.1055557131767273,-0.08704680949449539,0.15059266984462738,0.579596818072301,-0.4358691812288501,0.48418947515874594,0.48953686348713416,-0.03120465097216147,1.4189830363777054,1.4295148297881124
1772660386831203072,2.350438117980957,-1.2316433191299438,1.1498041152954102,0.009247716516256332,0.9896997213363647,0.03288199007511139,-0.13933143019676208,-0.10728394985198975,-0.06744314730167389,0.13074076175689697,0.5739903835938238,-0.4423019947761737,0.4844617979981764,0.4901028278274813,-0.032887917302593446,1.4309339817555753,1.4420350625898344
1772660386841241088,2.36047625541687,-1.2009562253952026,1.1311614513397217,0.01861458644270897,0.99123215675354,0.03436422348022461,-0.12758511304855347,-0.11598801612854004,-0.058396823704242706,0.11225003004074097,0.5684664823019558,-0.4485541207947978,0.48477484196137427,0.4905491180049215,-0.034370991078350364,1.442786504100583,1.4541416605237993
1772660386851278080,2.3705132007598877,-1.1878780126571655,1.1042225360870361,0.02975352294743061,0.9926066994667053,0.035579174757003784,-0.11604461073875427,-0.12473243474960327,-0.06096984073519707,0.12133936583995819,0.5629770034507395,-0.45463983398314095,0.4850570231207975,0.4909983208405326,-0.03558668580184839,1.4544156711570129,1.4660924243204738
1772660386861315072,2.3805501461029053,-1.1674270629882812,1.0721272230148315,0.01410851813852787,0.9938226342201233,0.03663971647620201,-0.10475631058216095,-0.11694592237472534,-0.07449677586555481,0.14590926468372345,0.5575577654470821,-0.46057858038768623,0.4852723101793628,0.491433986908881,-0.03664791883388312,1.465776675629968,1.4778803618432217
1772660386871352832,2.3905880451202393,-1.1397020816802979,1.0201573371887207,0.002372633432969451,0.9948694109916687,0.037707697600126266,-0.09387865662574768,-0.10483938455581665,-0.09578265249729156,0.15824024379253387,0.5523050319580971,-0.4663538605685118,0.48536043327384315,0.4918318802683532,-0.03771664035369442,1.4767121294867933,1.489417776197324
1772660386881390080,2.400625228881836,-1.0752676725387573,0.9783896207809448,0.006700003519654274,0.9957595467567444,0.03865331783890724,-0.0834796279668808,-0.09044033288955688,-0.11030860245227814,0.1629321575164795,0.5472558449960363,-0.47186489928560865,0.4853902581663643,0.4921898650410323,-0.038662948708231955,1.4871567830889125,1.5005006503845135
1772660386891427072,2.4106621742248535,-0.9912103414535522,0.9484437108039856,0.01588790863752365,0.996522068977356,0.03936077654361725,-0.07344657927751541,-0.07634085416793823,-0.10588907450437546,0.17705374956130981,0.542418579919417,-0.4770481128419372,0.4854913061439468,0.4924483067679215,-0.039370947028328905,1.4972264356683926,1.5108745374935564
1772660386901464832,2.4207000732421875,-0.8799935579299927,0.9240851402282715,0.03259311988949776,0.9971767067909241,0.0397523008286953,-0.06370725482702255,-0.07612556219100952,-0.0896332710981369,0.19037044048309326,0.5378186727004981,-0.4818413198099519,0.4857729049966097,0.49254931075484076,-0.039762776248621554,1.50699540774766,1.5202867128792856
1772660386911502080,2.430737257003784,-0.739639937877655,0.906951904296875,0.055853165686130524,0.9977354407310486,0.03976936638355255,-0.054244425147771835,-0.07351058721542358,-0.06812019646167755,0.20384156703948975,0.5335066293110883,-0.48616594732338636,0.486333690341223,0.4924357009925788,-0.03977985893689058,1.5164822535601234,1.5284506794264323
1772660386921539072,2.4407742023468018,-0.5902107954025269,0.8891574740409851,0.0675433799624443,0.9982079863548279,0.03946211189031601,-0.04498593136668205,-0.06011289358139038,-0.0504026859998703,0.20790404081344604,0.5295260748618557,-0.4900028584770141,0.4872414531646419,0.4920316871722058,-0.03947236142005496,1.5257601092657855,1.5351569956466171
1772660386931577088,2.4508121013641357,-0.4579387605190277,0.8777644634246826,0.06741368025541306,0.9985933303833008,0.03899327293038368,-0.03592827171087265,-0.04012781381607056,-0.04059542715549469,0.20813894271850586,0.5259052262906942,-0.4934009666026958,0.4884581355230896,0.49131234342976154,-0.03900315967509553,1.534832957451725,1.5404332382424464
1772660386941613824,2.4608490467071533,-0.4150807857513428,0.8732016682624817,0.047687117010354996,0.9988927841186523,0.038538988679647446,-0.026985805481672287,-0.01857656240463257,-0.040904104709625244,0.21238011121749878,0.5225414113875808,-0.49654585583793426,0.4898462112007216,0.4903503827348397,-0.03854853678148318,1.5437871787099975,1.544776635669832
1772660386951651072,2.47088623046875,-0.4385105073451996,0.8635971546173096,0.050308600068092346,0.9991071820259094,0.03815629333257675,-0.018137136474251747,0.002937495708465576,-0.050149671733379364,0.2112218141555786,0.5192257414129546,-0.49967217920974816,0.4911813772146666,0.48935998495582606,-0.03816555741105117,1.552644976650685,1.5490697601706656
1772660386961688064,2.4809231758117676,-0.4344553053379059,0.8579704165458679,0.030097071081399918,0.999242901802063,0.03776886686682701,-0.00933600589632988,0.02225673198699951,-0.05633879452943802,0.22018194198608398,0.5158874652948272,-0.5028138621943888,0.4924532637212164,0.4883934251090612,-0.03777785065138794,1.561453518932771,1.5534829450074719
1772660386971725824,2.4909610748291016,-0.42523324489593506,0.8568655848503113,-0.045644164085388184,0.9992842674255371,0.03782409429550171,-0.0005951568600721657,0.049620211124420166,-0.061765171587467194,0.21569830179214478,0.5126953144774852,-0.5060216024203752,0.493603646124276,0.48727933610622154,-0.0378331199329167,1.5702007437695216,1.5577846767153045
1772660386981763072,2.5009982585906982,-0.4627918303012848,0.8584818840026855,-0.12043584138154984,0.9992192387580872,0.03865606337785721,0.008170527406036854,0.06810259819030762,-0.06206304952502251,0.1863332986831665,0.5096527254198313,-0.5094563098297167,0.49450938545407574,0.48597209994520707,-0.03866569830707152,1.5789730568056983,1.5622190383181194
1772660386991800064,2.511035203933716,-0.4883030951023102,0.8956490755081177,-0.19985969364643097,0.9990445375442505,0.04018894582986832,0.017165858298540115,0.08449721336364746,-0.04453769698739052,0.1540377140045166,0.5066393662212361,-0.5132010768902039,0.4951843938194367,0.4844930475607084,-0.040199770955361626,1.5879769118698515,1.5670109760656052
1772660387001838080,2.52107310295105,-0.5143059492111206,0.9404176473617554,-0.306572824716568,0.9987384676933289,0.04260846599936485,0.02657637558877468,0.11599254608154297,-0.019811827689409256,0.11565077304840088,0.5036807697977584,-0.5173194202489362,0.4956498815278832,0.4827189913342933,-0.0426213689358728,1.597399993877511,1.5720714993487623
1772660387011874816,2.5311100482940674,-0.5736804008483887,0.9838829040527344,-0.4176883101463318,0.9982724785804749,0.04607018455862999,0.03646475449204445,0.15193504095077515,0.00020969659090042114,0.055744051933288574,0.5007480612362409,-0.5219150885080944,0.49581954156253283,0.48064438069118276,-0.04608649704317716,1.6073079518548405,1.577632398961268
1772660387021912064,2.541147232055664,-0.6377129554748535,1.0235607624053955,-0.5118683576583862,0.9976279139518738,0.050457000732421875,0.046825770288705826,0.19075709581375122,0.015644095838069916,0.021182656288146973,0.4977647310883631,-0.5270071391969933,0.49565750314209406,0.47834858772837396,-0.050478434984909185,1.6176990137621285,1.5839212136681942
1772660387031950080,2.551185131072998,-0.6666785478591919,1.0646337270736694,-0.6270875930786133,0.9967777132987976,0.055798083543777466,0.05762738361954689,0.2287777066230774,0.029605351388454437,0.005818605422973633,0.4947882418459546,-0.5325490435968357,0.4951819951265129,0.47578459323864175,-0.055827076201868574,1.6285457193644404,1.5907877258938654
1772660387041986816,2.5612220764160156,-0.6950872540473938,1.0945676565170288,-0.7558122873306274,0.9956833124160767,0.062277451157569885,0.0688219889998436,0.2475724220275879,0.03521095588803291,-0.008702389895915985,0.4919149225599714,-0.5385294617128548,0.4943652643659818,0.47287293426443455,-0.0623177779982557,1.6398069265430077,1.598098291808164
1772660387052024064,2.5712592601776123,-0.7170603275299072,1.1157985925674438,-0.8687379360198975,0.9943170547485352,0.06987012922763824,0.08032414317131042,0.2549811005592346,0.037261806428432465,-0.016374588012695312,0.4891808532561335,-0.54489545401238,0.4932048412822639,0.4696169615031924,-0.06992710265771558,1.651404514708604,1.6057912660653075
1772660387062062080,2.5812971591949463,-0.7433500289916992,1.1518803834915161,-0.9615866541862488,0.9926540851593018,0.07836946845054626,0.09217453747987747,0.26422762870788574,0.04307524859905243,-0.017421729862689972,0.4865278000480261,-0.5515996800927311,0.4917571180437563,0.466050890753578,-0.07844991572325208,1.6633874775822952,1.6138733751621162
1772660387072099072,2.591334104537964,-0.7981961369514465,1.1762605905532837,-1.0413697957992554,0.9906718730926514,0.08757460862398148,0.10440204292535782,0.26810187101364136,0.04153002053499222,-0.028779521584510803,0.4838495981758292,-0.558649615479901,0.4900118642517445,0.46226449542974574,-0.08768693717785364,1.6757938574929054,1.6225740197439
1772660387082135808,2.6013710498809814,-0.8516388535499573,1.193109393119812,-1.1085485219955444,0.9883547425270081,0.09733541309833527,0.116963692009449,0.2628963589668274,0.03889507055282593,-0.025609269738197327,0.4810857550585752,-0.5660336134492707,0.48794240784210885,0.4583389312303295,-0.0974897677679501,1.6885902804253767,1.632062640054714
1772660387092174080,2.6114091873168945,-0.8975496292114258,1.2003686428070068,-1.1687968969345093,0.9857051372528076,0.10752072185277939,0.129710853099823,0.26435601711273193,0.03694947808980942,-0.02785848081111908,0.4782596810695669,-0.5736650273150501,0.485555210695577,0.45432627910342593,-0.10772897612976326,1.7016364931450123,1.6422790859928653
1772660387102211072,2.621446132659912,-0.914199709892273,1.1911157369613647,-1.2356164455413818,0.9827101826667786,0.11813585460186005,0.14256489276885986,0.26124733686447144,0.029752306640148163,-0.03856098651885986,0.4754429550451339,-0.5814710669660685,0.4828807736725295,0.4501906214127265,-0.1184123793275889,1.7148644186596473,1.653024509224148
1772660387112248064,2.6314830780029297,-0.9471670389175415,1.1850112676620483,-1.2944965362548828,0.9793668985366821,0.12918530404567719,0.15540826320648193,0.24472367763519287,0.014583021402359009,-0.053220152854919434,0.4726842465910464,-0.5894043179972059,0.47990278041358697,0.4459434206000114,-0.12954734819540248,1.7281665778166198,1.6642400936167037
1772660387122285056,2.6415202617645264,-0.9924506545066833,1.1717162132263184,-1.3468902111053467,0.975673258304596,0.14052094519138336,0.16827255487442017,0.21904414892196655,-0.01272861659526825,-0.06895303726196289,0.46989964324041344,-0.5974799893079313,0.4766066896170116,0.4416538067942925,-0.1409875659229066,1.7415843134768823,1.6761148292230934
1772660387132323072,2.6515581607818604,-1.035702109336853,1.1364941596984863,-1.3972563743591309,0.9716460704803467,0.15208302438259125,0.18103891611099243,0.19151628017425537,-0.03434622287750244,-0.07930849492549896,0.4670980719824156,-0.6056633881147216,0.4729601650776933,0.43737867622442866,-0.1526754680534349,1.755005919526677,1.6886939763363968
1772660387142360064,2.661595106124878,-1.0470689535140991,1.1057580709457397,-1.4359877109527588,0.9673029780387878,0.16385000944137573,0.19359253346920013,0.16581463813781738,-0.040833666920661926,-0.08050967752933502,0.4643349047153931,-0.6138880301018413,0.4689752151952712,0.43312445391226884,-0.16459215542575723,1.7683230370011012,1.701847807314008
1772660387152396800,2.6716320514678955,-1.013301134109497,1.0526858568191528,-1.4661331176757812,0.9626778960227966,0.17579106986522675,0.20578891038894653,0.1472160816192627,-0.034036919474601746,-0.08277246356010437,0.46173549558702165,-0.6220086079999688,0.4647577312041252,0.42884261030977694,-0.17670929291519888,1.781393818297821,1.7151383603864152
1772660387162435072,2.6816701889038086,-0.9807527661323547,1.0219199657440186,-1.4747761487960815,0.9577925205230713,0.18782873451709747,0.21760916709899902,0.13548439741134644,-0.020699217915534973,-0.08964897692203522,0.45934283193601666,-0.6299408663208949,0.460411864757192,0.42449916426506534,-0.188951071827704,1.794202480476743,1.7282881600597468
1772660387172472064,2.691707134246826,-1.0127842426300049,0.9830352663993835,-1.4663095474243164,0.952681303024292,0.1997009515762329,0.2291673868894577,0.12034714221954346,-0.006646767258644104,-0.10384705662727356,0.4569888500358339,-0.6377370685509518,0.4559332492244401,0.4202111848360488,-0.20105272125672954,1.8068611896868214,1.7416222225712694
1772660387182509056,2.7017440795898438,-1.0748074054718018,0.928763747215271,-1.4225716590881348,0.9474582076072693,0.21099190413951874,0.24042773246765137,0.10442167520523071,-0.004143759608268738,-0.09321093559265137,0.45447687212325494,-0.6454152192362045,0.45127936222952425,0.41621743376501336,-0.21258959703148814,1.8193114079570079,1.755577775943344
1772660387192547072,2.711782217025757,-1.1211607456207275,0.8696908354759216,-1.4059640169143677,0.942176878452301,0.22166302800178528,0.251333624124527,0.09175878763198853,-0.01804974675178528,-0.0606749951839447,0.45180933062046524,-0.6529598047426513,0.44644183003823373,0.41255501528714855,-0.2235195995780985,1.831484397936013,1.770157209763627
1772660387202584064,2.7218191623687744,-1.1591466665267944,0.8072607517242432,-1.3784372806549072,0.9368526339530945,0.23184813559055328,0.26182761788368225,0.08159524202346802,-0.04518738389015198,-0.05493366718292236,0.4490505157893092,-0.6603689289754996,0.44139176505433164,0.4091941732293059,-0.23397716233921348,1.843318858869114,1.7852911104355742
1772660387212621056,2.731856107711792,-1.1656553745269775,0.7537837028503418,-1.3255492448806763,0.9315449595451355,0.24142035841941833,0.2719198167324066,0.06378597021102905,-0.06522710621356964,-0.053627580404281616,0.4462178587012816,-0.66756494209803,0.43625331333384,0.40611547328359104,-0.24382923540590368,1.8548072842505097,1.8007025032290385
1772660387222659072,2.741894245147705,-1.1256840229034424,0.6956303715705872,-1.2612552642822266,0.9263430833816528,0.2502897381782532,0.2815026342868805,0.04602336883544922,-0.07313519716262817,-0.04660877585411072,0.44339702241984624,-0.6744190096691866,0.4311731904143962,0.40329619735229066,-0.252979514380232,1.8658143892395187,1.8159471219514827
1772660387232696064,2.7519311904907227,-1.0264962911605835,0.6422396302223206,-1.2146929502487183,0.9212837815284729,0.25863951444625854,0.2904171645641327,0.02288442850112915,-0.07521361112594604,-0.03986784815788269,0.4407938311617301,-0.6808036646375418,0.42628036921850715,0.400614975633942,-0.26161352582651837,1.8761672381477796,1.8304094429822209
1772660387242733056,2.7619681358337402,-0.9391472339630127,0.5949347019195557,-1.169123888015747,0.9163203239440918,0.26671719551086426,0.29869532585144043,-0.007155954837799072,-0.08695340156555176,-0.05659937858581543,0.4385013405042637,-0.6867357047973223,0.4215942689357177,0.3979558923694953,-0.269985235668935,1.8859076443668619,1.84389889525896
1772660387252770048,2.772005081176758,-0.8730589151382446,0.5562195181846619,-1.1073018312454224,0.9114874005317688,0.27440345287323,0.30642011761665344,-0.04024118185043335,-0.10326090455055237,-0.06060102581977844,0.43642427243877896,-0.6922612095798557,0.41711446449391193,0.3953779685945999,-0.277969284768959,1.8951030211130229,1.856591301018822
1772660387262808064,2.782043218612671,-0.811085045337677,0.5119790434837341,-1.0350258350372314,0.9068480134010315,0.2815208435058594,0.3136439919471741,-0.060763537883758545,-0.11433032155036926,-0.053969889879226685,0.43448371073403214,-0.6973832175120743,0.4128905877309888,0.3929400089512007,-0.2853786779327441,1.9037797048419478,1.8685308377342307
1772660387272845056,2.7920801639556885,-0.7367649078369141,0.46874621510505676,-0.9890928268432617,0.9024089574813843,0.28821584582328796,0.32029566168785095,-0.07638990879058838,-0.11980462074279785,-0.049467533826828,0.43273864615657975,-0.7021103496878407,0.4088873825176144,0.3906267885616105,-0.29236308269954664,1.9118599562250809,1.8796811920701637
1772660387282882048,2.802117109298706,-0.6188308596611023,0.44969263672828674,-0.9592640995979309,0.8980896472930908,0.2947854995727539,0.3263990581035614,-0.0983307957649231,-0.1216287612915039,-0.03867939114570618,0.4313051361412838,-0.7064569993422452,0.4051148366260706,0.38829924111617564,-0.299231033185525,1.919391274554817,1.8898343555823593
1772660387292920064,2.812155246734619,-0.5051549673080444,0.4358712434768677,-0.9323540329933167,0.8938161730766296,0.3014157712459564,0.33202606439590454,-0.12901514768600464,-0.1251157522201538,-0.028116822242736816,0.43025482852606267,-0.7104320752866665,0.4016208407442995,0.38583390906998116,-0.30617714552416325,1.926468783492138,1.8987908580674604
1772660387302957056,2.8221921920776367,-0.44158244132995605,0.4247804880142212,-0.905058741569519,0.889594316482544,0.3080022633075714,0.3372783660888672,-0.14853596687316895,-0.1344793140888214,-0.019056320190429688,0.42947440374708495,-0.7141055852423457,0.39836214497142025,0.3832917977520137,-0.3130924904049885,1.9331892599431366,1.9068343485616563
1772660387312994048,2.8322291374206543,-0.4026222825050354,0.42545655369758606,-0.8775808811187744,0.8854019045829773,0.31442809104919434,0.3423427939414978,-0.1526748538017273,-0.14401790499687195,0.009250283241271973,0.4288192182583985,-0.7175731333425285,0.3952975972837382,0.3807134456914056,-0.3198541165119048,1.9397434786883794,1.914301291046164
1772660387323032064,2.8422672748565674,-0.4202665388584137,0.42357608675956726,-0.8509101271629333,0.8811956644058228,0.3206511437892914,0.3473864197731018,-0.1472630500793457,-0.1524534821510315,0.032649070024490356,0.42815244289010573,-0.7209560061427596,0.39232084620264046,0.3781433279619829,-0.32641683503972413,1.946311473221996,1.9216370425217448
1772660387333069056,2.852304220199585,-0.4868609309196472,0.41464105248451233,-0.8064147233963013,0.877040445804596,0.32636868953704834,0.3525393307209015,-0.14219218492507935,-0.15946799516677856,0.05209335684776306,0.4272653966836838,-0.7243347404150389,0.38936980169240243,0.37573232338834844,-0.332459354845247,1.9529952838841276,1.9293119938182302
1772660387343106048,2.8623411655426025,-0.5870658755302429,0.40142059326171875,-0.7591862082481384,0.8730087280273438,0.3313104212284088,0.3578959107398987,-0.1351546049118042,-0.1617852747440338,0.07884123921394348,0.4259847276675267,-0.7277688321701742,0.3863941969638247,0.3736163505313277,-0.33769211446146835,1.9598566077841588,1.937707469669412
1772660387353143808,2.8723790645599365,-0.6984198093414307,0.38808494806289673,-0.7136375308036804,0.8691272735595703,0.3354027569293976,0.3634870946407318,-0.1329059600830078,-0.1639244556427002,0.0974503755569458,0.4242420945085355,-0.7312971279834048,0.3833380518340047,0.3718536479244467,-0.342032705705071,1.9669109416362018,1.9470344625120533
1772660387363181056,2.882416248321533,-0.7632155418395996,0.38059747219085693,-0.6736533641815186,0.8653698563575745,0.33873388171195984,0.36931613087654114,-0.14210325479507446,-0.15619298815727234,0.11428070068359375,0.42209448024002577,-0.73490018706347,0.3802364827084861,0.3703757409003752,-0.345570905199238,1.9741674212211733,1.9571223935880082
1772660387373218048,2.892453193664551,-0.7841254472732544,0.36472421884536743,-0.6356420516967773,0.8617454767227173,0.34150537848472595,0.37519216537475586,-0.15440893173217773,-0.13715967535972595,0.11856704950332642,0.4197294405183765,-0.7384762658200215,0.3771589707128292,0.36909514875989047,-0.3485180914237896,1.98143127070976,1.9675068163154035
1772660387383255040,2.9024901390075684,-0.7696921825408936,0.3608700931072235,-0.5870904922485352,0.8582735657691956,0.3438012897968292,0.38100767135620117,-0.16566205024719238,-0.11095216870307922,0.10580867528915405,0.4172726973652555,-0.741934710361048,0.37421480494901166,0.36793961984990275,-0.3509619620600298,1.9885854129044103,1.9777588360158824
1772660387393293056,2.9125282764434814,-0.716129720211029,0.35817351937294006,-0.537604033946991,0.8549484014511108,0.3457699120044708,0.38666051626205444,-0.17352145910263062,-0.08913233876228333,0.0865297019481659,0.4148655656385908,-0.7451982397194543,0.37149676037088303,0.3668191720736829,-0.3530591817714316,1.9955295777866298,1.9874652576663152
1772660387403330048,2.922565221786499,-0.6207475662231445,0.3516354560852051,-0.4949439465999603,0.8517630100250244,0.34758007526397705,0.39203041791915894,-0.1780875325202942,-0.07315075397491455,0.07049402594566345,0.41264819630915145,-0.7481999489209359,0.3690691534558889,0.36565863863524695,-0.35498902054964593,2.002147675030112,1.9962717901333902
1772660387413367040,2.9326021671295166,-0.5047962665557861,0.3429250419139862,-0.45780321955680847,0.8487223982810974,0.3494141101837158,0.3969634473323822,-0.1794261932373047,-0.061877548694610596,0.06478270888328552,0.4107626150827355,-0.750877400802234,0.3669671069686745,0.36440681008624887,-0.35694572016365406,2.0082871436959735,2.0038790779833593
1772660387423405056,2.9426400661468506,-0.4133792817592621,0.3353094756603241,-0.42064547538757324,0.8458244800567627,0.35132360458374023,0.4014383852481842,-0.1772301197052002,-0.05708840489387512,0.061208128929138184,0.4092189421366786,-0.7532436476065175,0.36516188054228876,0.36307119814018124,-0.35898446341578344,2.0139279871723494,2.01033100239441
1772660387433442048,2.9526772499084473,-0.3385851979255676,0.33051127195358276,-0.3755941092967987,0.8430637121200562,0.35317686200141907,0.40559816360473633,-0.1746523380279541,-0.05343317985534668,0.06748539209365845,0.40791191655087,-0.7553477308891869,0.36366039469936484,0.36167508956419275,-0.36096463652066074,2.019210121595431,2.015796776794407
1772660387443479040,2.962714195251465,-0.2669006288051605,0.3114811182022095,-0.33689385652542114,0.8404954671859741,0.3549377918243408,0.40937340259552,-0.16668260097503662,-0.04793098568916321,0.07858741283416748,0.40682473346849657,-0.7571912795411181,0.3624197382850098,0.36028733682619707,-0.36284753060556296,2.024040056194058,2.020376190713954
1772660387453517056,2.972752094268799,-0.22438764572143555,0.2879604697227478,-0.3102373480796814,0.8380922079086304,0.3566473722457886,0.4127998650074005,-0.15715372562408447,-0.03931036591529846,0.0911979079246521,0.4059267545547242,-0.7588226890394776,0.3613697043304403,0.3589197996208804,-0.3646768129672151,2.0284638324987276,2.0242570887429827
1772660387463553792,2.9827890396118164,-0.2353774458169937,0.25329357385635376,-0.2836904227733612,0.8359000086784363,0.3582206070423126,0.4158715009689331,-0.14867472648620605,-0.03125527501106262,0.0996924340724945,0.4051179534505347,-0.7603061614854064,0.36037520514941307,0.35769214035146857,-0.3663613099957706,2.032452716686133,2.027848281167694
1772660387473591040,2.992826223373413,-0.29567691683769226,0.23374943435192108,-0.24251767992973328,0.8339415788650513,0.35930630564689636,0.4188559055328369,-0.14021611213684082,-0.028846770524978638,0.11193627119064331,0.4041425804101763,-0.7617472152162937,0.35940108501856866,0.3567082494870992,-0.36752445347629237,2.0362506973129793,2.031631339970178
1772660387483629056,3.002864122390747,-0.3511159420013428,0.21029284596443176,-0.21661683917045593,0.832195520401001,0.3598330318927765,0.421865850687027,-0.13532662391662598,-0.02961757779121399,0.12343752384185791,0.40291095354003764,-0.763205349990983,0.3583999328230349,0.35599136407711535,-0.36808892870992993,2.039973460995039,2.03584254316685
1772660387493666048,3.0129010677337646,-0.3770018219947815,0.1971508115530014,-0.20816275477409363,0.8305644989013672,0.36004573106765747,0.42488765716552734,-0.13523679971694946,-0.029158949851989746,0.13025757670402527,0.40151826808886426,-0.7646901472685875,0.357341310221856,0.35544224749121817,-0.3683169106165357,2.043653015193096,2.0403962026395592
1772660387503703040,3.0229382514953613,-0.36881181597709656,0.18303684890270233,-0.20740802586078644,0.828998863697052,0.36015933752059937,0.42783936858177185,-0.13447964191436768,-0.024725347757339478,0.11946290731430054,0.4000973809248531,-0.7661606544567892,0.3562548807236418,0.35496833668300887,-0.3684386875825608,2.0472342270198496,2.0450279512176475
1772660387513740032,3.032975196838379,-0.3139305114746094,0.15495488047599792,-0.18854379653930664,0.8275572061538696,0.36031144857406616,0.4304942488670349,-0.1305660605430603,-0.010045886039733887,0.10440275073051453,0.3988185064499288,-0.7675052771225103,0.35522214858114654,0.35453754103590907,-0.3686017395896356,2.050472080482833,2.0492981227697067
1772660387523778048,3.043013095855713,-0.21984371542930603,0.1384962797164917,-0.16326773166656494,0.8262866735458374,0.36062079668045044,0.43266981840133667,-0.11794304847717285,0.0044304728507995605,0.09334653615951538,0.39784199604262527,-0.7686145250676345,0.3543538139952751,0.3541001457831453,-0.3689333926858755,2.0531700016339314,2.0527350635228854
1772660387533814784,3.0530500411987305,-0.12239918857812881,0.1389189213514328,-0.13227492570877075,0.825149416923523,0.3610852360725403,0.43444886803627014,-0.10620111227035522,0.015257507562637329,0.08711180090904236,0.39718882578377074,-0.7694667277076246,0.353758944796494,0.35357683543989016,-0.3694313822931062,2.0554258047282836,2.0551136142851245
1772660387543852032,3.063087224960327,-0.008112826384603977,0.12789875268936157,-0.10311411321163177,0.8241502046585083,0.36175692081451416,0.43578463792800903,-0.09136223793029785,0.027540534734725952,0.07442349195480347,0.39690409876725224,-0.770039175925604,0.35345718366759754,0.35295150503823586,-0.3701517627783312,2.057192955348498,2.056326283208639
1772660387553890048,3.073125123977661,0.11232534795999527,0.1341492086648941,-0.07658369839191437,0.8232447504997253,0.36274823546409607,0.43667179346084595,-0.07062005996704102,0.034346550703048706,0.07735106348991394,0.3970413193841431,-0.7703261227171843,0.35345942947268455,0.3521682114304911,-0.371215330039718,2.058488745587943,2.0562765588093095
1772660387563927040,3.0831620693206787,0.1949792206287384,0.12135804444551468,-0.05001281201839447,0.8224493265151978,0.3639585077762604,0.4371629059314728,-0.048889756202697754,0.038522541522979736,0.06489706039428711,0.39752840493253905,-0.7703553283225396,0.3537430108810556,0.3512687604121731,-0.37251438030525424,2.0593547055334107,2.05511755988891
1772660387573964032,3.0931992530822754,0.2419469952583313,0.12615253031253815,-0.010280044749379158,0.8217921853065491,0.36517781019210815,0.43738192319869995,-0.028976023197174072,0.042414963245391846,0.056667208671569824,0.3982128958633565,-0.7701887826741696,0.3542600677231208,0.3503364119650629,-0.3738237957556204,2.0598937397876784,2.0531774863857013
1772660387584002048,3.1032371520996094,0.23732773959636688,0.1305917501449585,0.032575543969869614,0.8212651610374451,0.36613863706588745,0.4375680983066559,-0.01253420114517212,0.04540613293647766,0.06116539239883423,0.39888999933328156,-0.769916130166471,0.3549833746312789,0.34943191675887586,-0.37485612366339194,2.060336441853875,2.0508371482511336
1772660387594039040,3.113274097442627,0.19839045405387878,0.12862953543663025,0.06406635791063309,0.8208836913108826,0.3666902780532837,0.43782225251197815,-0.0012730956077575684,0.042275816202163696,0.06640446186065674,0.3994186275366441,-0.7696146914999716,0.3558150514905539,0.3486454754226963,-0.3754489806191576,2.060770363812778,2.048504697898224
1772660387604076032,3.1233110427856445,0.16126039624214172,0.13841532170772552,0.08206959068775177,0.8205686211585999,0.3668503165245056,0.438278466463089,0.0040468573570251465,0.0353560745716095,0.0688016414642334,0.39972804147488583,-0.7693632164987991,0.35667838072569175,0.3479630377187898,-0.375621015133767,2.061362437893944,2.0464531115861115
1772660387614113024,3.133348226547241,0.1394912302494049,0.14805130660533905,0.08664503693580627,0.8202454447746277,0.36680492758750916,0.43892034888267517,0.010915815830230713,0.02859598398208618,0.05641031265258789,0.3998955044784661,-0.7691638268558303,0.3575572430342513,0.34730856580626357,-0.37557222260929174,2.0621347246878474,2.044601969434992
1772660387624151040,3.143386125564575,0.14974360167980194,0.16128535568714142,0.09160809963941574,0.8198806643486023,0.36671504378318787,0.439676433801651,0.01961195468902588,0.024978041648864746,0.042730093002319336,0.40001599631078594,-0.7689899314167565,0.3584587957994195,0.34662492448459853,-0.37547560431874566,2.0630362921911427,2.0427909407073206
1772660387634188032,3.1534230709075928,0.17672790586948395,0.1711539477109909,0.09799223393201828,0.8194900751113892,0.3666576147079468,0.4404520094394684,0.03129410743713379,0.029216408729553223,0.02726036310195923,0.40017864381865825,-0.7687839502300431,0.3594401804169095,0.34587707543358337,-0.3754138630112312,2.0639693612830725,2.040765031017022
1772660387644225024,3.1634602546691895,0.2083902359008789,0.1904142051935196,0.10426903516054153,0.8190666437149048,0.36666977405548096,0.4412296712398529,0.038523316383361816,0.032134026288986206,0.009682893753051758,0.4004173873841932,-0.7685265561098639,0.36052983792045357,0.34503803716964,-0.3754269503348432,2.0649210961657123,2.0384170149376275
1772660387654263040,3.1734981536865234,0.25452399253845215,0.2127634584903717,0.10195848345756531,0.8185518383979797,0.36684831976890564,0.4420352578163147,0.04379856586456299,0.03929483890533447,-0.01039460301399231,0.40076665388964644,-0.7682224304810303,0.36173459923664963,0.3440471767520342,-0.37561887908527053,2.0659459050672773,2.0356871572009485
1772660387664300288,3.18353533744812,0.2933957576751709,0.23215605318546295,0.11005449295043945,0.8179424405097961,0.36719921231269836,0.4428706765174866,0.04356861114501953,0.04722943902015686,-0.0212399959564209,0.4012302568958962,-0.767868755751771,0.3630604788757882,0.34289761771898214,-0.37599608259621625,2.067047525149429,2.0325579500567748
1772660387674337280,3.193572521209717,0.2914789319038391,0.246627539396286,0.11986517161130905,0.8173083066940308,0.3675580620765686,0.44374358654022217,0.04919266700744629,0.051722973585128784,-0.023546993732452393,0.4017279672394007,-0.7674759105061422,0.3644893949076637,0.3416766202582296,-0.37638191966430107,2.068197563539709,2.0291797666927596
1772660387684375296,3.203610420227051,0.2707057297229767,0.2700796127319336,0.13691340386867523,0.8166327476501465,0.3677483797073364,0.4448283016681671,0.060366153717041016,0.056751132011413574,-0.022678613662719727,0.40211250009652577,-0.7671159395637709,0.36598809687136885,0.34042833076150036,-0.37658656988998807,2.069569297246687,2.0258555213030895
1772660387694412288,3.2136473655700684,0.22318315505981445,0.2942054271697998,0.14463284611701965,0.8158913254737854,0.36769479513168335,0.44623103737831116,0.07055288553237915,0.06093987822532654,-0.015231192111968994,0.40230427751980335,-0.7668367083471722,0.3675282015086454,0.3391693347661123,-0.3765289334213245,2.071275314891634,2.0227725148001325
1772660387704449280,3.223684310913086,0.13640297949314117,0.34527820348739624,0.14851519465446472,0.8150019645690918,0.36729589104652405,0.44818001985549927,0.07486003637313843,0.053831398487091064,-0.01736345887184143,0.4021555063272365,-0.7667440887016627,0.3690440556903959,0.3379065782799597,-0.3761000221220262,2.073572611401192,2.020308640945367
1772660387714487296,3.233722448348999,0.054356321692466736,0.4015766382217407,0.13075006008148193,0.8138459920883179,0.36654916405677795,0.4508835971355438,0.0778316855430603,0.054990142583847046,-0.024507343769073486,0.40158152862417684,-0.7669211798225891,0.3705046675427164,0.336586319856033,-0.3752973016857338,2.0767175105251945,2.018679428133855
1772660387724524288,3.2437593936920166,0.01292232796549797,0.48290959000587463,0.09793644398450851,0.8122698068618774,0.3657378554344177,0.45437192916870117,0.08656454086303711,0.06248483061790466,-0.039210736751556396,0.40067622023730365,-0.7673918117373276,0.3718813875722985,0.335071156080805,-0.37442545291363055,2.080816709896204,2.0178100171497495
1772660387734561280,3.253796339035034,0.014409614726901054,0.5819442868232727,0.05317269638180733,0.8101151585578918,0.36516815423965454,0.4586561918258667,0.10802137851715088,0.07535308599472046,-0.07244101166725159,0.3995978410454423,-0.7681178076801101,0.37326014405524516,0.3331567565098439,-0.37381342818414537,2.0859630425492464,2.017303120809989
1772660387744599296,3.2638344764709473,0.04319758713245392,0.6315621733665466,0.020288517698645592,0.8074345588684082,0.3649906516075134,0.46349918842315674,0.14683496952056885,0.08988913893699646,-0.10615354776382446,0.39849633149965635,-0.7690093618091693,0.3746654487956337,0.33083404685808165,-0.37362275575813864,2.091908331629971,2.016858034653253
1772660387754636288,3.273871421813965,0.1047515869140625,0.665450394153595,-0.007627536077052355,0.8044221997261047,0.36526501178741455,0.46849408745765686,0.20255118608474731,0.10546863079071045,-0.1125064492225647,0.3975411504200801,-0.76992120755761,0.3761228247992672,0.32819824697888644,-0.373917480119268,2.0981728303322966,2.0161184793700473
1772660387764673280,3.2839083671569824,0.09431146085262299,0.6490911245346069,-0.03093365579843521,0.8012312054634094,0.36592981219291687,0.47341763973236084,0.2552416920661926,0.11208227276802063,-0.11968833208084106,0.39673804008519836,-0.7708290237926629,0.3775333577248843,0.32540778015883914,-0.3746317110021779,2.104470135893671,2.015240169972778
1772660387774710272,3.2939453125,-0.014405610039830208,0.6405524611473083,-0.018682584166526794,0.7980702519416809,0.36636725068092346,0.4783923029899597,0.27820849418640137,0.10978326201438904,-0.11462271213531494,0.39574756828731594,-0.7718271778510641,0.37878615851578334,0.3227813438627113,-0.3751017936770623,2.11080126366932,2.014941157827329
1772660387784748288,3.303983449935913,-0.1913396418094635,0.6274880766868591,-0.006518862210214138,0.7949612736701965,0.36597198247909546,0.48384028673171997,0.2814854383468628,0.10528042912483215,-0.08175593614578247,0.39416451018972487,-0.7730760501044048,0.37983361021896234,0.3204907121830554,-0.3746770437709457,2.1175400518753054,2.015946863165986
1772660387794785280,3.3140203952789307,-0.4054190218448639,0.6007257103919983,-0.032887883484363556,0.791898250579834,0.3646460175514221,0.4898272156715393,0.25860846042633057,0.092583566904068,-0.06428998708724976,0.3918642827216918,-0.7746764972402652,0.3805127170722183,0.31863596819448353,-0.3732526237663739,2.124742643426901,2.018756100373053
1772660387804822272,3.3240573406219482,-0.6236631870269775,0.6133530735969543,-0.074461430311203,0.788737416267395,0.36250585317611694,0.4964701533317566,0.2108963131904602,0.06846335530281067,-0.058832913637161255,0.38879299513233717,-0.7767438310119195,0.38066270634199956,0.3171827215162137,-0.37095523082140136,2.132588675141042,2.023767866058667
1772660387814860288,3.3340954780578613,-0.8534632325172424,0.6621617674827576,-0.07228442281484604,0.7852311730384827,0.3593885004520416,0.504233717918396,0.15741091966629028,0.050035297870635986,-0.05188697576522827,0.38479852341863685,-0.7793432703286945,0.38044834067163713,0.31593220253306675,-0.36761254604678356,2.141631063211807,2.030905355530342
1772660387824897280,3.344132423400879,-0.9975908398628235,0.6330230832099915,-0.016084536910057068,0.7817596197128296,0.35497134923934937,0.5126863121986389,0.1301819086074829,0.058679163455963135,-0.04775106906890869,0.37996738388140505,-0.7822519332938301,0.380032988279607,0.31508987847954006,-0.36288341608146674,2.1512455574081892,2.039604592487156
1772660387834934272,3.3541693687438965,-1.0124781131744385,0.5831688046455383,0.037811316549777985,0.778630793094635,0.3496132791042328,0.5210612416267395,0.13221222162246704,0.1002463698387146,-0.010059654712677002,0.37479430094763705,-0.7851145393611214,0.3796390198068921,0.31464053101061334,-0.35715828699936725,2.1605520780815604,2.0485940067011086
1772660387844972288,3.3642075061798096,-0.9387890100479126,0.5170289278030396,0.08490133285522461,0.7759492993354797,0.3439507782459259,0.5287726521492004,0.1353055238723755,0.1462835669517517,0.0074059367179870605,0.36977521843702477,-0.7876944459866816,0.37937287061309705,0.31445184689017136,-0.3511211527259377,2.1689655684221067,2.056905486226719
1772660387855009280,3.374244451522827,-0.8101344108581543,0.46104568243026733,0.1575503796339035,0.7737826108932495,0.3382875323295593,0.5355571508407593,0.11681163311004639,0.1847531795501709,0.003337383270263672,0.36517308679879357,-0.7898468684838386,0.3793685390114009,0.31443580351101796,-0.3450965487643765,2.1762199483252,2.0639024674773134
1772660387865046272,3.3842813968658447,-0.6616538166999817,0.45191690325737,0.21860307455062866,0.7719630599021912,0.33279839158058167,0.5415888428688049,0.08671003580093384,0.20354807376861572,-0.012978553771972656,0.361067087519039,-0.7915468923451215,0.3797998635991318,0.3143822669258004,-0.3392695604193095,2.182577553299447,2.069187486842658
1772660387875083264,3.3943183422088623,-0.47518786787986755,0.40338894724845886,0.26574915647506714,0.7704231142997742,0.3278118073940277,0.5467981100082397,0.054482460021972656,0.20105788111686707,-0.025267839431762695,0.35760203475508756,-0.7927883234725089,0.3806385996887704,0.31420043137440584,-0.3339864676438205,2.1880276256976745,2.0726503668650644
1772660387885121280,3.4043564796447754,-0.2859971523284912,0.34631553292274475,0.31537768244743347,0.7693153619766235,0.3234688937664032,0.5509281158447266,0.023378729820251465,0.1812308132648468,-0.0049839019775390625,0.3549142176635151,-0.793501327567653,0.3818634704737211,0.3139615543742515,-0.329393197887641,2.192264518711679,2.074148818229237
1772660387895158272,3.414393424987793,-0.16445475816726685,0.2586839497089386,0.3947654366493225,0.7687703967094421,0.31953397393226624,0.5539764165878296,0.01342552900314331,0.15502962470054626,0.017251551151275635,0.35290315341599715,-0.7936925579865832,0.38345838221865275,0.31380099605191647,-0.32523763154243934,2.195214833438135,2.073861016187099
1772660387905195264,3.4244303703308105,-0.0915944054722786,0.1708076149225235,0.4972361624240875,0.7690032720565796,0.31535834074020386,0.5560420751571655,0.0008025169372558594,0.13654589653015137,0.022311747074127197,0.3512687906380421,-0.7933956358031258,0.3854145748013271,0.3139890338088254,-0.3208342503686479,2.1968373262897987,2.072201566872975
