time,seconds_elapsed,rotationRateX,rotationRateY,rotationRateZ,gravityX,gravityY,gravityZ,accelerationX,accelerationY,accelerationZ,quaternionW,quaternionX,quaternionY,quaternionZ,pitch,roll,yaw
1772660563176517376,0.059342145919799805,0.013761891052126884,0.07492969185113907,0.08123455941677094,0.08003934472799301,0.6064451932907104,-0.7910865545272827,-0.006141006946563721,-0.0036925077438354492,0.006204962730407715,0.3129741109633352,-0.06606054191904155,0.3163743286088625,-0.8930792950199001,-0.6515821898991462,0.10083333385026512,-2.4333624865651324
1772660563186554112,0.06937909126281738,0.039687007665634155,0.06989192217588425,0.08080139011144638,0.08111194521188736,0.606162428855896,-0.7911940217018127,-0.0007286518812179565,0.006935715675354004,0.017787039279937744,0.31324005915149633,-0.06556525031763452,0.31639246267965526,-0.893016025711268,-0.6512265727629458,0.10216149661216563,-2.432358214526922
1772660563196592384,0.07941722869873047,0.05121263861656189,0.06703514605760574,0.0695178434252739,0.08211561292409897,0.6057316660881042,-0.7914203405380249,-0.0064320191740989685,0.012661278247833252,0.017296195030212402,0.3134868432827205,-0.06506583264650934,0.3163167059943465,-0.8929927971821122,-0.6506850804547699,0.10338731594617243,-2.4314662136911007
1772660563206629376,0.08945417404174805,0.054337725043296814,0.05615253746509552,0.06337113678455353,0.08301938325166702,0.6052464246749878,-0.7916972637176514,-0.014141201972961426,0.006569981575012207,0.014872312545776367,0.3136966454368091,-0.06459111119055312,0.3161951026131433,-0.8929967255187021,-0.6500753793905566,0.10448068913114503,-2.4307165680050336
1772660563216666112,0.09949111938476562,0.03481994941830635,0.044026631861925125,0.0602634958922863,0.08379750698804855,0.6048330664634705,-0.79193115234375,-0.01406484842300415,-0.005116879940032959,0.0223541259765625,0.3139058917628946,-0.06419356742778148,0.3160911534348321,-0.8929885640704495,-0.6495562054504108,0.10542184558014217,-2.430006114076161
1772660563226703104,0.1095280647277832,0.010705025866627693,0.029348086565732956,0.05785466730594635,0.08445410430431366,0.6045929193496704,-0.7920447587966919,-0.008816272020339966,-0.016336143016815186,0.029364705085754395,0.3141198828616424,-0.06389447711868033,0.3160618790445762,-0.8929452293449508,-0.6492547364372404,0.10622657386804173,-2.429295581235679
1772660563236741376,0.11956620216369629,-0.0023476597853004932,0.015389662235975266,0.05856706574559212,0.0849820151925087,0.60453861951828,-0.7920297384262085,-0.003988370299339294,-0.02018803358078003,0.031104445457458496,0.3143433195010915,-0.06370174959467555,0.31611265749425965,-0.8928623369231581,-0.6491865246898197,0.10688756695229759,-2.4285730854433956
1772660563246778368,0.12960314750671387,-0.020154353231191635,0.002180383075028658,0.0658382922410965,0.08542168140411377,0.6045933365821838,-0.7919407486915588,-0.0018645375967025757,-0.017862379550933838,0.028924942016601562,0.3145925502956731,-0.06358489148676219,0.31620657620263465,-0.892749694939576,-0.6492552006411443,0.10744831069922188,-2.4278041661424874
1772660563256815104,0.13964009284973145,-0.02517467923462391,-0.001266812440007925,0.05360586196184158,0.08578258007764816,0.6047413945198059,-0.7917885780334473,-0.004071786999702454,-0.013814270496368408,0.028955936431884766,0.31484975340322185,-0.06352968677248423,0.3163379444201258,-0.8926162717295607,-0.6494411320616188,0.10791934012319557,-2.4270275712188627
1772660563266853376,0.14967823028564453,-0.024748705327510834,-0.021355701610445976,0.04975399747490883,0.08602393418550491,0.6048918962478638,-0.7916474342346191,-0.007151246070861816,-0.01152336597442627,0.02944040298461914,0.31508928949646064,-0.06352770622456087,0.31644984093181533,-0.8924923141474141,-0.6496301105259024,0.108239748484226,-2.4263437240571397
1772660563276890368,0.1597151756286621,-0.01714697852730751,-0.033808644860982895,0.040394317358732224,0.08608458191156387,0.6050094962120056,-0.7915510535240173,-0.0070592984557151794,-0.012403905391693115,0.026780545711517334,0.31532696960922063,-0.06360717580062185,0.3165100432596411,-0.8923814142581881,-0.6497777686839233,0.1083285577274307,-2.425753304000529
1772660563286927104,0.1697521209716797,-0.004482316318899393,-0.04753697291016579,0.04538321867585182,0.08603385835886002,0.6050546169281006,-0.7915219664573669,-0.0014849230647087097,-0.013379812240600586,0.017428338527679443,0.3155849788072105,-0.06373335875414199,0.3165076193646553,-0.892281907982987,-0.6498344758338437,0.10826916475381143,-2.4251855696872564
1772660563296965120,0.17979001998901367,0.006055012810975313,-0.05373388156294823,0.046785905957221985,0.08590205758810043,0.6050103902816772,-0.7915700674057007,0.0017901808023452759,-0.009917676448822021,0.009572446346282959,0.3158743170872089,-0.06389146659901236,0.31643772404500015,-0.8921930209189761,-0.649778934963951,0.10809807538784813,-2.424607669397152
1772660563307002368,0.18982720375061035,0.017925787717103958,-0.05632833391427994,0.05154923349618912,0.08574662357568741,0.6048609614372253,-0.7917011976242065,0.0002976953983306885,-0.005190551280975342,0.005446314811706543,0.31619147806184206,-0.0640485249594606,0.31630238679672595,-0.8921174673144961,-0.6495912600991455,0.10788626573051412,-2.42400554539688
1772660563317039360,0.19986414909362793,0.020269369706511497,-0.0539780929684639,0.05823883041739464,0.08563164621591568,0.6046714782714844,-0.7918583750724792,-0.003936067223548889,0.003330230712890625,0.004230201244354248,0.31652655924498635,-0.06418334904100509,0.31615076579811263,-0.8920427688289415,-0.6493533331671516,0.10772149154423397,-2.4233555022691586
1772660563327077120,0.20990204811096191,0.019959598779678345,-0.05282055214047432,0.06099533289670944,0.08558154851198196,0.6044633388519287,-0.7920226454734802,-0.005991704761981964,0.007093667984008789,0.007476747035980225,0.31688836479189564,-0.06429163021599726,0.31599883927839706,-0.8919602725137447,-0.6490920608340119,0.10763680755231848,-2.4226208966989335
1772660563337114368,0.2199392318725586,-0.017296958714723587,-0.05864408612251282,0.057813651859760284,0.08550384640693665,0.6044024229049683,-0.7920774817466736,-0.0059597790241241455,-3.230571746826172e-05,0.01136159896850586,0.3172419174021791,-0.06444207472430695,0.3159247766099554,-0.8918498946719082,-0.6490155553598118,0.10753244042832331,-2.4218785935602725
1772660563347151360,0.22997617721557617,-0.059082530438899994,-0.0704960823059082,0.05914004147052765,0.08531322330236435,0.6046622395515442,-0.7918997406959534,-0.00489942729473114,-0.013643622398376465,0.020125508308410645,0.31759263991265235,-0.0647160060611264,0.3160094392983506,-0.8916752184431017,-0.6493417167915083,0.10731844605590779,-2.421109368925422
1772660563357189120,0.24001407623291016,-0.0983835980296135,-0.08190986514091492,0.061275631189346313,0.08506282418966293,0.6052374243736267,-0.7914872169494629,0.0014850422739982605,-0.02335876226425171,0.02578592300415039,0.31795297897407226,-0.06509081226358433,0.3162587004075181,-0.8914312315810742,-0.6500640591315969,0.1070612049740039,-2.4202629676929686
1772660563367226112,0.25005102157592773,-0.11218219250440598,-0.09143266081809998,0.06771821528673172,0.08475815504789352,0.6060429811477661,-0.7909033298492432,0.00458206981420517,-0.024683117866516113,0.024027109146118164,0.31834727741758895,-0.06555454414240292,0.31662430231523997,-0.8911267348671851,-0.6510764290760797,0.10675881752812975,-2.419303840891729
1772660563377263360,0.2600882053375244,-0.09790152311325073,-0.0944255143404007,0.0756528377532959,0.08444877713918686,0.6068243384361267,-0.7903370261192322,0.002892538905143738,-0.01669067144393921,0.016518056392669678,0.31877659407453374,-0.0660284745093901,0.3169727524230513,-0.8908142307845054,-0.6520591049392163,0.1064477162712356,-2.4182737711033213
1772660563387301120,0.2701261043548584,-0.06584558635950089,-0.08798972517251968,0.08967731148004532,0.08423184603452682,0.6074038147926331,-0.7899149656295776,4.246830940246582e-05,-0.004071295261383057,0.0009287595748901367,0.31925937988849884,-0.06643274067030956,0.3172210677719627,-0.8905229035193325,-0.6527883416297442,0.10623263321385606,-2.4171350812059496
1772660563397338112,0.280163049697876,-0.014977877959609032,-0.0894739031791687,0.09455382823944092,0.084073007106781,0.6076549887657166,-0.789738655090332,-0.002926751971244812,0.006282389163970947,-0.012248039245605469,0.3197937653244082,-0.0667559038971921,0.3172921710442824,-0.8902816150285089,-0.6531046122188674,0.10605730032587261,-2.415940161004987
1772660563407375360,0.29020023345947266,0.01505312416702509,-0.08373706042766571,0.0929587185382843,0.0839569941163063,0.6075546145439148,-0.7898282408714294,-0.008105553686618805,0.009571850299835205,-0.019970953464508057,0.32034694703227984,-0.06698826112550217,0.31717260200014935,-0.8901078714311738,-0.652978217706415,0.10590011861768507,-2.4147761492447657
1772660563417412352,0.30023717880249023,0.030220624059438705,-0.07728714495897293,0.09509830921888351,0.08389484882354736,0.607287585735321,-0.790040135383606,-0.012621045112609863,0.008358776569366455,-0.020949244499206543,0.32090859644169917,-0.06716067940787984,0.3169690266709819,-0.8899650805856434,-0.652642081716734,0.10579414522425033,-2.413612545855983
1772660563427450112,0.3102750778198242,0.018449321389198303,-0.07317402213811874,0.09568220376968384,0.08389917016029358,0.6069958209991455,-0.7902638912200928,-0.014273293316364288,0.002974271774291992,-0.011951684951782227,0.3214613786018896,-0.06729166966176692,0.3167647110797345,-0.8898283705400005,-0.6522748370437851,0.10576981615702524,-2.4124450898911727
1772660563437487104,0.3203120231628418,-0.021796103566884995,-0.0720730721950531,0.0980209931731224,0.08393879979848862,0.6068984270095825,-0.7903344631195068,-0.01213093101978302,-0.013590991497039795,-0.002649545669555664,0.3220177592939861,-0.06744893254752655,0.3166755386922961,-0.8896470925939501,-0.652152349065056,0.10581002781300756,-2.411202469917012
1772660563447524352,0.3303492069244385,-0.07780793309211731,-0.07714387029409409,0.10640528798103333,0.08397187292575836,0.6072173714637756,-0.7900859117507935,-0.009875193238258362,-0.029412806034088135,0.009156346321105957,0.32257937418122684,-0.06770258466875119,0.3168176198861495,-0.8893736202724443,-0.6525536905816831,0.1058844614191611,-2.409840203867374
1772660563457562112,0.34038710594177246,-0.13575325906276703,-0.07327509671449661,0.11367624998092651,0.08402003347873688,0.607964813709259,-0.7895057797431946,-0.010777860879898071,-0.04073464870452881,0.01362687349319458,0.323155416604037,-0.06804852596163596,0.3172010710484434,-0.8890013057987157,-0.6534947675846696,0.1060220030438455,-2.4083244571848956
1772660563467599104,0.35042405128479004,-0.18513734638690948,-0.08453027904033661,0.1203012689948082,0.08411924540996552,0.6091611385345459,-0.7885726094245911,-0.013944044709205627,-0.0489957332611084,0.0075362324714660645,0.32373945633037743,-0.06847209048824746,0.3178447359768523,-0.888526403292126,-0.6550023598761819,0.10627092338861034,-2.4066467285324062
1772660563477636352,0.3604612350463867,-0.19903798401355743,-0.08258403837680817,0.12311836332082748,0.0842277854681015,0.610586404800415,-0.7874579429626465,-0.02397080510854721,-0.05243515968322754,0.0027289390563964844,0.32435041929161623,-0.06895296195230202,0.318616580011952,-0.8879898185780765,-0.656800833905487,0.10655650233689758,-2.404839472220825
1772660563487674112,0.3704991340637207,-0.17636045813560486,-0.07919250428676605,0.1275637149810791,0.08437435328960419,0.611973226070404,-0.7863648533821106,-0.03211302310228348,-0.05022090673446655,-0.011944472789764404,0.3249700516913374,-0.06941164650295778,0.3193737539650101,-0.8874552216650671,-0.6585531671602454,0.10688776730301636,-2.4030016039012536
1772660563497711104,0.3805360794067383,-0.1484803557395935,-0.07097078859806061,0.12925827503204346,0.08458632230758667,0.6131467223167419,-0.7854275107383728,-0.03844373673200607,-0.04513829946517944,-0.024539530277252197,0.3255978408527325,-0.06979530047854295,0.3200232358088032,-0.8869610745549866,-0.6600377889417037,0.10728114748715978,-2.4011705665892005
1772660563507748096,0.39057302474975586,-0.10828101634979248,-0.08071956038475037,0.13628369569778442,0.08478973805904388,0.6139965057373047,-0.7847414016723633,-0.040249310433864594,-0.03782463073730469,-0.03035259246826172,0.3262614801024943,-0.07012516621774925,0.32048677180533913,-0.8865236850744195,-0.6611139825957365,0.10763045527217072,-2.3993477000563135
1772660563517786368,0.40061116218566895,-0.126301571726799,-0.06821069866418839,0.1436326950788498,0.08506587892770767,0.6148258447647095,-0.7840617895126343,-0.03928953409194946,-0.023074805736541748,-0.030757546424865723,0.3269464841741027,-0.07042359228790351,0.3209511129781151,-0.8860794661223103,-0.662165160487003,0.10807113366720195,-2.3974462013694917
1772660563527823104,0.4106481075286865,-0.0752999410033226,-0.06084052845835686,0.14477798342704773,0.08544784784317017,0.615511417388916,-0.7834821939468384,-0.04054123908281326,-0.013842105865478516,-0.02846848964691162,0.3276657138019812,-0.0706511689561252,0.3213523348700963,-0.8856501661663225,-0.6630347183534013,0.10863228336525632,-2.3954561456671057
1772660563537860096,0.4206850528717041,-0.09052816033363342,-0.04960065707564354,0.14604564011096954,0.08594077080488205,0.6159701347351074,-0.7830676436424255,-0.04967065155506134,-0.04492521286010742,-0.05039793252944946,0.3283711529373995,-0.07076899324769959,0.32164876110201357,-0.8852717363987338,-0.6636168340533853,0.10931136769295723,-2.3935065183870177
1772660563547898368,0.4307231903076172,-0.15279637277126312,-0.0609210841357708,0.16209478676319122,0.0864570215344429,0.6168176531791687,-0.7823434472084045,-0.06054757535457611,-0.0735895037651062,-0.047612667083740234,0.32908678983016565,-0.07096792405827491,0.3221674094834863,-0.8848015371858199,-0.6646931660545788,0.11006371515573685,-2.391412654298907
1772660563557935360,0.44076013565063477,-0.16485543549060822,-0.04500603675842285,0.1882379651069641,0.08713661879301071,0.6179383993148804,-0.7813830375671387,-0.05640541762113571,-0.07030045986175537,-0.026615619659423828,0.3298828419392566,-0.07117960362738353,0.32286523477792695,-0.8842335188446067,-0.6661178286929464,0.11105704347377747,-2.3889794402612505
1772660563567972096,0.45079708099365234,-0.1728648841381073,-0.02916555479168892,0.2002062201499939,0.08801913261413574,0.6190793514251709,-0.7803802490234375,-0.044714704155921936,-0.0580136775970459,-0.051910400390625,0.3307492178028871,-0.07132410179817208,0.32360893141390107,-0.8836260399510221,-0.667569834518631,0.11231538524744931,-2.3862805565974723
1772660563578010368,0.46083521842956543,-0.19710037112236023,-0.03200661391019821,0.19867649674415588,0.08901343494653702,0.6203472018241882,-0.7792599201202393,-0.045831046998500824,-0.03128165006637573,-0.07723116874694824,0.33161637824117113,-0.07144534218036803,0.32444660275395515,-0.8829839634643306,-0.6691852798374294,0.11373519944369476,-2.383484713414657
1772660563588047360,0.470872163772583,-0.21610139310359955,-0.018171226605772972,0.1922777146100998,0.09003818035125732,0.6217769384384155,-0.7780016660690308,-0.04790867120027542,-0.024013876914978027,-0.09547245502471924,0.3324541191994845,-0.07158063651528138,0.32538497192117,-0.8823124100081049,-0.6710095178598211,0.11521749954266768,-2.3806855463710335
1772660563598084096,0.4809091091156006,-0.25752076506614685,-0.023000070825219154,0.17818348109722137,0.09104770421981812,0.6234361529350281,-0.7765550017356873,-0.0466141402721405,-0.036155879497528076,-0.11042314767837524,0.3332219331112396,-0.0717533739317418,0.32645667589442434,-0.8816124976449691,-0.6731298257716372,0.1167128137455713,-2.3779751510921345
1772660563608122112,0.49094700813293457,-0.29085874557495117,-0.020584849640727043,0.16205616295337677,0.09194035828113556,0.6254410147666931,-0.7748357653617859,-0.04016728699207306,-0.032743871212005615,-0.11311894655227661,0.33390991737792985,-0.07203707988144549,0.32770836932671643,-0.8808643271282802,-0.675696612477205,0.11810563834195192,-2.3753880723755363
1772660563618159360,0.5009841918945312,-0.30546990036964417,-0.008636844344437122,0.14606840908527374,0.09275651723146439,0.6275824904441833,-0.7730048298835754,-0.029173150658607483,-0.014484405517578125,-0.11658257246017456,0.3345065950309899,-0.0723595379624537,0.3290314511036844,-0.88011798349079,-0.6784441537020652,0.11942375230824356,-2.372991938047953
1772660563628196352,0.5110211372375488,-0.3262641429901123,0.011739000678062439,0.14450673758983612,0.09370272606611252,0.6299147009849548,-0.7709910869598389,-0.02267306298017502,0.007841646671295166,-0.09576916694641113,0.3350201405570045,-0.07263536466871452,0.3304974413812734,-0.8793503661628934,-0.6814433939152487,0.12094227833528873,-2.370650390295088
1772660563638233088,0.5210580825805664,-0.2857249677181244,0.042275868356227875,0.1439429521560669,0.09483344107866287,0.6321834325790405,-0.7689933180809021,-0.02453618496656418,-0.0028957128524780273,-0.0708656907081604,0.3355083422806941,-0.07279989519788498,0.3319691341125633,-0.8785959558150942,-0.6843679604123636,0.12270201446046626,-2.368280876394789
1772660563648269824,0.5310947895050049,-0.33265918493270874,0.07580800354480743,0.11954226344823837,0.09615770727396011,0.6343886852264404,-0.7670102715492249,-0.03300157189369202,-0.03155970573425293,-0.049106061458587646,0.335886909475631,-0.07281636730293667,0.3334556191361383,-0.8778867323521823,-0.6872174069331074,0.12471624832516555,-2.3660696375902273
1772660563658306816,0.5411317348480225,-0.38345178961753845,0.0672059878706932,0.1080256924033165,0.09740965813398361,0.6370536088943481,-0.7646398544311523,-0.035779401659965515,-0.055846333503723145,-0.009392738342285156,0.33614384817162235,-0.07293406256140574,0.33520246701845513,-0.8771130515240435,-0.690669761567586,0.1267103429467673,-2.36400704538492
1772660563668344064,0.5511689186096191,-0.4009825885295868,0.08123765140771866,0.09540922939777374,0.09864670038223267,0.6399491429328918,-0.7620590329170227,-0.026213213801383972,-0.08948832750320435,-0.001994311809539795,0.3363159065170635,-0.07308487636159815,0.33708914186318006,-0.8763111031544538,-0.6944320607448146,0.12873173564145315,-2.3620494710677926
1772660563678381824,0.5612068176269531,-0.4379418194293976,0.08312476426362991,0.0739382952451706,0.09982489049434662,0.6430604457855225,-0.7592813968658447,-0.023530922830104828,-0.11602187156677246,0.012729883193969727,0.33638999034411193,-0.07328185418410195,0.33910036725306686,-0.8754898998766713,-0.6984879316907806,0.13072310252220598,-2.360251020875373
1772660563688418816,0.5712437629699707,-0.43739232420921326,0.06819934397935867,0.06342200189828873,0.10083578526973724,0.646340548992157,-0.7563570737838745,-0.01939963549375534,-0.12966269254684448,0.03031337261199951,0.3364072850798256,-0.07358293360560321,0.34118474301723956,-0.8746476793420187,-0.7027788216526654,0.13253617229967848,-2.358586332640268
1772660563698455808,0.5812807083129883,-0.4077207148075104,0.060342755168676376,0.045488547533750534,0.10168056935071945,0.6494969129562378,-0.7535348534584045,-0.018733806908130646,-0.13870900869369507,0.025095582008361816,0.336379227343487,-0.0739212895057371,0.3431737238943799,-0.8738514931435808,-0.7069226121674133,0.13412793702535253,-2.3571302945060233
1772660563708493824,0.5913188457489014,-0.37859317660331726,0.06138432025909424,0.03169523552060127,0.10238809138536453,0.6524204611778259,-0.7509089708328247,-0.02404945343732834,-0.14083904027938843,0.016472935676574707,0.336290888138323,-0.07424972936118034,0.3450108674318253,-0.8731340236884025,-0.710773895560507,0.13551649122908055,-2.355944423766695
1772660563718530816,0.601355791091919,-0.3219032883644104,0.06037471443414688,0.020144306123256683,0.10299015790224075,0.655053973197937,-0.7485301494598389,-0.028817176818847656,-0.144250750541687,0.005808591842651367,0.33615413518421355,-0.07454238867362517,0.3466674940919649,-0.8725053521088453,-0.7142540233362279,0.13673135015379229,-2.3550102701829165
1772660563728567808,0.6113927364349365,-0.26183372735977173,0.06340432167053223,0.01639430969953537,0.10355958342552185,0.6572293639183044,-0.7465419769287109,-0.03285035490989685,-0.14906591176986694,-0.017740249633789062,0.33601423805370356,-0.07473944922874125,0.3480560671376588,-0.8719893271328186,-0.7171367837927907,0.13783938247942412,-2.354250669235771
1772660563738606080,0.6214308738708496,-0.2118547260761261,0.06874582171440125,0.020338984206318855,0.1041552871465683,0.6589828729629517,-0.7449115514755249,-0.041517965495586395,-0.13936012983322144,-0.03989368677139282,0.33589113078141575,-0.07482783493400794,0.34920625558811574,-0.8715692758381807,-0.7194657142415766,0.13892169925079084,-2.3535813101011933
1772660563748642816,0.6314678192138672,-0.14002899825572968,0.08690911531448364,0.041696738451719284,0.10491274297237396,0.6602724194526672,-0.7436623573303223,-0.05478760600090027,-0.11104756593704224,-0.06439733505249023,0.3358241193962006,-0.0747458648710653,0.35011694123726445,-0.8712367190240827,-0.7211814052122031,0.14015087795754622,-2.352857461082045
1772660563758679808,0.6415047645568848,-0.04595443978905678,0.13395172357559204,0.06326301395893097,0.10607559233903885,0.660914421081543,-0.7429267168045044,-0.06994279474020004,-0.08121776580810547,-0.0929650068283081,0.3358202804889333,-0.07433115894745781,0.35072999687621004,-0.8710270256348064,-0.7220366030248985,0.1418221418358597,-2.352001231547551
1772660563768718080,0.6515429019927979,0.05081653967499733,0.183808371424675,0.0847436711192131,0.10774122178554535,0.6608114838600159,-0.7427785992622375,-0.08425792306661606,-0.05395418405532837,-0.10574734210968018,0.3358712908880683,-0.07350833440787438,0.3510088487297655,-0.8709649491144406,-0.721899433315621,0.1440469544161633,-2.3510191860079446
1772660563778755072,0.6615798473358154,0.1289110779762268,0.246424600481987,0.10826683789491653,0.10998265445232391,0.6600415706634521,-0.7431344985961914,-0.0907413586974144,-0.03227972984313965,-0.1118001937866211,0.3359425572444761,-0.0722473531407041,0.3510172136103316,-0.8710394387821281,-0.7208741282930123,0.14693174129290681,-2.349926048485269
1772660563788791808,0.671616792678833,0.19126148521900177,0.3051900565624237,0.14773502945899963,0.11288007348775864,0.658686637878418,-0.7439018487930298,-0.08906112611293793,-0.01957225799560547,-0.10807263851165771,0.33606977414779415,-0.07054431913100766,0.3508170223784717,-0.87121062672515,-0.7190719338541423,0.1505917620066121,-2.348572886679236
1772660563798830080,0.6816549301147461,0.2567981481552124,0.3589209318161011,0.19360317289829254,0.1164930909872055,0.6568063497543335,-0.7450065016746521,-0.0846174955368042,-0.016440749168395996,-0.10474014282226562,0.33630450099468007,-0.06840693627574294,0.3504528885295225,-0.8714370367593505,-0.7165756626206261,0.15510919076140475,-2.3467930615140435
1772660563808867072,0.6916918754577637,0.30182015895843506,0.4148847162723541,0.22476549446582794,0.12077366560697556,0.6544439792633057,-0.7464025616645813,-0.08244360983371735,-0.02089911699295044,-0.1052057147026062,0.3366395000819518,-0.06586816234982804,0.3499430161285757,-0.8717080834227583,-0.7134469940877554,0.16041732369403333,-2.3446209320952733
1772660563818903808,0.7017288208007812,0.3334904909133911,0.4580492377281189,0.27204060554504395,0.12565672397613525,0.6517496109008789,-0.7479524612426758,-0.08284056186676025,-0.023118019104003906,-0.10235881805419922,0.3370557600017777,-0.06299045255312015,0.3493651079616172,-0.8719918282043613,-0.7098890517948319,0.1664466204713189,-2.342086732353963
1772660563828941824,0.7117667198181152,0.3767905533313751,0.5018558502197266,0.32850733399391174,0.13121595978736877,0.6487031579017639,-0.7496442794799805,-0.08177749812602997,-0.020376741886138916,-0.09938526153564453,0.3376442292139264,-0.05977094867189502,0.34871952567360537,-0.8722490457662877,-0.7058791880981377,0.17328219328789604,-2.338957156598104
1772660563838979072,0.7218039035797119,0.4525276720523834,0.5413464903831482,0.368312269449234,0.13740450143814087,0.6451001763343811,-0.7516420483589172,-0.08392243087291718,-0.020222246646881104,-0.10149204730987549,0.3383817678538047,-0.056175729465625754,0.34788396309467307,-0.8725359137103483,-0.7011543959355672,0.18080930636580375,-2.3354026967933788
1772660563849016064,0.7318408489227295,0.4993130564689636,0.5745395421981812,0.3971315324306488,0.14411117136478424,0.6409717798233032,-0.7539145350456238,-0.08826398849487305,-0.020686745643615723,-0.08820277452468872,0.33920887421113977,-0.05224519363839652,0.34686188333346796,-0.8728657675743063,-0.6957636731261465,0.18887216829787723,-2.33161764845121
1772660563859053824,0.7418787479400635,0.5844074487686157,0.6008672714233398,0.42153090238571167,0.15119384229183197,0.6362555623054504,-0.7565178275108337,-0.08297182619571686,-0.030664801597595215,-0.07299566268920898,0.34012614506862765,-0.048036230927436835,0.3455916761097398,-0.8732542349005628,-0.6896348839694791,0.19725610043565162,-2.327712651873107
1772660563869091072,0.7519159317016602,0.6538347601890564,0.6035886406898499,0.4416528046131134,0.15854410827159882,0.6308286786079407,-0.7595517635345459,-0.07501751184463501,-0.04772937297821045,-0.06271380186080933,0.3411343919705443,-0.04357513982630396,0.3439844721890881,-0.8737294219125256,-0.6826207238558968,0.20577913489051805,-2.3238042917095423
1772660563879128064,0.7619528770446777,0.6884020566940308,0.6006985902786255,0.4626677930355072,0.1659904569387436,0.6249552369117737,-0.7628093957901001,-0.0702110081911087,-0.05889993906021118,-0.0364307165145874,0.34222608857690506,-0.039006695907232276,0.3421604479435459,-0.8742345955726291,-0.6750741694256909,0.21426387020002163,-2.319897927380003
1772660563889164800,0.7719898223876953,0.7402446269989014,0.5859572887420654,0.4749224781990051,0.17345823347568512,0.6187061667442322,-0.7662342190742493,-0.06856931746006012,-0.07134288549423218,-0.022248446941375732,0.3433984411698166,-0.03438358651456867,0.340147997506086,-0.8747539692062798,-0.6670947375970937,0.22262522901586526,-2.3160105942763405
1772660563899202816,0.7820277214050293,0.8005050420761108,0.5793616771697998,0.47650519013404846,0.18089018762111664,0.6119012832641602,-0.7699711322784424,-0.07023344933986664,-0.08869266510009766,-0.023852109909057617,0.3444253876490627,-0.029604901369498275,0.33784314701455825,-0.8754179709973317,-0.6584622080538782,0.23074669875108136,-2.3127651736429975
1772660563909240064,0.792064905166626,0.8683168292045593,0.5617941617965698,0.4736979603767395,0.18819473683834076,0.604553759098053,-0.7740139365196228,-0.07978102564811707,-0.10417228937149048,-0.015903055667877197,0.34543349930118133,-0.02476957053433492,0.3352305084226879,-0.8761751093750525,-0.6492055092889811,0.23851304130530787,-2.309910635669225
1772660563919277056,0.8021018505096436,0.9228945970535278,0.5549352169036865,0.47834357619285583,0.19543157517910004,0.5966504812240601,-0.7783409953117371,-0.08471378684043884,-0.11432015895843506,-0.0023596882820129395,0.346465416751669,-0.019863962379701033,0.3323175030940768,-0.8770018419342931,-0.6393207457082943,0.24600179173326286,-2.3073202294019675
1772660563929314816,0.8121397495269775,0.9426270127296448,0.5519542694091797,0.48886916041374207,0.2026514858007431,0.5883722901344299,-0.7827837467193604,-0.0860895961523056,-0.11386972665786743,0.02530694007873535,0.347533207148656,-0.01491051991209384,0.32921998572810784,-0.8778453886595424,-0.6290443459364702,0.25332399958553475,-2.304862388316685
1772660563939352064,0.8221769332885742,0.9639005661010742,0.5356243252754211,0.4664147198200226,0.20973911881446838,0.5798755884170532,-0.787244439125061,-0.08832493424415588,-0.11126291751861572,0.040937066078186035,0.34858921993212033,-0.009982589487203562,0.32600327470401746,-0.8786966445376838,-0.6185760054543682,0.2603738174016715,-2.3026308488134926
1772660563949389056,0.8322138786315918,0.9932452440261841,0.5173748731613159,0.44122883677482605,0.21650440990924835,0.5711251497268677,-0.7917966246604919,-0.07038623094558716,-0.10463345050811768,0.027377068996429443,0.3495314324329204,-0.005126274267319919,0.3226072083121384,-0.8796169908475298,-0.6078758961679116,0.2669100673037228,-2.3009534414305555
1772660563959426816,0.8422517776489258,1.0145223140716553,0.5013303756713867,0.45288920402526855,0.22311106324195862,0.5621417760848999,-0.7963781356811523,-0.04031074047088623,-0.0950549840927124,0.012213706970214844,0.3504829559511021,-0.0003133355199740632,0.31907809943527027,-0.8805401069490909,-0.5969732002915253,0.2731544605847532,-2.29945580755909
1772660563969463808,0.8522887229919434,1.042004108428955,0.4880163073539734,0.4661817252635956,0.22959569096565247,0.5528198480606079,-0.8010467886924744,-0.02770666778087616,-0.09790962934494019,0.01105356216430664,0.3514855674594673,0.004482086995787741,0.31536725769712165,-0.8814653590038966,-0.5857444044542698,0.27913641554612456,-2.298061447582828
1772660563979501056,0.86232590675354,1.0275697708129883,0.4643027186393738,0.45498472452163696,0.235971137881279,0.5433497428894043,-0.8056603670120239,-0.04519052803516388,-0.10972553491592407,0.0266382098197937,0.3524907507224342,0.009242358145824062,0.3115836871818157,-0.8823719986982848,-0.5744221231695845,0.2849226094450523,-2.2967917182251267
1772660563989538816,0.872363805770874,0.9838052988052368,0.44698914885520935,0.4442424476146698,0.242078498005867,0.5341026782989502,-0.8100199699401855,-0.06803673505783081,-0.1153252124786377,0.04221296310424805,0.35347012293716534,0.013821968685701702,0.3078944068080348,-0.883215137656724,-0.5634460194954622,0.2904059732857962,-2.2956259864359665
1772660563999575808,0.8824007511138916,0.9271034002304077,0.43645182251930237,0.4487583637237549,0.24804334342479706,0.5251994132995605,-0.8140270709991455,-0.07366590201854706,-0.10578107833862305,0.03611874580383301,0.35442288604127586,0.018257430725202913,0.3043897735404618,-0.8839671487391269,-0.5529494354541439,0.2957735729883528,-2.2944596439642226
1772660564009613056,0.8924379348754883,0.9103030562400818,0.42497971653938293,0.43826499581336975,0.25391560792922974,0.516575038433075,-0.8177267909049988,-0.06664445996284485,-0.08978670835494995,0.022972822189331055,0.35538635076223124,0.022575864934633944,0.30104305361050054,-0.8846265407325341,-0.5428461128846295,0.3010745117185414,-2.2932138508175837
1772660564019650816,0.9024758338928223,0.9142530560493469,0.42759865522384644,0.4182766377925873,0.25964614748954773,0.5079841613769531,-0.8213013410568237,-0.052569180727005005,-0.0741005539894104,0.004940927028656006,0.3562499253605835,0.026844843614847937,0.29770570045452394,-0.8852889499037345,-0.5328429203872486,0.3061975224746965,-2.292252995773705
1772660564029687808,0.9125127792358398,0.9293394684791565,0.4365774989128113,0.40006062388420105,0.2652706205844879,0.4993029832839966,-0.8248200416564941,-0.036327749490737915,-0.05807983875274658,0.00020456314086914062,0.3570261979450433,0.031103063218952072,0.2943171539935321,-0.8859697486385489,-0.5227941050630157,0.31116298264963976,-2.2915803104882535
1772660564039724800,0.9225497245788574,0.9281975030899048,0.43875250220298767,0.40853986144065857,0.2708843946456909,0.49052903056144714,-0.828252911567688,-0.020884394645690918,-0.050404518842697144,-0.0009859800338745117,0.3577006959716899,0.035400699970871405,0.2908957231291491,-0.8866660743694229,-0.5126967328593879,0.3160896049201986,-2.2911865808111496
1772660564049763072,0.9325878620147705,0.9357153177261353,0.4330754578113556,0.42679473757743835,0.27655690908432007,0.48160240054130554,-0.8316101431846619,-0.014075219631195068,-0.05070945620536804,0.016226232051849365,0.3584418630552009,0.039727941789655365,0.2874310811112178,-0.8873130662999867,-0.5024821977905983,0.32105075908878083,-2.2906864079081948
1772660564059799808,0.9426248073577881,0.8989018797874451,0.44415581226348877,0.4201110005378723,0.2822432518005371,0.4727078080177307,-0.8347970247268677,-0.02644488215446472,-0.06047636270523071,0.032703518867492676,0.35922564317096967,0.044033899432637344,0.2840114388898788,-0.8878938624287015,-0.49236105992156703,0.32603264314229813,-2.2900818032718844
1772660564069836800,0.9526617527008057,0.847044825553894,0.45286381244659424,0.4008462429046631,0.2879413068294525,0.46420738101005554,-0.837616503238678,-0.04914122819900513,-0.07501670718193054,0.05224663019180298,0.3599113461188189,0.0482888573871712,0.2808201313725038,-0.888409942724314,-0.4827395180951868,0.3311074369916869,-2.289555635667025
1772660564079875072,0.9626998901367188,0.7922154068946838,0.45453545451164246,0.4076482355594635,0.29361996054649353,0.4561217129230499,-0.8400835394859314,-0.05674248933792114,-0.08592823147773743,0.058329999446868896,0.36056358139479733,0.05245421740950114,0.27786109388741215,-0.8888395496103688,-0.4736322595018003,0.3362407218992119,-2.2889689058575122
1772660564089912064,0.9727368354797363,0.7314713597297668,0.46312999725341797,0.4092048406600952,0.2993343770503998,0.4485021233558655,-0.8421667218208313,-0.06212121248245239,-0.07753047347068787,0.0509832501411438,0.3612567512698675,0.05652416079358294,0.2751756813620758,-0.8891439882326659,-0.4650887610153078,0.3415072489613776,-2.288117584362487
1772660564099948800,0.9827737808227539,0.7330958843231201,0.4783020317554474,0.38846123218536377,0.3050879240036011,0.4411183297634125,-0.843999981880188,-0.06830203533172607,-0.05761921405792236,0.03781712055206299,0.36190532788851165,0.060575265189033285,0.2726364547510572,-0.8893956604854384,-0.45684442122454194,0.34686390978157,-2.287279924096232
1772660564109987072,0.992811918258667,0.7365327477455139,0.5151664614677429,0.3517416715621948,0.3109290599822998,0.4337099492549896,-0.8457061052322388,-0.0642249584197998,-0.04915797710418701,0.02614128589630127,0.3623717657509322,0.06472576923658509,0.2701064930460171,-0.8896852869173074,-0.4486060824760333,0.3523167424421128,-2.286844400920152
1772660564120024064,1.0028488636016846,0.7125393152236938,0.527031660079956,0.29671144485473633,0.3167538344860077,0.4265347719192505,-0.8471924662590027,-0.05318880081176758,-0.051290661096572876,0.03853774070739746,0.36254580010740084,0.06890598922533223,0.2676858839070998,-0.890031875755744,-0.440658094346119,0.35779410865704797,-2.287001341798418
1772660564130060800,1.0128858089447021,0.6626484394073486,0.5280737280845642,0.2534864842891693,0.3224041163921356,0.4197823703289032,-0.8484328985214233,-0.03344839811325073,-0.0657479465007782,0.04611051082611084,0.3625055219463624,0.07297755804038827,0.26543892273811004,-0.8903967311613653,-0.43320551905228466,0.36314660151682954,-2.287562266508098
1772660564140098816,1.0229237079620361,0.5746509432792664,0.5197641253471375,0.21395958960056305,0.3278648257255554,0.4137246310710907,-0.8493154048919678,-0.01705855131149292,-0.0845162570476532,0.05154013633728027,0.36227906471891935,0.07687028670229248,0.26350191947057294,-0.8907366190351669,-0.4265414660186897,0.36840925235613803,-2.288368020553966
1772660564150136064,1.0329608917236328,0.48103591799736023,0.4997386336326599,0.2038130760192871,0.333061158657074,0.40855687856674194,-0.8497950434684753,-0.010093599557876587,-0.09787270426750183,0.062212586402893066,0.3619888568107717,0.08047421888988573,0.2619663928239712,-0.8909891616364934,-0.42087241737683745,0.3735311823181233,-2.2890974858633166
1772660564160173056,1.0429978370666504,0.44792428612709045,0.4897661507129669,0.21256554126739502,0.3380914032459259,0.4039074182510376,-0.8500311970710754,-0.025164127349853516,-0.1097179651260376,0.05227118730545044,0.361774161203435,0.08387121569116306,0.26067224633793123,-0.8911426238822887,-0.41578417942976853,0.3785565721873182,-2.2895377952355918
1772660564170209792,1.053034782409668,0.39720699191093445,0.4892100989818573,0.20321571826934814,0.3431106209754944,0.3995630443096161,-0.8500732183456421,-0.06897124648094177,-0.09853765368461609,0.03412473201751709,0.3615507935670584,0.08720373393598732,0.2595359535449142,-0.8912449290275843,-0.4110401403733383,0.3836273015636098,-2.289900610250938
1772660564180248064,1.063072919845581,0.3620221018791199,0.5332227945327759,0.15601705014705658,0.3481900990009308,0.3957113027572632,-0.8498095273971558,-0.11485269665718079,-0.062016844749450684,0.01985347270965576,0.3612183244864328,0.0904988869176883,0.2586603736677447,-0.8913058661322599,-0.4068422467271159,0.3888637011931014,-2.290318396226129
1772660564190285056,1.0731098651885986,0.39070942997932434,0.5884654521942139,0.10253452509641647,0.35348576307296753,0.39207684993743896,-0.8493077158927917,-0.13154670596122742,-0.03779831528663635,0.001590430736541748,0.36055629673217765,0.09395036322339445,0.25791370688526305,-0.8914331210701445,-0.40288812232167553,0.39439732377352477,-2.2913314192349072
1772660564200321792,1.0831468105316162,0.38888704776763916,0.6338587403297424,0.0449410006403923,0.3589682877063751,0.38843363523483276,-0.8486819863319397,-0.10553506016731262,-0.041677653789520264,-0.0026668906211853027,0.35954766493696,0.0975933374874889,0.25716640580693,-0.8916649649444283,-0.39893114046563505,0.4001512351349512,-2.2930708916076465
1772660564210359808,1.0931847095489502,0.31260061264038086,0.6245456337928772,0.02349403128027916,0.3644818663597107,0.3853677809238434,-0.8477290868759155,-0.06305977702140808,-0.051703840494155884,0.019176840782165527,0.3583404631378781,0.10119589714978323,0.2566999109703498,-0.8918837387930124,-0.395606356916317,0.4060566135253898,-2.295040228356006
1772660564220397056,1.1032218933105469,0.28645023703575134,0.6117931008338928,0.016135983169078827,0.3697831630706787,0.38272473216056824,-0.8466299176216125,-0.0358751118183136,-0.07661819458007812,0.02694302797317505,0.35714210104676114,0.10461235004983219,0.2564006810003988,-0.8920563077289441,-0.3927437938244162,0.41179818147743247,-2.296911100030381
1772660564230434048,1.1132588386535645,0.19841589033603668,0.6019314527511597,0.013296520337462425,0.3749978840351105,0.380560040473938,-0.8453109264373779,-0.04730015993118286,-0.08302894234657288,0.021992504596710205,0.3559548495049138,0.10789313065015775,0.25632713082671366,-0.89216114875513,-0.3904018388649072,0.41753669954682726,-2.2986118117729104
1772660564240471808,1.1232967376708984,0.14533457159996033,0.5903187394142151,0.02771620638668537,0.3801194131374359,0.37910258769989014,-0.843676745891571,-0.08467873930931091,-0.052701860666275024,0.021166980266571045,0.35486232286258945,0.1109684459291197,0.2566079203779107,-0.8921385536590595,-0.388826309912545,0.4233120593691531,-2.2998676617477587
1772660564250509056,1.1333339214324951,0.1959443986415863,0.6376678347587585,0.05660884082317352,0.3854807913303375,0.37753215432167053,-0.841946542263031,-0.12603560090065002,-0.019972950220108032,-0.01961040496826172,0.3538335491188887,0.11416689280176272,0.2568903191003828,-0.8920622604025615,-0.387129783736754,0.42935840350627275,-2.3009404095779757
1772660564260546048,1.1433708667755127,0.2909452021121979,0.7157596945762634,0.06697972118854523,0.3914075493812561,0.37521329522132874,-0.8402470350265503,-0.1659437119960785,0.010849297046661377,-0.03542429208755493,0.35278111559910025,0.11779313458819772,0.25690709924371546,-0.8920027523026938,-0.3846268678969126,0.43593526844799185,-2.3021598246801758
1772660564270583808,1.1534087657928467,0.41411155462265015,0.7642996907234192,0.06167883425951004,0.3978978991508484,0.3720003664493561,-0.8386256694793701,-0.1878606677055359,0.03504309058189392,-0.03820538520812988,0.35155200123829466,0.12191760348769713,0.25656045860925214,-0.8920336582198525,-0.381163127789137,0.44301112478413185,-2.303931799128819
1772660564280620800,1.1634457111358643,0.5364923477172852,0.8099372386932373,0.06494946032762527,0.4047791063785553,0.3677356243133545,-0.8372122645378113,-0.1749970018863678,0.06215023994445801,-0.03021937608718872,0.3501692550506882,0.126477858652936,0.255728817213632,-0.8921813132288574,-0.3765728548514958,0.45034808873014065,-2.3063314458251463
1772660564290658048,1.173482894897461,0.6409720778465271,0.8564466834068298,0.06368019431829453,0.41200539469718933,0.36250466108322144,-0.8359676599502563,-0.13861367106437683,0.09063562750816345,-0.0021213293075561523,0.3486805102615108,0.1314193958761486,0.25445063099555143,-0.8924155944685551,-0.3709539470581016,0.45791005132352497,-2.3092416950139296
1772660564300695808,1.183520793914795,0.7230959534645081,0.8663033246994019,0.06403519958257675,0.4194609522819519,0.3565099239349365,-0.8348372578620911,-0.10535874962806702,0.10087227821350098,0.013044655323028564,0.3470827154133476,0.1366461747702568,0.25280269737049926,-0.8927218279651999,-0.3645296837622415,0.4656027885879809,-2.3126347203840028
1772660564310732800,1.1935577392578125,0.7910639047622681,0.8687596917152405,0.0877760797739029,0.42699024081230164,0.34982749819755554,-0.8338465690612793,-0.07675522565841675,0.08986976742744446,0.026366710662841797,0.34549465632358434,0.14203178454974819,0.2508060708325781,-0.8930603991561911,-0.3573869564931346,0.4732592208963524,-2.3162699124453328
1772660564320770048,1.2035949230194092,0.8153708577156067,0.8674768805503845,0.1027667447924614,0.4345698654651642,0.3426414728164673,-0.8329141139984131,-0.07324174046516418,0.06501230597496033,0.042569875717163086,0.3439334957034632,0.14752443499237727,0.2485548058128112,-0.8934019091915473,-0.3497271499963092,0.4808929352836825,-2.3200460120926016
1772660564330807808,1.2136328220367432,0.7684318423271179,0.8591148257255554,0.10245142877101898,0.4421447217464447,0.3355751037597656,-0.8318037390708923,-0.08745419979095459,0.04481121897697449,0.062287747859954834,0.3423918947275515,0.15298534206003925,0.24636076821707084,-0.8936832305534841,-0.3422156562966735,0.4885673891523853,-2.3237535598966046
1772660564340844800,1.2236697673797607,0.7231149673461914,0.8432602286338806,0.09527767449617386,0.449541300535202,0.32891371846199036,-0.8304988741874695,-0.08795377612113953,0.045491188764572144,0.07650107145309448,0.3408850136435473,0.15827412120975246,0.24433555328108578,-0.8938942304456302,-0.335153074127197,0.49613201277209495,-2.327303669044608
1772660564350881792,1.2337067127227783,0.6808988451957703,0.8437513709068298,0.0716148242354393,0.456851601600647,0.3226495385169983,-0.8289655447006226,-0.07017862796783447,0.05793514847755432,0.07223647832870483,0.3393511883226681,0.1634564334047175,0.24248548178827092,-0.8940489853915998,-0.3285273920854704,0.5036953646717055,-2.330805440558
1772660564360920064,1.2437448501586914,0.6087090969085693,0.809881865978241,0.04158128798007965,0.46390822529792786,0.31702134013175964,-0.8272162079811096,-0.033213675022125244,0.07500746846199036,0.07625490427017212,0.3377654793877259,0.16841435623157006,0.24089108402289217,-0.8941602062031166,-0.32258716228405254,0.5111020770588413,-2.3342729982205452
1772660564370956800,1.253781795501709,0.5238159894943237,0.7567196488380432,0.031897369772195816,0.4705149829387665,0.3121764659881592,-0.825325071811676,0.018559694290161133,0.09190675616264343,0.0885850191116333,0.33616502968294826,0.17301465279479522,0.239590038680993,-0.8942346402813744,-0.31748313806814144,0.518141391594105,-2.3376255083401842
1772660564380993792,1.2638187408447266,0.45474720001220703,0.693748950958252,0.04088873416185379,0.47662097215652466,0.3079492449760437,-0.8234073519706726,0.059252411127090454,0.1009252667427063,0.08346295356750488,0.33472084432204086,0.17721582790621845,0.23851805888493333,-0.8942402562794561,-0.31303676340727304,0.5247152289957175,-2.340557959798435
1772660564391032064,1.2738568782806396,0.3783889412879944,0.6485798954963684,0.0508100762963295,0.48228222131729126,0.3043009042739868,-0.8214650750160217,0.07159656286239624,0.10129296779632568,0.07190757989883423,0.3334840668589841,0.18103978851156774,0.237680593813048,-0.8941593740635877,-0.3092044301522913,0.5308802881984198,-2.342949573556319
1772660564401068800,1.2838938236236572,0.3048398792743683,0.5850009322166443,0.08139701187610626,0.48755091428756714,0.301187664270401,-0.8194999098777771,0.06062108278274536,0.10710698366165161,0.0618399977684021,0.33245215408275863,0.18452167629846047,0.23706917124918256,-0.8939941938131878,-0.30593791224820693,0.5366884840066617,-2.344802957823293
1772660564411105792,1.2939307689666748,0.2725461721420288,0.5363278388977051,0.09819795936346054,0.49242842197418213,0.29841354489326477,-0.8175961971282959,0.038806259632110596,0.12114208936691284,0.040786564350128174,0.33166515023572574,0.18768555278969934,0.23659252856943708,-0.8937540362488152,-0.3030300265705784,0.5421001939131934,-2.3461038795909133
1772660564421142784,1.3039677143096924,0.3192095458507538,0.529768705368042,0.08264003694057465,0.4970510005950928,0.295551061630249,-0.8158369064331055,0.016422510147094727,0.1362268626689911,0.014201164245605469,0.33090460714175357,0.19073169045004668,0.2360147388347881,-0.8935439053598022,-0.3000323092641937,0.5471953319398281,-2.3474692322285318
1772660564431181056,1.3140058517456055,0.35344457626342773,0.522891104221344,0.06674416363239288,0.5015918612480164,0.29238975048065186,-0.8141952157020569,0.012720823287963867,0.15141209959983826,-0.0007309317588806152,0.33003774088359117,0.1938187641766127,0.23523752265545694,-0.8934050391972485,-0.296724855404663,0.5521435968359681,-2.3492253257597455
1772660564441217792,1.324042797088623,0.35184773802757263,0.5096445679664612,0.06794951111078262,0.5060240030288696,0.28914883732795715,-0.8126085996627808,0.03763139247894287,0.16649386286735535,0.0005663633346557617,0.3291402905775337,0.19687469043316594,0.23438444223319566,-0.8932922767677355,-0.29333757619864237,0.5569548863493343,-2.3511241522847195
1772660564451254784,1.3340797424316406,0.29737943410873413,0.49568822979927063,0.08170127868652344,0.5103236436843872,0.2860819697380066,-0.8110036253929138,0.07146346569061279,0.16664627194404602,-0.0013895630836486816,0.32832253338733847,0.19981479916118539,0.23360699383622568,-0.8931440280846857,-0.29013541261268233,0.5616493329516933,-2.3528217085924
1772660564461293056,1.3441178798675537,0.2136842906475067,0.46984171867370605,0.11926649510860443,0.5145291090011597,0.2834630012512207,-0.8092641830444336,0.09109222888946533,0.1506190299987793,-0.005707740783691406,0.32770712185363504,0.2025804083384639,0.23308601558489403,-0.8928830326808069,-0.2874033207065385,0.5663270154366707,-2.353917760315421
1772660564471330048,1.3541548252105713,0.07734774053096771,0.43990886211395264,0.16506646573543549,0.5186225771903992,0.2815335690975189,-0.8073224425315857,0.09186631441116333,0.1296144723892212,-0.008397161960601807,0.3274086965586484,0.20509208244462163,0.23297216172768132,-0.892448781125724,-0.2853919621835685,0.571012771521089,-2.35405942993099
1772660564481366784,1.3641917705535889,-0.053551413118839264,0.4137243926525116,0.2083825170993805,0.522600531578064,0.2804868817329407,-0.8051185011863708,0.07220226526260376,0.11412063241004944,-0.01363760232925415,0.3274949650902726,0.20729766735920574,0.23338474059500847,-0.8917994630316121,-0.28430132176303935,0.5757406517378971,-2.3530100570144548
1772660564491405056,1.374229907989502,-0.1303260326385498,0.405735045671463,0.24148467183113098,0.5265365242958069,0.2800713777542114,-0.8026950359344482,0.041624486446380615,0.11169803142547607,-0.026391267776489258,0.32790258802878186,0.20929335494731388,0.23419818059410077,-0.8909698928576222,-0.2838684748626524,0.5805542488891245,-2.3509847465259113
1772660564501442048,1.3842668533325195,-0.15411019325256348,0.4142853915691376,0.2631361782550812,0.5305408835411072,0.2798946499824524,-0.8001158237457275,0.011619150638580322,0.12296789884567261,-0.03333449363708496,0.32848399193637656,0.21124042517800573,0.23520111765851137,-0.8900315951251367,-0.28368437722245904,0.5855155030268174,-2.348436583584225
1772660564511478784,1.394303798675537,-0.12121612578630447,0.4339654743671417,0.27349627017974854,0.5346711874008179,0.27957066893577576,-0.7974753379821777,-0.011477887630462646,0.13949668407440186,-0.03856891393661499,0.3291403837811843,0.21326007061364274,0.23618310535762627,-0.8890468131319997,-0.28334692095436764,0.5906205578935787,-2.345728211139581
1772660564521517056,1.4043419361114502,-0.05054594948887825,0.4689146876335144,0.27955976128578186,0.5390251278877258,0.27877721190452576,-0.7948176860809326,-0.02111130952835083,0.15403831005096436,-0.05611920356750488,0.3297364409152862,0.21549453547236305,0.23696677358134016,-0.8880781522208229,-0.2825206229894905,0.5959273404475384,-2.343270542848792
1772660564531554048,1.4143788814544678,0.009458621963858604,0.518256664276123,0.29262498021125793,0.5437536835670471,0.27736663818359375,-0.7920856475830078,-0.02136904001235962,0.15627288818359375,-0.07110404968261719,0.33022004649998615,0.2180629807255424,0.23749887893116386,-0.8871287685482823,-0.28105211964286675,0.6015967244095065,-2.341196783462761
1772660564541591040,1.4244158267974854,0.026603519916534424,0.5467183589935303,0.30585208535194397,0.5488068461418152,0.2755821943283081,-0.7892183065414429,-0.021264731884002686,0.1438361406326294,-0.06156599521636963,0.3307141798174657,0.22086663701283746,0.2379259707444849,-0.8861362152811555,-0.2791952825100703,0.6076187288838285,-2.3391452391931318
1772660564551628800,1.4344537258148193,0.03211360052227974,0.5851046442985535,0.3019407093524933,0.5541129112243652,0.27366772294044495,-0.786171019077301,-0.026036739349365234,0.11639270186424255,-0.047874391078948975,0.331168537800631,0.2238411575133459,0.2383476926019975,-0.8851061635424022,-0.27720427559130345,0.6139567957717589,-2.3371471468358305
1772660564561666048,1.444490909576416,-0.0006127879023551941,0.6126565337181091,0.2823735177516937,0.5596153140068054,0.27188554406166077,-0.7828850150108337,-0.03509443998336792,0.08227095007896423,-0.04034191370010376,0.33156487374308674,0.2269178629569484,0.2388844432024748,-0.8840289755539691,-0.2753518547707299,0.6205976412231227,-2.335146950710784
1772660564571703040,1.4545278549194336,-0.08106652647256851,0.6315476298332214,0.2681754231452942,0.565240204334259,0.2706547677516937,-0.7792621850967407,-0.04288607835769653,0.052053362131118774,-0.016605734825134277,0.33192542450005036,0.22998045016308127,0.23974550451593524,-0.8828684433874134,-0.2740731157360994,0.627539590492423,-2.3329292607074645
1772660564581740800,1.4645657539367676,-0.15558017790317535,0.6359354853630066,0.2537544071674347,0.5708990097045898,0.27010929584503174,-0.7753162980079651,-0.043158531188964844,0.03196895122528076,0.008745193481445312,0.332277849893841,0.23295187629803157,0.24098814897386128,-0.8816176382999066,-0.27350655788531725,0.6347034360190761,-2.330392844205758
1772660564591778048,1.4746029376983643,-0.243230402469635,0.6409781575202942,0.24325141310691833,0.5765278339385986,0.27022263407707214,-0.7711001634597778,-0.03963208198547363,0.02321910858154297,0.021283268928527832,0.33266403539852346,0.23579123186855291,0.2425951844268149,-0.8802754561167812,-0.2736242748284416,0.6420077499357287,-2.3274664089609103
1772660564601815040,1.4846398830413818,-0.3119085133075714,0.6494116187095642,0.24470123648643494,0.5821513533592224,0.2709589898586273,-0.7666035294532776,-0.03390306234359741,0.014716088771820068,0.03546339273452759,0.333087677167833,0.2385158901894485,0.2445575518208871,-0.878836870317845,-0.2743891399745374,0.649483889558815,-2.3241367279824896
1772660564611852800,1.4946777820587158,-0.3482343852519989,0.6452504396438599,0.23427815735340118,0.5877662301063538,0.27210909128189087,-0.7618972659111023,-0.029477715492248535,0.005448251962661743,0.02762913703918457,0.3335767462898224,0.24115181129545943,0.2467735097328895,-0.8773112730426333,-0.27558414951474774,0.6570888296872819,-2.3204279575907845
1772660564621889792,1.5047147274017334,-0.35124537348747253,0.639785647392273,0.2290320098400116,0.5932856202125549,0.2734159231185913,-0.7571365833282471,-0.028512120246887207,0.0033174753189086914,0.008357346057891846,0.3340919960006811,0.2437079586426651,0.2490745522052688,-0.8757572198827779,-0.27694248301814745,0.6646552377531483,-2.316575013837062
1772660564631927040,1.51475191116333,-0.33019742369651794,0.6462796926498413,0.20596104860305786,0.5987386703491211,0.2747117877006531,-0.7523599863052368,-0.03335469961166382,0.012046605348587036,-0.0010122060775756836,0.3345119582354896,0.2462634055848931,0.2513450782230722,-0.8742321523156338,-0.2782899467618177,0.6721833210773726,-2.3129237583582456
1772660564641964800,1.524789810180664,-0.301126629114151,0.65997713804245,0.1755053997039795,0.6041752696037292,0.2759591042995453,-0.7475418448448181,-0.03757065534591675,0.023784548044204712,-0.014085352420806885,0.3347890696153092,0.24886614902062132,0.25356402222440844,-0.8727469137030909,-0.2795874094551233,0.6797306321263635,-2.309582860693041
1772660564652001792,1.5348267555236816,-0.2540605962276459,0.6653916239738464,0.16594359278678894,0.6095890402793884,0.2770065665245056,-0.7427439093589783,-0.026962697505950928,0.030656397342681885,-0.01688438653945923,0.33491355391443356,0.25154361809216974,0.2556439986162753,-0.8713236030929155,-0.2806773601452692,0.6872514624481701,-2.3066556949864996
1772660564662039040,1.5448639392852783,-0.22683988511562347,0.6817993521690369,0.15652717649936676,0.6150155663490295,0.2777893543243408,-0.7379626035690308,-0.016794860363006592,0.027645796537399292,-0.014967024326324463,0.3349452089698171,0.2543101593885009,0.2575752976166476,-0.869938443291607,-0.2814921382049462,0.6947756571460761,-2.304028318275556
1772660564672077056,1.5549018383026123,-0.2619822323322296,0.6970039010047913,0.1458529680967331,0.6205270290374756,0.27864110469818115,-0.7330111861228943,-0.016202688217163086,0.018951058387756348,-0.009176313877105713,0.3349219345148024,0.25713579441411144,0.25956808191249725,-0.868523459017741,-0.2823788813524421,0.702484892392201,-2.301418364163092
1772660564682113792,1.5649387836456299,-0.33940407633781433,0.7173168659210205,0.15510958433151245,0.6261237859725952,0.27991870045661926,-0.7277461886405945,-0.017313361167907715,0.0013160407543182373,0.012810945510864258,0.334945821728487,0.25992826255376117,0.26184765233068874,-0.8669973899511701,-0.2837094136793816,0.7104779738719322,-2.2983996381700478
1772660564692151040,1.5749759674072266,-0.42289265990257263,0.7312548160552979,0.16052566468715668,0.6318389177322388,0.2816801965236664,-0.7221052050590515,-0.02261650562286377,-0.02353203296661377,0.027021586894989014,0.335067738613397,0.26267975275678473,0.26447446848889933,-0.8653221098370076,-0.2855447535774151,0.7188275404334997,-2.2947968416885143
1772660564702188032,1.5850129127502441,-0.5159850716590881,0.746858537197113,0.1623549908399582,0.6376435160636902,0.28404176235198975,-0.7160524129867554,-0.027871787548065186,-0.042098432779312134,0.03409135341644287,0.33531341845798107,0.2653455956364399,0.2675173109431849,-0.8634761813959214,-0.28800689185836464,0.7275407046167311,-2.29048135840966
1772660564712225792,1.5950508117675781,-0.5793619155883789,0.7611029744148254,0.16312037408351898,0.643485963344574,0.28691691160202026,-0.709650993347168,-0.029334962368011475,-0.04302045702934265,0.03368663787841797,0.3356790042869712,0.26791274516865404,0.27091928760541767,-0.8614785103744385,-0.29100688520177287,0.7365395731399393,-2.2855095086308506
1772660564722262784,1.6050877571105957,-0.5682607889175415,0.7800231575965881,0.1653723418712616,0.649414598941803,0.2899652421474457,-0.7029799818992615,-0.03036552667617798,-0.027086853981018066,0.018608033657073975,0.3360169657452847,0.27051347706305373,0.2744676126178643,-0.8594083001543719,-0.29419053102104326,0.7458110566962459,-2.2803708515647405
1772660564732300032,1.6151249408721924,-0.4978753626346588,0.8108047842979431,0.16814148426055908,0.6554769277572632,0.292639821767807,-0.6962124705314636,-0.033574581146240234,-0.0042029619216918945,0.0059659481048583984,0.3362814013592628,0.27328720628210385,0.2778630184667465,-0.8573336314532042,-0.29698634235871746,0.7552705259526735,-2.2754519134764246
1772660564742338048,1.6251628398895264,-0.3960752487182617,0.8464717268943787,0.1590510606765747,0.6617307662963867,0.2946678102016449,-0.6894078850746155,-0.03999614715576172,0.01511615514755249,-0.0020441412925720215,0.3363695089562122,0.2763508867811585,0.28093816652277676,-0.8553124587988972,-0.2991078689064705,0.7649167578466948,-2.271130573078546
1772660564752374784,1.635199785232544,-0.2637827694416046,0.8658244609832764,0.14149591326713562,0.6680637001991272,0.2959594428539276,-0.6827144026756287,-0.04269742965698242,0.024429351091384888,0.0016688704490661621,0.3361992902584429,0.27968985529601814,0.283577814816916,-0.853420944697658,-0.300459792066564,0.7745524442181857,-2.2677209817157373
1772660564762412032,1.6452369689941406,-0.10856176167726517,0.8891657590866089,0.12575022876262665,0.6744456887245178,0.29630154371261597,-0.6762605905532837,-0.0340191125869751,0.021950989961624146,0.005652129650115967,0.33569520132402547,0.28335489850254575,0.2856216276174883,-0.8517270234637779,-0.30081798440432245,0.7840544919374871,-2.265563751344703
1772660564772450048,1.6552748680114746,-0.006682975217700005,0.9202845096588135,0.10617652535438538,0.6808807849884033,0.2958845794200897,-0.669965386390686,-0.028186142444610596,0.012678653001785278,0.01678246259689331,0.33485971334267745,0.2873171506748886,0.2871692226440811,-0.8502067976803178,-0.3003814234823438,0.7934784126095186,-2.264562347204945
1772660564782487040,1.6653118133544922,0.026353271678090096,0.9338970184326172,0.09706505388021469,0.6873864531517029,0.2950839400291443,-0.6636453866958618,-0.021981239318847656,-0.006616562604904175,0.03263348340988159,0.3338326899962637,0.2914751976616225,0.2884779067013579,-0.8487510326838056,-0.29954337341974235,0.8029688850465839,-2.2641655278097277
1772660564792523776,1.6753487586975098,0.005007059313356876,0.9514155387878418,0.07416213303804398,0.6938901543617249,0.29434531927108765,-0.6571738123893738,-0.020031452178955078,-0.032565563917160034,0.04500645399093628,0.33271631154766984,0.29567634616795385,0.2898078583076482,-0.8472820760955464,-0.29877042017808125,0.8125673425118761,-2.263899884912171
1772660564802562048,1.6853868961334229,-0.08043087273836136,0.9720483422279358,0.03911440446972847,0.7003512978553772,0.29417768120765686,-0.650359570980072,-0.029864847660064697,-0.05818524956703186,0.04637092351913452,0.33151466110319555,0.2998083491924471,0.2914364044012795,-0.8457409692890896,-0.29859502100800034,0.8223927056104188,-2.2634511847119976
1772660564812599040,1.6954238414764404,-0.21110500395298004,0.9832832217216492,0.012189044617116451,0.7067704200744629,0.2949385344982147,-0.6430293917655945,-0.031111299991607666,-0.08075094223022461,0.05968588590621948,0.33032774349807675,0.3037766353482336,0.2936069926417846,-0.8440368466120567,-0.2993911962155947,0.8325856954035128,-2.262337950198407
1772660564822635776,1.705460786819458,-0.35491010546684265,0.9976800084114075,-0.008224351331591606,0.7131251096725464,0.29672771692276,-0.6351419687271118,-0.020391345024108887,-0.0945487916469574,0.07931005954742432,0.3292293211110935,0.30752736042940726,0.2964049996035379,-0.8421277763287184,-0.30126421219355193,0.8431732978743345,-2.2603015118082244
1772660564832674048,1.715498924255371,-0.48132139444351196,1.0090879201889038,-0.0369446761906147,0.7194277048110962,0.29954585433006287,-0.6266546845436096,-0.013250946998596191,-0.09971678256988525,0.08449465036392212,0.3282075751103825,0.3110734496151018,0.299843231798485,-0.8400042687738631,-0.30421662594411214,0.8542100922889619,-2.2573209962661878
1772660564842711040,1.7255358695983887,-0.5738515853881836,1.0036934614181519,-0.06746077537536621,0.7255493402481079,0.30325111746788025,-0.6177515387535095,-0.0032592415809631348,-0.09351906180381775,0.0919795036315918,0.32723066333631884,0.3143765995523789,0.303795281851328,-0.8377326188179942,-0.30810257585755396,0.8654749790288737,-2.2535979296021202
1772660564852748032,1.7355728149414062,-0.6140329241752625,0.9984486699104309,-0.09540785104036331,0.7314520478248596,0.30752262473106384,-0.6086112856864929,0.0064934492111206055,-0.07359009981155396,0.08673012256622314,0.32626321052847274,0.3174827583621423,0.30805692572845267,-0.8353788866339459,-0.31258838236844416,0.8768106040645401,-2.249424235804404
1772660564862786048,1.7456109523773193,-0.5745770931243896,0.9957317113876343,-0.12683874368667603,0.7371415495872498,0.31197500228881836,-0.5994113683700562,0.009715139865875244,-0.04847100377082825,0.07376134395599365,0.32518750502870974,0.32050501802068104,0.3123633194034239,-0.8330419083413477,-0.3172710926715525,0.8880844858842715,-2.245332162960093
1772660564872823040,1.755647897720337,-0.49507853388786316,1.0090848207473755,-0.15366609394550323,0.7426807880401611,0.31621959805488586,-0.5902798771858215,0.012842893600463867,-0.027660638093948364,0.04548013210296631,0.3238719313547227,0.32359883335117834,0.3164551206997152,-0.8308109468827337,-0.32174194526495636,0.8992364559412754,-2.241879957205257
1772660564882860032,1.7656848430633545,-0.40541574358940125,1.0218453407287598,-0.17563024163246155,0.7481110692024231,0.32010236382484436,-0.5812609791755676,0.012127518653869629,-0.014224708080291748,0.024147331714630127,0.3222772065288125,0.32683338063229905,0.3202334478950423,-0.8287146095461158,-0.32583754685094846,0.9102557484095992,-2.2392679356130034
1772660564892898048,1.7757229804992676,-0.3176620304584503,1.0501339435577393,-0.19475068151950836,0.7534981369972229,0.3236122727394104,-0.5722898244857788,0.0044669508934021,-0.0116921067237854,0.014428496360778809,0.32040367474793624,0.3302538270246185,0.3237089772051054,-0.8267323251629403,-0.3295447100416242,0.9212361633899794,-2.237480107252808
1772660564902935040,1.7857599258422852,-0.2627132833003998,1.076447606086731,-0.2174868881702423,0.7588832974433899,0.32680195569992065,-0.5632907748222351,-0.011217951774597168,-0.014881819486618042,0.010327637195587158,0.3182444048529818,0.3338832881576513,0.3269198027047695,-0.8248428717893984,-0.33291775101624,0.9322654911858256,-2.2364817117929707
1772660564912972032,1.7957968711853027,-0.254141241312027,1.1108092069625854,-0.24412955343723297,0.7642485499382019,0.33000504970550537,-0.5540946125984192,-0.033672988414764404,-0.01979389786720276,0.019579291343688965,0.31592289898387493,0.3376107718313727,0.33010853906262416,-0.8229460109635834,-0.3363089389144965,0.9434757621930868,-2.2357307394124417
1772660564923009792,1.8058347702026367,-0.29213523864746094,1.1421558856964111,-0.2679387629032135,0.7696034908294678,0.33346834778785706,-0.5445267558097839,-0.05930691957473755,-0.028475701808929443,0.034776389598846436,0.31337805113509837,0.3414318117936237,0.33340807530688454,-0.8210101173265955,-0.3399801034398069,0.9550265713535256,-2.235159013498024
1772660564933047040,1.8158719539642334,-0.37072789669036865,1.1688156127929688,-0.28749391436576843,0.7749224305152893,0.337410569190979,-0.5344616770744324,-0.07814514636993408,-0.04316011071205139,0.06778693199157715,0.3108011425836123,0.34522437920072474,0.337030103000247,-0.8189221279772767,-0.34416478099663067,0.9670186594000675,-2.234114570825302
1772660564943084032,1.825908899307251,-0.4717511832714081,1.181496024131775,-0.2949846088886261,0.7801723480224609,0.34192803502082825,-0.5238475203514099,-0.08562284708023071,-0.06205132603645325,0.09716606140136719,0.30829580343066454,0.3489153605652131,0.3410781519052858,-0.8166256123293463,-0.34896782344157434,0.9794887883600857,-2.2322475933868726
1772660564953121792,1.835946798324585,-0.5447850227355957,1.1803393363952637,-0.30384308099746704,0.7852920889854431,0.34692665934562683,-0.512794554233551,-0.09376376867294312,-0.07672402262687683,0.11956030130386353,0.30591390993758205,0.3524623852020627,0.34550396893181057,-0.8141338665299535,-0.3542922634308059,0.9923160796907154,-2.2295145513627252
1772660564963159040,1.8459839820861816,-0.5867308974266052,1.1768181324005127,-0.3099137544631958,0.7901967763900757,0.35225698351860046,-0.5015018582344055,-0.10075891017913818,-0.07546257972717285,0.11885714530944824,0.30359975203101053,0.3558582758387598,0.3501627690092957,-0.8115282615903358,-0.35998158407525765,1.0052846275166802,-2.2262171680953298
1772660564973196032,1.8560209274291992,-0.5878944396972656,1.1826591491699219,-0.3163355588912964,0.7949454188346863,0.35769784450531006,-0.49001437425613403,-0.10773533582687378,-0.05684030055999756,0.09371310472488403,0.3012504532639386,0.35922024348228604,0.354899456446993,-0.8088605756228859,-0.3658014517901831,1.0183960615559788,-2.2227394344860145
1772660564983233024,1.8660578727722168,-0.5347604155540466,1.1922465562820435,-0.3203769326210022,0.7995628714561462,0.36299511790275574,-0.4784703552722931,-0.10814136266708374,-0.035938262939453125,0.06974846124649048,0.2988376890948675,0.36261628820738534,0.3595472771802241,-0.8061831929812424,-0.3714802541407091,1.031543127117786,-2.2193633078439023
1772660564993270784,1.8760957717895508,-0.45483291149139404,1.208447813987732,-0.33117619156837463,0.804060697555542,0.3679828941822052,-0.46698492765426636,-0.09867745637893677,-0.009019911289215088,0.038457125425338745,0.2961908748762985,0.3661559304292475,0.36391945610673254,-0.8035940110664972,-0.37683877182978226,1.0446266809641136,-2.216675741424508
1772660565003308032,1.8861329555511475,-0.36662209033966064,1.2184783220291138,-0.3279196619987488,0.8084455728530884,0.37257272005081177,-0.45563724637031555,-0.08096760511398315,0.014817416667938232,0.005609780550003052,0.29335010494200886,0.36984015058196645,0.3679669069560475,-0.8011019313933685,-0.38177978637281706,1.0575741778388703,-2.214688533531254
1772660565013345024,1.896169900894165,-0.27420035004615784,1.221071481704712,-0.2900485694408417,0.8127985000610352,0.37655916810035706,-0.4444790482521057,-0.05851089954376221,0.029889166355133057,-0.0091189444065094,0.2903599566284172,0.3737326957284835,0.37159703203371797,-0.7987055190604984,-0.38607926837143325,1.070374606909862,-2.2134582036318227
1772660565023382784,1.906207799911499,-0.1757771074771881,1.2187083959579468,-0.24948011338710785,0.8171545267105103,0.37975090742111206,-0.4336446523666382,-0.05595463514328003,0.02691107988357544,0.005513578653335571,0.2873541351282588,0.3778183972054855,0.37474115026694516,-0.7963980640183659,-0.38952700541309254,1.0829097907179248,-2.2128659345474175
1772660565033420032,1.9162449836730957,-0.12993784248828888,1.228129267692566,-0.22806309163570404,0.8215179443359375,0.38230448961257935,-0.42302682995796204,-0.08300775289535522,0.016194045543670654,0.03163886070251465,0.2843492680261821,0.3820676454374331,0.37750616539012327,-0.7941404111978014,-0.39228895463572133,1.0952736826781015,-2.2127391868201607
1772660565043457024,1.9262819290161133,-0.14195935428142548,1.2523603439331055,-0.2383924424648285,0.8258224129676819,0.38478049635887146,-0.4122636020183563,-0.12017971277236938,0.00585976243019104,0.06236433982849121,0.2812863905316768,0.3863905291331639,0.38022435208256683,-0.7918394581394164,-0.3949699962728403,1.10777626556721,-2.212686709566571
1772660565053495040,1.9363198280334473,-0.1854134500026703,1.2747623920440674,-0.2497904896736145,0.8300261497497559,0.3874948024749756,-0.40112897753715515,-0.13771963119506836,-0.008649617433547974,0.07779526710510254,0.27819636073174564,0.3907084511166519,0.3831219354716032,-0.7894120462923376,-0.3979125252745494,1.1206198942232932,-2.212299882132984
1772660565063531776,1.9463567733764648,-0.23666945099830627,1.2792867422103882,-0.22666335105895996,0.834147036075592,0.3903535306453705,-0.3896445035934448,-0.11966949701309204,-0.017489761114120483,0.058711886405944824,0.2751456742088574,0.39501910481276137,0.38618344613846567,-0.7868399658178641,-0.4010155700411878,1.1337991960483553,-2.2114701468427294
1772660565073569024,1.9563939571380615,-0.2492757886648178,1.2875739336013794,-0.16513261198997498,0.8383069634437561,0.39297962188720703,-0.37790021300315857,-0.0845685601234436,-0.011891365051269531,0.023347020149230957,0.27228714667928944,0.39938419333524094,0.38928416577565633,-0.7840981395607985,-0.4038696651661013,1.1472858123400138,-2.2100993325484914
1772660565083607040,1.9664318561553955,-0.23118732869625092,1.27629816532135,-0.07860410958528519,0.842603862285614,0.394918292760849,-0.3661395013332367,-0.06149125099182129,0.009241253137588501,-0.01586422324180603,0.26969406839758164,0.403888602640063,0.39217883924459007,-0.7812392663083099,-0.40597891701826305,1.160878615594954,-2.20844867492149
1772660565093643776,1.976468801498413,-0.19813130795955658,1.2872453927993774,0.017964376136660576,0.8471097946166992,0.3959643840789795,-0.35442525148391724,-0.07423681020736694,0.04420590400695801,-0.036901652812957764,0.2673982729256355,0.40858918701427216,0.39476859963632,-0.778274264366312,-0.4071178508520859,1.1745346932439504,-2.2066314727873975
1772660565103681024,1.9865059852600098,-0.11414428055286407,1.3118178844451904,0.1264013648033142,0.8519403338432312,0.3959173858165741,-0.342705637216568,-0.1113092303276062,0.0737939178943634,-0.05121523141860962,0.2653715942714123,0.41361003870243607,0.3969558140540247,-0.7751972496456225,-0.4070666709783182,1.1883390302437682,-2.204851630341033
1772660565113719040,1.9965438842773438,0.008179993368685246,1.3599188327789307,0.21145939826965332,0.8571313619613647,0.3946337103843689,-0.3310437798500061,-0.15896552801132202,0.09193852543830872,-0.05486622452735901,0.2634377244367233,0.41908530141658856,0.3985544183169637,-0.7720896293960444,-0.40566917229355953,1.202222877384497,-2.2037369679402956
1772660565123756032,2.0065808296203613,0.1070069670677185,1.4203706979751587,0.2633550763130188,0.8626102805137634,0.3923780024051666,-0.31928500533103943,-0.2082676887512207,0.10757619142532349,-0.04321804642677307,0.2613776826354024,0.42505436165617644,0.39960766615452864,-0.7689760430302622,-0.40321550003426826,1.216294870655283,-2.203615385813621
1772660565133792768,2.016617774963379,0.19757916033267975,1.4546594619750977,0.3024355173110962,0.8682416677474976,0.3894537389278412,-0.3073793053627014,-0.23358291387557983,0.12084594368934631,-0.017022520303726196,0.2591636934119449,0.4314044738111117,0.4002505723292286,-0.7658483739817571,-0.4000384387264737,1.2305402056540287,-2.2043452218773205
1772660565143831040,2.026655912399292,0.3450021743774414,1.4879002571105957,0.3418830335140228,0.8739445805549622,0.385805606842041,-0.29559239745140076,-0.23267877101898193,0.1219610869884491,0.0009451806545257568,0.25675297285366055,0.43809618076194273,0.4003442766785751,-0.7628066986852876,-0.3960808649271074,1.2446471940342887,-2.2062688789212337
1772660565153868032,2.0366928577423096,0.45949533581733704,1.5289725065231323,0.3658750653266907,0.8797023892402649,0.38148802518844604,-0.28388476371765137,-0.21530425548553467,0.11306455731391907,0.011210232973098755,0.2540629065059488,0.4451590089756952,0.3998638251736314,-0.7598647095499714,-0.39140553952281065,1.2586411614648356,-2.209569640915811
1772660565163905024,2.046729803085327,0.5259276628494263,1.5388203859329224,0.37343817949295044,0.8854035139083862,0.37679705023765564,-0.27218499779701233,-0.19245612621307373,0.09112897515296936,0.04257071018218994,0.25118994240706255,0.4524278125346252,0.3990195114829301,-0.7569650905419923,-0.3863360485906157,1.27255208904963,-2.2137531899044705
1772660565173943040,2.0567679405212402,0.5241237282752991,1.5266249179840088,0.38410282135009766,0.8909332752227783,0.37198778986930847,-0.2605050802230835,-0.1588013768196106,0.06377267837524414,0.06571140885353088,0.24828656525499085,0.4597026156940685,0.39802130333389746,-0.7540598528505218,-0.38114958591468673,1.2863304300402012,-2.2182395105682686
1772660565183980032,2.066804885864258,0.4690035581588745,1.4951138496398926,0.4042677581310272,0.8962559700012207,0.3671880066394806,-0.24879364669322968,-0.1193089485168457,0.04589793086051941,0.08103853464126587,0.24552498681469556,0.46685213920266966,0.3970544733629817,-0.7510754547566271,-0.37598403927201346,1.300021780830011,-2.222442678777621
1772660565194017024,2.0768418312072754,0.4251357913017273,1.4917242527008057,0.419116348028183,0.901409387588501,0.3623751699924469,-0.23695030808448792,-0.0845910906791687,0.0361081063747406,0.0670589804649353,0.2429301251116715,0.47390416111702766,0.3961561507167175,-0.747970676067746,-0.3708150159728812,1.3137451766012267,-2.2262488803154112
1772660565204055040,2.0868799686431885,0.39306122064590454,1.4468177556991577,0.4297516644001007,0.9063595533370972,0.3575744032859802,-0.22506199777126312,-0.06343352794647217,0.033401548862457275,0.057810425758361816,0.2405392544460909,0.48080206879887005,0.3953458881289914,-0.7447629533664918,-0.3656692749913652,1.3274048724421537,-2.229583175698392
1772660565214092032,2.096916913986206,0.3756163716316223,1.431458592414856,0.43838828802108765,0.9110650420188904,0.3527638614177704,-0.2133503407239914,-0.04708176851272583,0.037815362215042114,0.0436725914478302,0.23828106875845628,0.48752929708118226,0.39451237685391377,-0.7415506974125056,-0.36052320664008375,1.3407645837247766,-2.2327774543050536
1772660565224129024,2.1069538593292236,0.3619796633720398,1.4141666889190674,0.4376852214336395,0.9155808091163635,0.3479623794555664,-0.20157869160175323,-0.040504515171051025,0.044676780700683594,0.04955536127090454,0.2360900780573778,0.4941835939141518,0.3936917934917963,-0.7382755571646343,-0.35539677212843757,1.354088800719136,-2.2358482268907593
1772660565234166016,2.116990804672241,0.3323528468608856,1.4097102880477905,0.43430981040000916,0.9198576211929321,0.34325534105300903,-0.1898360401391983,-0.03554975986480713,0.048239439725875854,0.06170797348022461,0.23392077423264687,0.5007283108074598,0.3928780229268343,-0.7349823623789393,-0.35038061988904073,1.367278103328134,-2.238895611175099
1772660565244204032,2.1270289421081543,0.2533341944217682,1.3911805152893066,0.4285413920879364,0.9239251613616943,0.3387128412723541,-0.17786483466625214,-0.02521306276321411,0.043916523456573486,0.06913067400455475,0.23185912935249287,0.5071626656713076,0.3922417828925093,-0.7315556899254246,-0.3455485231309655,1.3806129544042804,-2.2414691170068424
1772660565254241024,2.137065887451172,0.1696019470691681,1.3687875270843506,0.42302343249320984,0.9277347922325134,0.334405779838562,-0.16577298939228058,-0.008942246437072754,0.03813749551773071,0.07785186171531677,0.23007742526732824,0.5133337837482639,0.3919208263502967,-0.7279771600547243,-0.34097465031535684,1.3939766900795296,-2.2430854768721193
1772660565264278016,2.1471028327941895,0.07980229705572128,1.3414618968963623,0.4140797555446625,0.9313036203384399,0.33030328154563904,-0.15353526175022125,0.014436006546020508,0.040332674980163574,0.06831492483615875,0.22846709907181867,0.5193201232468772,0.3918405046019014,-0.7242722449011921,-0.3366248705899489,1.4074054353455767,-2.2440369488386716
1772660565274316032,2.1571409702301025,-0.03350047394633293,1.3102957010269165,0.4273393750190735,0.9346453547477722,0.32633957266807556,-0.14121055603027344,0.04005545377731323,0.05790725350379944,0.06329919397830963,0.22721567745718083,0.5250306085677808,0.39209384793250673,-0.7204014209679354,-0.3324285266124484,1.4208457804080896,-2.2438803394854117
1772660565284353024,2.16717791557312,-0.12304819375276566,1.279127597808838,0.4819040894508362,0.937879741191864,0.3221755921840668,-0.12878039479255676,0.06413435935974121,0.07862699031829834,0.05631639063358307,0.22643045503930403,0.5305505033457372,0.39258879963403304,-0.7163235240818665,-0.3280267293632065,1.4343395081522556,-2.242592072598083
1772660565294390016,2.1772148609161377,-0.16773498058319092,1.2449140548706055,0.5253785848617554,0.9410473704338074,0.3176097571849823,-0.11642110347747803,0.07265496253967285,0.0905933678150177,0.044353850185871124,0.2260297680719766,0.5359568086548554,0.3931154357597035,-0.7121243355168532,-0.32320764845554073,1.4477073554432234,-2.240674291112181
1772660565304427776,2.1872527599334717,-0.16334475576877594,1.2272402048110962,0.5492897629737854,0.9441178441047668,0.3127055764198303,-0.1041954830288887,0.06680738925933838,0.09407845139503479,0.0340813472867012,0.2258688620580568,0.5412836471268393,0.39359150397210296,-0.7078707477818773,-0.31804013207522386,1.4608783586686778,-2.238507457651578
1772660565314465024,2.1972899436950684,-0.17172497510910034,1.2139594554901123,0.5760560035705566,0.9470661878585815,0.30754855275154114,-0.09208476543426514,0.06381338834762573,0.09967800974845886,0.028776049613952637,0.22583013116343703,0.5465650829740758,0.393985061281063,-0.703593031741225,-0.31261564720752116,1.4738694041027132,-2.236332403341847
1772660565324502016,2.207326889038086,-0.19998298585414886,1.181767225265503,0.6316958069801331,0.9499483704566956,0.3019655644893646,-0.08009383827447891,0.07696813344955444,0.10771766304969788,0.0411076545715332,0.22599836501816462,0.5518242488191512,0.3942627012840929,-0.6992651224382769,-0.3067537861928031,1.4866813794041758,-2.2340769426296765
1772660565334539776,2.21736478805542,-0.19962960481643677,1.1557366847991943,0.682917594909668,0.9527934193611145,0.29582861065864563,-0.06833774596452713,0.09333384037017822,0.10897177457809448,0.05494052916765213,0.22649230019934447,0.5570170768013053,0.39441488946236813,-0.6948885452459344,-0.30032284783661956,1.499195372267025,-2.23159414498248
1772660565344577024,2.2274019718170166,-0.1621357649564743,1.109228253364563,0.7184721827507019,0.9555651545524597,0.28922224044799805,-0.05697158724069595,0.10929995775222778,0.10869643092155457,0.049922049045562744,0.22709646141059936,0.562192321904079,0.3942765510062992,-0.6905889019975934,-0.29341426127974596,1.511245989955087,-2.2295182305098225
1772660565354614016,2.237438917160034,-0.1391003131866455,1.0632117986679077,0.7715468406677246,0.9582603573799133,0.28215673565864563,-0.04609626904129982,0.12845546007156372,0.11974450945854187,0.03753608092665672,0.2278521449156545,0.5673000572715761,0.3938559502917039,-0.6863903030740078,-0.28604145228032823,1.5227292603970948,-2.2277875494574784
1772660565364652032,2.247476816177368,-0.13424883782863617,1.0119191408157349,0.8662746548652649,0.9609660506248474,0.27434849739074707,-0.03574163466691971,0.14326691627502441,0.13629600405693054,0.028875168412923813,0.22893655971461194,0.5723495355983638,0.39312236115379123,-0.6822455674495228,-0.27791215141923775,1.5336200187768247,-2.2261895836855436
1772660565374688768,2.2575137615203857,-0.11260563880205154,0.9635594487190247,0.9549130797386169,0.9637395143508911,0.26558586955070496,-0.02588767558336258,0.1487634778022766,0.14783576130867004,0.02427023835480213,0.23037827259232188,0.5774142597849296,0.3919807841876201,-0.6781368987524833,-0.26881156262447853,1.543941092601588,-2.2248434073039904
1772660565384726016,2.2675509452819824,-0.07803541421890259,0.9220833778381348,1.0159721374511719,0.9665204286575317,0.25605931878089905,-0.016500791534781456,0.1486072540283203,0.14861902594566345,0.01869809441268444,0.23209611474000358,0.5824689550174343,0.39048626218838683,-0.6740786099256416,-0.2589433895114646,1.5537256184677746,-2.2237804307043207
1772660565394764032,2.2775888442993164,-0.0404389426112175,0.8825125098228455,1.0689088106155396,0.9692546129226685,0.24594324827194214,-0.007585157174617052,0.15768325328826904,0.14254550635814667,0.01606905460357666,0.23394449235843714,0.5875245974150857,0.388615837123931,-0.6701213425981357,-0.24849270887956068,1.5629707232926349,-2.223258139352987
1772660565404800768,2.287625789642334,-0.01555915828794241,0.8171958327293396,1.1268235445022583,0.9719369411468506,0.23523981869220734,0.0007930722204037011,0.17807209491729736,0.12868230044841766,0.013077139854431152,0.235988571284554,0.5925263883861563,0.38640524734340803,-0.6662677781703656,-0.23746530456813736,1.57161229748232,-2.2231213435721533
1772660565414838016,2.2976629734039307,-0.0432102270424366,0.7199907302856445,1.1853315830230713,0.9745650887489319,0.22394798696041107,0.008366717025637627,0.18527060747146606,0.11092136800289154,0.03298461437225342,0.2383350152634977,0.5973511946450253,0.38386834837224654,-0.6625805405764666,-0.22586346901463003,1.579381193803771,-2.223205655007403
1772660565424876032,2.3077008724212646,-0.04274390637874603,0.6213728189468384,1.2217068672180176,0.977127194404602,0.21212437748908997,0.015019111335277557,0.1690061092376709,0.08026450872421265,0.07479417324066162,0.24108069375319474,0.6018940451920926,0.3810946260395304,-0.6590678771191639,-0.21374830433156095,1.5861657986783095,-2.2232149926763474
1772660565434913024,2.3177378177642822,-0.022414222359657288,0.5578497052192688,1.189908504486084,0.9795247316360474,0.20023928582668304,0.020865095779299736,0.13952422142028809,0.03824029862880707,0.08379495143890381,0.24392303835650225,0.6061737981678029,0.3781347302816275,-0.6557964101673956,-0.20160214928942122,1.5920943499471525,-2.223493721820053
1772660565444949760,2.3277747631073,-0.026561297476291656,0.4909580647945404,1.0985474586486816,0.9816382527351379,0.18896222114562988,0.02606935240328312,0.11133348941802979,0.006853818893432617,0.09095025062561035,0.2466677586831222,0.6100864546944077,0.37527216030860966,-0.6527789472067623,-0.1901052141579951,1.5973470712544253,-2.2238290551470308
1772660565454987008,2.3378119468688965,-0.04394965618848801,0.41598597168922424,1.009659767150879,0.9834482073783875,0.17858512699604034,0.03061475232243538,0.1074637770652771,-0.009121030569076538,0.09231007099151611,0.24924114000158198,0.6135688367619749,0.37261328261841786,-0.6500550933853885,-0.1795482784428183,1.6019162857563853,-2.2241439801965117
1772660565465025024,2.3478498458862305,-0.07437413930892944,0.33242741227149963,0.9440760016441345,0.9850308895111084,0.16891056299209595,0.0343974307179451,0.11657726764678955,-0.014644220471382141,0.07070505619049072,0.25182937895979735,0.6165761368081272,0.37017912364282596,-0.6475980123969186,-0.16972424039944853,1.605702297841208,-2.2241243170756912
1772660565475062016,2.357886791229248,-0.13473019003868103,0.2659640908241272,0.877663791179657,0.9864268898963928,0.15986014902591705,0.03750840201973915,0.10906267166137695,-0.021798625588417053,0.049543023109436035,0.2544387857638646,0.6191627230528134,0.3679561424737365,-0.6453733432423963,-0.16054897814476402,1.6088025293781845,-2.2237708897588235
1772660565485099008,2.3679239749908447,-0.18626049160957336,0.23957934975624084,0.8055976033210754,0.9876422882080078,0.1514747440814972,0.04022517055273056,0.07841295003890991,-0.041519924998283386,0.026104804128408432,0.25706562531028826,0.6213834120848541,0.36605360400708353,-0.6432765173434783,-0.15206006267067101,1.6115023104417472,-2.2228831442107237
1772660565495137024,2.3779618740081787,-0.25632360577583313,0.22213631868362427,0.7340902090072632,0.9886862635612488,0.14374873042106628,0.04284416884183884,0.05098646879196167,-0.06887385249137878,0.03598272427916527,0.2596778657652151,0.6233294136234393,0.3645305557689964,-0.6412061075389107,-0.14424845816489643,1.6141036731450282,-2.221391317603571
1772660565505174016,2.3879988193511963,-0.3128622770309448,0.17681357264518738,0.6774109601974487,0.9895896911621094,0.13662734627723694,0.0452272929251194,0.048282742500305176,-0.09613052010536194,0.0885312557220459,0.2623855230442768,0.6249324068211535,0.3634186755945117,-0.639171591274823,-0.1370560355856836,1.616467622899517,-2.219085918624743
1772660565515210752,2.398035764694214,-0.34809377789497375,0.16851156949996948,0.6280755400657654,0.990382194519043,0.12999460101127625,0.04737596586346626,0.07371991872787476,-0.11513255536556244,0.11130023002624512,0.2650752788749703,0.6263029833953192,0.36253628211534333,-0.6372182638055002,-0.1303635380719544,1.6185959319363101,-2.216437628887646
1772660565525249024,2.408073902130127,-0.3922463357448578,0.13519009947776794,0.5987964868545532,0.9910876154899597,0.12372460216283798,0.04937314987182617,0.10527163743972778,-0.12155785411596298,0.10707521438598633,0.26778505999805235,0.6274861263187833,0.3618670135293421,-0.6352988834918465,-0.12404245188456965,1.6205723139986998,-2.21341215351973
1772660565535286016,2.4181108474731445,-0.4308025538921356,0.06823543459177017,0.5900505185127258,0.9917528033256531,0.11764742434024811,0.050848837941884995,0.12587720155715942,-0.1155417338013649,0.10900223255157471,0.27063383402749447,0.6283976327139406,0.36130435105942965,-0.6335084857607799,-0.11792051915782133,1.6220231542362096,-2.210024331418263
1772660565545323008,2.428147792816162,-0.44057103991508484,0.02820545807480812,0.6016030311584473,0.9924132823944092,0.11150224506855011,0.05180021747946739,0.12199711799621582,-0.1085878387093544,0.08732938766479492,0.27365802608150314,0.6291127400863608,0.36071771327676644,-0.6318316593526178,-0.11173459027731587,1.6229452167097458,-2.2064333572968757
1772660565555361024,2.438185930252075,-0.4171220362186432,0.010546171106398106,0.6014820337295532,0.9930580854415894,0.10528238862752914,0.05245327949523926,0.08761513233184814,-0.09942302107810974,0.06027865409851074,0.2767288309487975,0.6297567837845688,0.3600458755112926,-0.6302337289156981,-0.10547786727078654,1.6235672374566026,-2.20292081004095
1772660565565398016,2.4482228755950928,-0.3861846327781677,0.017796894535422325,0.6067718863487244,0.9936692118644714,0.09906310588121414,0.05299011990427971,0.04727005958557129,-0.09256286174058914,0.032932158559560776,0.2797433097785042,0.6304007042863231,0.35929098482739846,-0.628688006680513,-0.09922585281142254,1.6240735863537803,-2.199628344728548
1772660565575435008,2.4582598209381104,-0.35045671463012695,0.03171324357390404,0.6128877997398376,0.9942426085472107,0.09278352558612823,0.05359905585646629,0.014332771301269531,-0.08620699495077133,0.018712397664785385,0.2826871024969519,0.6311149991213938,0.3584597406612005,-0.6271271486877034,-0.09291717320235421,1.624653627579585,-2.1965592657794666
1772660565585473024,2.4682979583740234,-0.3068096339702606,0.04395153000950813,0.6107305884361267,0.9947729110717773,0.08648655563592911,0.054286204278469086,-0.015295982360839844,-0.09132358431816101,0.02560877799987793,0.28546776998515266,0.6319381231464968,0.357487497093783,-0.6255917917949841,-0.08659473748378349,1.625313704664117,-2.1939617273024035
1772660565595510016,2.478334903717041,-0.31801289319992065,0.08986269682645798,0.5940399169921875,0.995243489742279,0.08029192686080933,0.055168088525533676,-0.03920412063598633,-0.10337846726179123,0.03095244988799095,0.2881188572964906,0.6328324064312529,0.35652095261330624,-0.6240219864648444,-0.08037844868256189,1.6261714068357775,-2.1915378477125875
1772660565605547008,2.4883718490600586,-0.40792787075042725,0.1391330361366272,0.5786154270172119,0.9956309199333191,0.07424534857273102,0.05662858858704567,-0.04621380567550659,-0.11719884723424911,0.04049360752105713,0.29078516223731843,0.6337796229988906,0.35586188731024265,-0.62219752047046,-0.07431372791855721,1.6276121995811672,-2.1885571608255083
1772660565615584768,2.4984097480773926,-0.481737345457077,0.16623829305171967,0.5646816492080688,0.9959510564804077,0.06828287243843079,0.058469321578741074,-0.038156986236572266,-0.1263120174407959,0.04667901247739792,0.29355038023224933,0.6347118348819727,0.3554933852884033,-0.6201559498432866,-0.06833604880503276,1.6294360418239,-2.1849292497364816
1772660565625622016,2.5084469318389893,-0.513827383518219,0.18552356958389282,0.5461447238922119,0.9962103366851807,0.0624287985265255,0.060562022030353546,-0.023447275161743164,-0.1257832944393158,0.03906261920928955,0.29644259479620144,0.6355760955823608,0.35542092933625996,-0.6179327318849004,-0.06246942021802482,1.6315140043601786,-2.1806075451838454
1772660565635659008,2.518483877182007,-0.5227134227752686,0.1967923492193222,0.5299392342567444,0.9964126944541931,0.05675085261464119,0.0627790093421936,-0.015806615352630615,-0.11252172291278839,0.03811216354370117,0.29932992596275787,0.6363961561697578,0.35551292044479643,-0.6156396216370638,-0.056781357799026,1.633718182797599,-2.1760142409168917
1772660565645697024,2.52852201461792,-0.5111174583435059,0.21648108959197998,0.5333017110824585,0.9965686202049255,0.051120441406965256,0.06509905308485031,-0.010804951190948486,-0.08337754011154175,0.023722417652606964,0.30217339464444615,0.6372356035019197,0.3556407057140215,-0.61330399872557,-0.051142734581866134,1.6360268514572909,-2.171424598616496
1772660565655734016,2.5385589599609375,-0.487443208694458,0.24418382346630096,0.5548022389411926,0.996677041053772,0.045352887362241745,0.06766221672296524,-0.009845256805419922,-0.04875559359788895,-0.0005845949053764343,0.3049470120952597,0.6382035689953817,0.35570677868086514,-0.6108815691971031,-0.045368449338010534,1.6385801261315174,-2.167039569688753
1772660565665771008,2.548595905303955,-0.46077483892440796,0.2612954378128052,0.5855303406715393,0.9967438578605652,0.03931814059615135,0.07039795815944672,-0.016565024852752686,-0.018276285380125046,-0.01824343204498291,0.3076659114684342,0.6393226653270213,0.3556198929489295,-0.6083935827075991,-0.03932827788470195,1.6413071715655965,-2.1629918449506857
1772660565675808000,2.5586328506469727,-0.4372938573360443,0.28976836800575256,0.6105608344078064,0.9967647790908813,0.033019617199897766,0.07327783107757568,-0.03260767459869385,-0.009002290666103363,-0.036961913108825684,0.31037955465458017,0.6405563874482186,0.35542429517923585,-0.6058263836568584,-0.033025621424110814,1.6441799837756346,-2.159133833789409
1772660565685846016,2.5686709880828857,-0.4356631934642792,0.3405788242816925,0.6382774114608765,0.9967129230499268,0.026458976790308952,0.07657255232334137,-0.04792141914367676,-0.016708625480532646,-0.054187893867492676,0.3130308405414302,0.6419904580708318,0.3551542322221149,-0.6030965741276809,-0.026462064256139915,1.6474707987738886,-2.1554943984962684
1772660565695883008,2.5787079334259033,-0.4424726366996765,0.3745096027851105,0.6511080265045166,0.9965815544128418,0.019651571288704872,0.08024190366268158,-0.05841028690338135,-0.03411687910556793,-0.04272056370973587,0.31566434002146954,0.6435832240123792,0.354854314996011,-0.6001957701977313,-0.0196528355547951,1.6511401475736478,-2.151933475557736
1772660565705920000,2.588744878768921,-0.47926846146583557,0.4306410551071167,0.6637993454933167,0.9963566064834595,0.012682302854955196,0.08433470875024796,-0.0544622540473938,-0.04976113140583038,-0.03489626944065094,0.3183547313550042,0.6452676191458905,0.3546788027585424,-0.597061762496889,-0.012682643096654253,1.655238146857297,-2.1480803749906565
1772660565715958016,2.598783016204834,-0.5440570712089539,0.47351765632629395,0.6687650084495544,0.9960224628448486,0.005577778909355402,0.08892763406038284,-0.03575640916824341,-0.05263588950037956,-0.03356874734163284,0.3211473052065395,0.6470187378621755,0.35472604820696624,-0.5936333532993617,-0.005577807757007902,1.659842979333472,-2.1437020178159654
1772660565725995008,2.6088199615478516,-0.596646249294281,0.4857594072818756,0.6784021854400635,0.9955946207046509,-0.0016629367601126432,0.0937461405992508,-0.00824427604675293,-0.046234361827373505,-0.02624131739139557,0.3241157666822622,0.6487360206581614,0.3549854176217321,-0.5899794581932448,0.0016629374765322876,1.664680471638102,-2.1387038715980324
1772660565736032000,2.618856906890869,-0.624413788318634,0.487737238407135,0.6927520036697388,0.9950888752937317,-0.0091039864346385,0.0985662043094635,0.01804894208908081,-0.03650452196598053,-0.016138195991516113,0.32723832645814116,0.6504100067552924,0.3553166537230499,-0.5862013122636734,0.009104112646288683,1.669526935912604,-2.133355126024973
1772660565746070272,2.6288950443267822,-0.6187819838523865,0.4925413131713867,0.7029516696929932,0.9945008158683777,-0.016706163063645363,0.1033887043595314,0.030462563037872314,-0.026811910793185234,-0.014277338981628418,0.3304162432047935,0.6520850746404279,0.3556394355085154,-0.5823494194520147,0.016706940821214468,1.6743846124393909,-2.127941535411228
1772660565756107008,2.6389319896698,-0.6030348539352417,0.4868461489677429,0.7088468074798584,0.9938365817070007,-0.024400275200605392,0.10813824832439423,0.03123372793197632,-0.01962137036025524,-0.01304541528224945,0.33358701381137396,0.6537604821430436,0.3559021727512304,-0.578490060616378,0.024402696856688878,1.6791788272564572,-2.1226457226623445
1772660565766144000,2.6489689350128174,-0.6122648119926453,0.49649956822395325,0.708350658416748,0.9930906295776367,-0.032135918736457825,0.11286277323961258,0.026699841022491455,-0.01708889752626419,-0.015130303800106049,0.336736869784891,0.6554357072705639,0.3561396080728062,-0.5746100831311538,0.032141451012057405,1.6839588087140283,-2.117429562903895
1772660565776182016,2.6590068340301514,-0.6335705518722534,0.5151568651199341,0.7051104307174683,0.9922500252723694,-0.03988774120807648,0.1176808550953865,0.02354276180267334,-0.02108636498451233,-0.01680506020784378,0.33988848766650365,0.6571087494542233,0.3564386588633985,-0.570644693158713,0.03989832462527067,1.688844897064039,-2.112112724962619
1772660565786219008,2.669044017791748,-0.6887555122375488,0.5193425416946411,0.701465368270874,0.9913192391395569,-0.047682661563158035,0.12252471596002579,0.026853859424591064,-0.030839040875434875,-0.012173183262348175,0.34314083659872535,0.658714049305183,0.35687274895273685,-0.5665614973674865,0.0477007492331908,1.6937702926056657,-2.1064146311146215
1772660565796256000,2.6790809631347656,-0.7654656171798706,0.524973452091217,0.6967860460281372,0.9903020858764648,-0.055563028901815414,0.12733586132526398,0.04053586721420288,-0.045938413590192795,-0.009309187531471252,0.3465885496893929,0.6601947707506216,0.3575063561942742,-0.5623240835967295,0.05559165724522673,1.6986774801645197,-2.1000752635748965
1772660565806294016,2.6891188621520996,-0.8492923378944397,0.5211216807365417,0.6972291469573975,0.9892047047615051,-0.06353466957807541,0.13205023109912872,0.0566631555557251,-0.0648374930024147,-0.0063331276178359985,0.3502923128616144,0.6615000235231118,0.35838922393966155,-0.5579158780089821,0.0635774917233729,1.703503074015873,-2.092908990220202
1772660565816331264,2.6991560459136963,-0.9170407056808472,0.5144170522689819,0.6870443224906921,0.9880328178405762,-0.07160347700119019,0.13661766052246094,0.06876051425933838,-0.08019096404314041,0.006006255745887756,0.35424168769038306,0.6626262206669778,0.3594931439331736,-0.553357125549138,0.07166480332923984,1.7081974694692112,-2.084972327004211
1772660565826368000,2.709192991256714,-0.9588004350662231,0.49797120690345764,0.6618257761001587,0.9868196249008179,-0.07960475236177444,0.14089083671569824,0.07011091709136963,-0.08586160093545914,0.016091585159301758,0.35836126623485065,0.6635352400796244,0.3607858161596781,-0.5487548142850492,0.07968906599663586,1.712610562569699,-2.07642642029275
1772660565836406016,2.719230890274048,-0.9725183844566345,0.4930526316165924,0.6228631734848022,0.9855682253837585,-0.0873577669262886,0.14499664306640625,0.06965333223342896,-0.0782305970788002,0.01030731201171875,0.36248874407104953,0.6642863813541274,0.3622456707903463,-0.5441540593251794,0.0874692610490465,1.7168683150939894,-2.067558998389547
1772660565846443008,2.7292678356170654,-0.9113072156906128,0.4760283827781677,0.5913864970207214,0.9843028783798218,-0.09474226087331772,0.1489008367061615,0.07364988327026367,-0.060821063816547394,-0.004384890198707581,0.3664519416366537,0.6649453817709611,0.36372799962655733,-0.5396873361568081,0.09488457358338624,1.7209334021898648,-2.0588854737370124
1772660565856480000,2.739305019378662,-0.7167252898216248,0.4632972776889801,0.5516101717948914,0.9830319881439209,-0.10163775086402893,0.15270233154296875,0.0858309268951416,-0.04867658019065857,-0.02089691162109375,0.36994728477077504,0.665692305405226,0.36497249119090425,-0.5355258013729404,0.10181355886522948,1.72490278804028,-2.051340815385825
1772660565866518016,2.749342918395996,-0.5177408456802368,0.49336570501327515,0.48918917775154114,0.9817435145378113,-0.10772603005170822,0.15676383674144745,0.09557276964187622,-0.04870707541704178,-0.04226183891296387,0.3725783956702567,0.6667412743200336,0.36583875245710207,-0.5317927006689691,0.1079354862049193,1.7291386020364117,-2.0458164014945135
1772660565876555008,2.7593798637390137,-0.48130151629447937,0.4746098518371582,0.4263087213039398,0.9804580211639404,-0.11300745606422424,0.16103293001651764,0.10540330410003662,-0.038161419332027435,-0.0065224021673202515,0.37461538490958485,0.6679081074022829,0.36662682158474524,-0.5283435715764235,0.11324938010025001,1.733585490451754,-2.0413733954442232
1772660565886592256,2.7694170475006104,-0.47483909130096436,0.4555152356624603,0.38006317615509033,0.9792338609695435,-0.11776295304298401,0.16502435505390167,0.13156020641326904,-0.02974379062652588,0.044219374656677246,0.3765455673986481,0.6688961510393228,0.3675460777496721,-0.5250726793828212,0.11803685823921725,1.7377515432833255,-2.0368603321040015
1772660565896630016,2.7794549465179443,-0.43344807624816895,0.44634199142456055,0.3067399859428406,0.978062629699707,-0.12190953642129898,0.16891366243362427,0.15691673755645752,-0.04035244137048721,0.0465252548456192,0.37821733311047107,0.6698065590193942,0.36853222949466075,-0.5220104661185265,0.12221354530588448,1.7418116998960325,-2.0326351455395097
1772660565906667008,2.789491891860962,-0.41334864497184753,0.418218731880188,0.19574874639511108,0.9770067930221558,-0.12508882582187653,0.17265817523002625,0.1638624668121338,-0.06264011561870575,0.06733204424381256,0.37956202975870446,0.6705495726225111,0.3697192980640228,-0.5192337708430868,0.12541735694529377,1.7457119223098883,-2.028569978714518
1772660565916704000,2.7995288372039795,-0.4189684987068176,0.39338913559913635,0.10052569955587387,0.9761179089546204,-0.12721751630306244,0.1760958731174469,0.1683982014656067,-0.08137013018131256,0.11195959150791168,0.38067074267277645,0.6710095488867746,0.37120630992590287,-0.5167609933173214,0.12756320165284973,1.749280863688967,-2.024337543680337
1772660565926741248,2.809566020965576,-0.43972596526145935,0.39234599471092224,0.023987779393792152,0.9753376841545105,-0.12858612835407257,0.17939350008964539,0.1764262318611145,-0.09220853447914124,0.12654519081115723,0.38164626229030907,0.67124492481007,0.37299732141895187,-0.5144408369664213,0.12894313649292552,1.7526929514435792,-2.0197704009018635
1772660565936779008,2.81960391998291,-0.42496511340141296,0.3714599013328552,-0.0678153708577156,0.9746705293655396,-0.12916645407676697,0.18257373571395874,0.1747891902923584,-0.09518350660800934,0.1359076350927353,0.38246622616961723,0.6712628517655989,0.37509072957249817,-0.5122817709456088,0.12952834484971876,1.7559688598331593,-2.0149038484528443
1772660565946816000,2.8296408653259277,-0.3654711842536926,0.3587352931499481,-0.14650753140449524,0.9741371870040894,-0.12884972989559174,0.18561910092830658,0.17172157764434814,-0.09165501594543457,0.12616372108459473,0.3829642300291476,0.6711407473568937,0.3773322773622287,-0.5104202547057628,0.12920894774119945,1.7590863408974076,-2.0102709807580292
1772660565956853248,2.8396780490875244,-0.3017461597919464,0.3386572003364563,-0.21423223614692688,0.9737220406532288,-0.1277020424604416,0.1885668933391571,0.16911542415618896,-0.07932920753955841,0.12092708051204681,0.38310558640707354,0.6709356430660389,0.37964300674249324,-0.5088679783574136,0.12805170959073542,1.7620842973207649,-2.0060658448718605
1772660565966891008,2.8497159481048584,-0.26582226157188416,0.3246612250804901,-0.27060312032699585,0.9733994603157043,-0.12586425244808197,0.1914457380771637,0.1681409478187561,-0.062307074666023254,0.1171785295009613,0.3829408578245911,0.6706696869037697,0.3820013627226079,-0.5075759404667697,0.12619895974565798,1.764995112940324,-2.0022459653955154
1772660565976928000,2.859752893447876,-0.25523635745048523,0.30870410799980164,-0.3140304982662201,0.9731541275978088,-0.1235271766781807,0.19419705867767334,0.1630612015724182,-0.05364266037940979,0.11390843987464905,0.3825918651118997,0.6703206594966429,0.3844069990681633,-0.5064830809160832,0.12384350663994237,1.7677632569949457,-1.9986151922074957
1772660565986964992,2.8697898387908936,-0.24561436474323273,0.3107885718345642,-0.36084645986557007,0.9729596376419067,-0.12074083089828491,0.196903795003891,0.1488969922065735,-0.0568714514374733,0.11181198060512543,0.3821327675857158,0.6698610008392655,0.3869601194000088,-0.505492464637251,0.1210361357379065,1.7704755582091045,-1.9948771274111448
1772660565997003008,2.8798279762268066,-0.2621335983276367,0.3028041422367096,-0.4250187873840332,0.9728201627731323,-0.11740244925022125,0.19959314167499542,0.12807083129882812,-0.06887684017419815,0.10953459143638611,0.38152265101617755,0.6692829817169954,0.38968815445563876,-0.5046224510302842,0.1176738378841601,1.7731576911253661,-1.991046181837655
1772660566007040000,2.889864921569824,-0.3153531551361084,0.2935168743133545,-0.47349950671195984,0.9727410674095154,-0.11359592527151108,0.2021653801202774,0.11003786325454712,-0.08070950955152512,0.11701798439025879,0.38093334899762976,0.6684747848526589,0.39271382701272134,-0.5037927463483605,0.11384165938964917,1.7757098595821206,-1.9866227297457097
1772660566017076992,2.899901866912842,-0.3874029815196991,0.27784937620162964,-0.5107292532920837,0.9727132320404053,-0.10951365530490875,0.2045377492904663,0.08916109800338745,-0.08437975496053696,0.11679707467556,0.3804574098943885,0.6674297510712305,0.3959878772889065,-0.5029744042724821,0.10973374925836785,1.7780523573584341,-1.9815420114385773
1772660566027115008,2.909940004348755,-0.4371604323387146,0.28356239199638367,-0.5430256724357605,0.9726956486701965,-0.1052490696310997,0.20684711635112762,0.05904257297515869,-0.07961112260818481,0.10286054015159607,0.38010629650939987,0.6661866164232882,0.3995234022799718,-0.5020912241467733,0.1054443556471925,1.7803285671970994,-1.975763613193898
1772660566037152000,2.9199769496917725,-0.4512498080730438,0.27824634313583374,-0.5730705857276917,0.9726852774620056,-0.10072878748178482,0.20913444459438324,0.026032984256744385,-0.06933043152093887,0.09524786472320557,0.3797706624489336,0.6648021143853126,0.4032435582742766,-0.5012056387075821,0.10089990808633503,1.7825794649269056,-1.9695963826951048
1772660566047188992,2.93001389503479,-0.4454909861087799,0.2873026728630066,-0.5849623680114746,0.9726593494415283,-0.09601856023073196,0.21145708858966827,-0.0011933445930480957,-0.05531809478998184,0.08280859887599945,0.3793663596350837,0.6633738650485466,0.4070180092841799,-0.50035242855157,0.09616671473360053,1.7848662473198948,-1.963408036930558
1772660566057227008,2.940052032470703,-0.42156800627708435,0.29364603757858276,-0.5876694917678833,0.9725853800773621,-0.09121891111135483,0.2139083743095398,-0.02414482831954956,-0.03649713099002838,0.07124781608581543,0.3788549426154838,0.6619829331313372,0.4107709629523913,-0.4995144935692271,0.09134589302291593,1.7872873922233996,-1.957399230962592
1772660566067264000,2.9500889778137207,-0.37588679790496826,0.3071323037147522,-0.5786618590354919,0.9724591970443726,-0.08638796955347061,0.21647168695926666,-0.038743555545806885,-0.015830613672733307,0.04547591507434845,0.3782017826077197,0.6606816086448041,0.41441000541587136,-0.4987258398459505,0.0864957812519291,1.7898274644224033,-1.95179258555687
1772660566077300992,2.9601259231567383,-0.3378370702266693,0.3321963846683502,-0.5627737045288086,0.9722378849983215,-0.08159825950860977,0.21930591762065887,-0.050912320613861084,-0.0013332441449165344,0.01465710997581482,0.37744616661819763,0.6594821004283999,0.4180147307291456,-0.4978768590632907,0.08168908217532514,1.792651490670537,-1.9463839795574944
1772660566087339264,2.9701640605926514,-0.3004723787307739,0.35451072454452515,-0.5402671098709106,0.9719204306602478,-0.07692104578018188,0.2223818153142929,-0.059612810611724854,0.0070358142256736755,-0.007431298494338989,0.3765788404188559,0.658420874345433,0.42151258714500656,-0.49698835117443335,0.0769971050707384,1.7957309823585867,-1.9413202035446613
1772660566097376000,2.980201005935669,-0.24900713562965393,0.3903560936450958,-0.5396694540977478,0.9714827537536621,-0.07228300720453262,0.22582335770130157,-0.07127535343170166,0.006136178970336914,-0.042321234941482544,0.37551891131774734,0.6575447532044589,0.42490772517123454,-0.4960582547338914,0.07234610349526681,1.799192504438628,-1.936721973457888
1772660566107412992,2.9902379512786865,-0.21922262012958527,0.4392908811569214,-0.5305076837539673,0.9709132313728333,-0.06759878247976303,0.22969146072864532,-0.0801355242729187,-0.0009132102131843567,-0.05905243754386902,0.374244699547507,0.6568398163279744,0.4282606536047216,-0.4950709971666922,0.06765037110415063,1.803098055544725,-1.9325095110603132
1772660566117451008,3.0002758502960205,-0.23198485374450684,0.47444379329681396,-0.4961419403553009,0.9701785445213318,-0.0631103441119194,0.23403207957744598,-0.08493977785110474,-0.009811416268348694,-0.037849754095077515,0.372842164971758,0.6563410259958238,0.43154663701678947,-0.49393604001094477,0.06315231337520175,1.8075000146002256,-1.9285924417669533
1772660566127488256,3.010313034057617,-0.27977287769317627,0.48625969886779785,-0.44439834356307983,0.9693299531936646,-0.059119813144207,0.2385464310646057,-0.08659374713897705,-0.020149625837802887,-0.0051937103271484375,0.37158306994457185,0.6559269504185391,0.4347793163293931,-0.49259804799717044,0.05915430779857068,1.812095540089619,-1.9245184265010815
1772660566137524992,3.0203499794006348,-0.38099709153175354,0.5297125577926636,-0.4089549779891968,0.9683494567871094,-0.05578778684139252,0.24328452348709106,-0.09011447429656982,-0.031904514878988266,-0.005460947751998901,0.37062472184118755,0.6555318702348493,0.4380870130556911,-0.4909125730944811,0.055816766939207084,1.8169382276293926,-1.91980550678705
1772660566147563008,3.0303878784179688,-0.4797961115837097,0.5612496733665466,-0.38975679874420166,0.9672217965126038,-0.05298098549246788,0.24834470450878143,-0.10334545373916626,-0.038525983691215515,0.017768502235412598,0.36997862930076697,0.6550844172803109,0.4416296633259136,-0.4888184844037515,0.0530058016699317,1.8221279609314864,-1.9141330883917957
1772660566157600256,3.0404250621795654,-0.5919861793518066,0.5958665013313293,-0.36494600772857666,0.9659544229507446,-0.050665780901908875,0.25370317697525024,-0.11030244827270508,-0.042107682675123215,0.022801309823989868,0.36964091350496053,0.6545624607075473,0.44542066573922906,-0.48632717636576983,0.050687484286836795,1.827640370524048,-1.9074775979553067
1772660566167636992,3.050462007522583,-0.6691912412643433,0.6059595942497253,-0.3354741334915161,0.9645847082138062,-0.048912618309259415,0.2591986060142517,-0.10937529802322388,-0.04373874142765999,0.005541324615478516,0.3696366581760458,0.6539590669116878,0.4493738353013152,-0.4834970768194148,0.04893214109694001,1.8333103158530684,-1.8999589125302514
1772660566177673984,3.0604989528656006,-0.7175006866455078,0.6433131098747253,-0.31878408789634705,0.9631059765815735,-0.04759746044874191,0.2648802697658539,-0.10740822553634644,-0.04972311854362488,-0.03940114378929138,0.36984615420121686,0.6533212389943877,0.45344403184993276,-0.48038920210826436,0.047615452579191836,1.8391877442322047,-1.8918456829940318
1772660566187712000,3.0705368518829346,-0.7393926978111267,0.6800716519355774,-0.3183553218841553,0.9614812135696411,-0.04648144543170929,0.27091217041015625,-0.11196339130401611,-0.04638354107737541,-0.06798553466796875,0.37005792219352557,0.652733396222261,0.45759720173827395,-0.4770755601390825,0.046498199709931014,1.8454413571856876,-1.8835253797751386
1772660566197749248,3.0805740356445312,-0.7419019341468811,0.727247416973114,-0.30510637164115906,0.9596912860870361,-0.04552445933222771,0.2773456573486328,-0.11528503894805908,-0.03798694908618927,-0.08574101328849792,0.37023670109230566,0.6522052603543804,0.46184534966054613,-0.47355266032698784,0.045540199486416084,1.8521261546252283,-1.8750258378116924
1772660566207785984,3.090610980987549,-0.6541749835014343,0.7852784991264343,-0.2873696982860565,0.957696259021759,-0.04466957598924637,0.2842933237552643,-0.10932272672653198,-0.03765161707997322,-0.08902665972709656,0.3702062994212528,0.6518773028301976,0.46605005182360865,-0.46989436904460247,0.0446844465780702,1.8593618624869102,-1.866884337132349
1772660566217824000,3.100648880004883,-0.5194075703620911,0.8369190692901611,-0.2738049030303955,0.955463171005249,-0.04368725046515465,0.2918583154678345,-0.09907901287078857,-0.05335862562060356,-0.09473004937171936,0.3696782757150825,0.6519249082196957,0.4700245379644749,-0.46627108568634634,0.043701157386689816,1.8672571482568225,-1.8599090202340318
1772660566227861248,3.1106860637664795,-0.4395918846130371,0.8753505945205688,-0.2516692280769348,0.953041136264801,-0.042577654123306274,0.29983264207839966,-0.0781174898147583,-0.07137496769428253,-0.08143368363380432,0.3687258703349672,0.6522815507908826,0.4737563765399499,-0.46273626273098173,0.0425905298245553,1.8755988651231066,-1.8540129572060353
1772660566237897984,3.120723009109497,-0.4240741729736328,0.8808438777923584,-0.21626490354537964,0.9504492878913879,-0.04165487363934517,0.3080768287181854,-0.04560297727584839,-0.07798932492733002,-0.048494189977645874,0.36761690501752803,0.6528361972142065,0.4773293536497865,-0.4591508628350821,0.04166693094700111,1.8842484683126166,-1.8486239646783504
1772660566247936000,3.130760908126831,-0.3943307101726532,0.8843327760696411,-0.2006397396326065,0.947769284248352,-0.040993575006723404,0.31631165742874146,-0.015457212924957275,-0.0740424394607544,-0.03005683422088623,0.36649982119139585,0.6534797861161293,0.4807494164972248,-0.45554592508279146,0.04100506430941017,1.8929158294691055,-1.8435062858376783
1772660566257972992,3.1407978534698486,-0.36029937863349915,0.875264585018158,-0.22741208970546722,0.9450204968452454,-0.040186185389757156,0.32453233003616333,-0.010480821132659912,-0.06035396084189415,-0.03498151898384094,0.3652494119082474,0.6541408265297632,0.48411356910523234,-0.45202505029442996,0.04019700772016063,1.9015910060229062,-1.8386554866626537
1772660566268010240,3.1508350372314453,-0.3320451080799103,0.870486319065094,-0.26896166801452637,0.9422482252120972,-0.03896857425570488,0.33264026045799255,-0.020342767238616943,-0.03380059078335762,-0.03260675072669983,0.3638320335564284,0.6547262966141609,0.48749728293784556,-0.4486714493656983,0.038978444210988665,1.9101663661509034,-1.833966418366885
1772660566278048000,3.1608729362487793,-0.3023039698600769,0.8577359318733215,-0.30092331767082214,0.9394260048866272,-0.03733266890048981,0.3407125473022461,-0.029849588871002197,-0.006856787949800491,-0.019270896911621094,0.3622408041496929,0.6552382137053682,0.49093701495382513,-0.4454495701389997,0.03734134770786247,1.9187238268372817,-1.8293712676590916
1772660566288084992,3.170909881591797,-0.30004429817199707,0.8461935520172119,-0.32503825426101685,0.936591625213623,-0.03541218489408493,0.34862837195396423,-0.03177613019943237,0.011104963719844818,0.010120958089828491,0.36053841074054815,0.6556849457018838,0.4943596228588992,-0.4423773811955501,0.035419591343238695,1.9271371033314155,-1.8249214320040725
1772660566298122240,3.1809470653533936,-0.31383323669433594,0.8009580969810486,-0.3371580243110657,0.9337866306304932,-0.03340144827961922,0.356268048286438,-0.015970468521118164,0.028320275247097015,0.05253016948699951,0.35889758518333886,0.6559854709810462,0.49781229410797584,-0.439384240432041,0.03340766333150943,1.9352800031462514,-1.8202645260470824
1772660566308160000,3.1909849643707275,-0.2822500169277191,0.7540164589881897,-0.366723895072937,0.9310901165008545,-0.03120383806526661,0.36345192790031433,0.013733983039855957,0.045379266142845154,0.0888337790966034,0.35734174638406957,0.656074860503324,0.5012900719101155,-0.43655565781391736,0.031208904601838956,1.942956984981478,-1.8153755257635382
1772660566318196992,3.201021909713745,-0.24431586265563965,0.7120168209075928,-0.38413354754447937,0.928497850894928,-0.028636645525693893,0.37023234367370605,0.04956018924713135,0.06618849188089371,0.11173179745674133,0.35569880715451213,0.6560525395569649,0.5046892439752957,-0.4340072347003172,0.028640560574855655,1.950218919087422,-1.8107234714175269
1772660566328233984,3.2110588550567627,-0.1565370112657547,0.6473459601402283,-0.3784783184528351,0.9260609745979309,-0.025843681767582893,0.3764876425266266,0.09829193353652954,0.09339435398578644,0.13370519876480103,0.3539904019786438,0.6559885880327859,0.5078609964228425,-0.43179496847947124,0.02584655973742016,1.9569341984290365,-1.8065891006269013
1772660566338272000,3.221096992492676,-0.024020198732614517,0.6109688878059387,-0.371051162481308,0.9237650036811829,-0.022727979347109795,0.3822851777076721,0.1481192708015442,0.12006378173828125,0.12917417287826538,0.3520498621544689,0.6560308362885003,0.5106526485431044,-0.43002141828296253,0.02272993580224023,1.9631712052245853,-1.8035412543321279
1772660566348308992,3.2311339378356934,0.10793010890483856,0.5693040490150452,-0.3825719952583313,0.9215606451034546,-0.01905791088938713,0.3877667784690857,0.18810445070266724,0.13471950590610504,0.1298418641090393,0.34972415086591,0.6562301663633981,0.5130744222925957,-0.42873036136287884,0.019059064296950375,1.9690802664825096,-1.801781928056934
1772660566358345984,3.241170883178711,0.22032904624938965,0.5358439087867737,-0.3834594786167145,0.9194591641426086,-0.014868781901896,0.39290446043014526,0.22356146574020386,0.13426877558231354,0.1395968198776245,0.34712076388073687,0.6564883219899511,0.5152429601705445,-0.4278492943070854,0.014869329725773072,1.9746314491489447,-1.8009108879717366
1772660566368384000,3.251209020614624,0.28533121943473816,0.4978150427341461,-0.40628781914711,0.9174643754959106,-0.010233619250357151,0.39768633246421814,0.24536210298538208,0.12336228042840958,0.15474283695220947,0.34428724870916394,0.6567947441926539,0.5171690594348312,-0.4273442924148158,0.010233797994496849,1.9798128360825085,-1.800836761570102
1772660566378420992,3.2612459659576416,0.29877156019210815,0.44284525513648987,-0.4419712722301483,0.9156085848808289,-0.0051539889536798,0.4020375907421112,0.25316882133483887,0.10956990718841553,0.17472931742668152,0.3413186532360597,0.6570460926202748,0.5189501168156615,-0.42717996544870385,0.005154011770862971,1.9845433102295231,-1.8012175481440698
1772660566388457984,3.271282911300659,0.26878994703292847,0.3948841392993927,-0.4747084379196167,0.9139188528060913,0.0002166927297366783,0.4058968722820282,0.2520356774330139,0.10082700103521347,0.17958283424377441,0.33844191472421786,0.6570613649483098,0.5207867179541837,-0.42721030536307997,-0.00021669272535379758,1.988756305869819,-1.8013088960959325
1772660566398496256,3.2813210487365723,0.2167707085609436,0.3568464517593384,-0.5048759579658508,0.9123690128326416,0.005728278309106827,0.4093288779258728,0.23963916301727295,0.09177538007497787,0.1688113808631897,0.3357293027505321,0.6568302387307694,0.5227221728550415,-0.42734230288223135,-0.005728309409483788,1.992522020741207,-1.8009206216869231
1772660566408532992,3.29135799407959,0.14577695727348328,0.3054943382740021,-0.5342282056808472,0.9109684824943542,0.011226635426282883,0.41232308745384216,0.21406203508377075,0.07239151000976562,0.14974963665008545,0.33329182080430614,0.65630616298593,0.5248083086337313,-0.4274985551548774,-0.011226871057633349,1.995827379142677,-1.799792376492801
1772660566418569984,3.3013949394226074,0.0990028902888298,0.270499587059021,-0.5585833191871643,0.9096934795379639,0.016719801351428032,0.4149436950683594,0.17815136909484863,0.03691484406590462,0.11130142211914062,0.33107770412999626,0.655540372778656,0.5270091785092255,-0.4276864837659092,-0.016720580876164116,1.9987410019178662,-1.7980773494574855
1772660566428606976,3.311431884765625,0.04487227275967598,0.24815966188907623,-0.5875795483589172,0.9085003137588501,0.02227097749710083,0.41729027032852173,0.13828307390213013,-0.0044334568083286285,0.07038065791130066,0.32903163357202525,0.6545518637353948,0.5293458111980082,-0.42789373786857765,-0.02227281905755838,2.001371765950812,-1.7958079854942182
1772660566438645248,3.321470022201538,-0.006570411846041679,0.22220315039157867,-0.6015976667404175,0.9073598980903625,0.027770916000008583,0.4194362759590149,0.10126131772994995,-0.031173620373010635,0.03921234607696533,0.3271826262092332,0.6533584777331867,0.5318278283263362,-0.4280577060301711,-0.027774486028672826,2.003798845668677,-1.7929248696427003
1772660566448681984,3.3315069675445557,-0.028445085510611534,0.2017924189567566,-0.6217926740646362,0.9062739610671997,0.033268481492996216,0.42137911915779114,0.07385897636413574,-0.04750491678714752,0.002677738666534424,0.3254780410947911,0.651996434011193,0.5344064144678998,-0.42822233407740873,-0.033274619951726106,2.0060192813928532,-1.7896057848055007
1772660566458718976,3.3415439128875732,-0.018777143210172653,0.19486621022224426,-0.6437902450561523,0.9052042365074158,0.038929712027311325,0.4231903553009033,0.04534214735031128,-0.058079492300748825,-0.028887927532196045,0.323823408385951,0.6504758019103006,0.537100000283219,-0.42841956402021264,-0.03893955327427384,2.0081142683030886,-1.7859381558301415
1772660566468757248,3.3515820503234863,0.018558243289589882,0.18705329298973083,-0.6626225113868713,0.9041169881820679,0.04486674815416336,0.4249228835105896,0.014660418033599854,-0.06545084714889526,-0.04349890351295471,0.3220401807534149,0.6489451300354752,0.5397514828245227,-0.4287524675722094,-0.04488181295425173,2.0101462600073057,-1.7825027433097602
1772660566478793984,3.361618995666504,0.05901143699884415,0.17607375979423523,-0.678061306476593,0.903020441532135,0.051112864166498184,0.4265460968017578,-0.01659160852432251,-0.07181903719902039,-0.05481147766113281,0.3199794575348241,0.6475766533685248,0.5421416138070302,-0.4293484441100008,-0.051135146046773786,2.01208427364401,-1.779981248031057
1772660566488830976,3.3716559410095215,0.10814835876226425,0.1710212081670761,-0.6976379156112671,0.9019004106521606,0.05768122151494026,0.4280756711959839,-0.047240257263183594,-0.07918085157871246,-0.05908757448196411,0.31775631640827434,0.6462152039500941,0.544466483047073,-0.43010833803550624,-0.05771325605894787,2.0139487817943538,-1.7777879692143173
1772660566498868992,3.3816938400268555,0.14738689363002777,0.16865511238574982,-0.7200378775596619,0.9007348418235779,0.06465231627225876,0.42953115701675415,-0.07642453908920288,-0.08384788036346436,-0.06304550170898438,0.31534094933535795,0.6448453527693927,0.5467540985322544,-0.431038935171113,-0.06469744263615117,2.0157672580055745,-1.7758975606536092
1772660566508906240,3.391731023788452,0.1581902652978897,0.1671118140220642,-0.7365526556968689,0.8995031118392944,0.07191671431064606,0.43095478415489197,-0.09657043218612671,-0.08453574031591415,-0.05639734864234924,0.3127919264196008,0.6434508957582639,0.5490431168746669,-0.43206916472639567,-0.07197884842490271,2.0175871690863048,-1.77414339937033
1772660566518942976,3.4017679691314697,0.1493309885263443,0.15848661959171295,-0.7241103649139404,0.8982498049736023,0.07918257266283035,0.4322931468486786,-0.10393834114074707,-0.08188337832689285,-0.040340691804885864,0.3102571206582331,0.6420286257187007,0.5513128111726653,-0.433121151211854,-0.07926555185228627,2.0193411595979835,-1.7723767866832292
1772660566528980992,3.4118058681488037,0.1238970085978508,0.15424314141273499,-0.7002346515655518,0.8969733119010925,0.08617285639047623,0.4336049258708954,-0.10463005304336548,-0.07987096905708313,-0.0401570200920105,0.307836745367562,0.640612768383006,0.5535501302203901,-0.43409000331471653,-0.08627986421015002,2.021083210686571,-1.7704966344485789
