time,seconds_elapsed,rotationRateX,rotationRateY,rotationRateZ,gravityX,gravityY,gravityZ,accelerationX,accelerationY,accelerationZ,quaternionW,quaternionX,quaternionY,quaternionZ,pitch,roll,yaw
1773062431990506752,0.03126859664916992,-0.00023091118782758713,-0.06340248137712479,-0.026244992390275,0.06493806838989258,-0.44018831849098206,-0.8955541849136353,0.02676726132631302,-0.031338781118392944,0.002258896827697754,-0.2087568608259264,-0.015902034075775506,-0.2279693709601838,-0.9508931051485735,0.4558083990485484,0.07238491764428817,2.6925786663068707
1773062432000561408,0.04132342338562012,-0.11740440875291824,-0.08647610992193222,0.01031994353979826,0.06426651030778885,-0.4395346939563751,-0.8959236145019531,0.044315025210380554,-0.04253622889518738,0.003971099853515625,-0.20888513990269475,-0.016191183798703265,-0.22754351251785615,-0.9509620937517429,0.45508059258091094,0.07160948181668801,2.692559256204214
1773062432010616576,0.051378488540649414,-0.1743963211774826,-0.10002826154232025,0.04032076522707939,0.06324781477451324,-0.43811967968940735,-0.8966888189315796,0.03245531767606735,-0.04546186327934265,-0.00338137149810791,-0.20887794325058692,-0.01653114865476113,-0.22667665531228703,-0.9511647732241305,0.4535058461153802,0.07041822647404138,2.692997534308334
1773062432020672512,0.06143450736999512,-0.18461985886096954,-0.09819023311138153,0.03342033922672272,0.06224449723958969,-0.4365772604942322,-0.8975110054016113,0.0256156288087368,-0.03789478540420532,-0.005671977996826172,-0.20882550222373603,-0.016837592713743278,-0.2257454456924762,-0.9513924169802537,0.4517906793417539,0.06924148130176358,2.693537391741328
1773062432030727680,0.07148957252502441,-0.16014088690280914,-0.0797417163848877,0.01078480388969183,0.061426009982824326,-0.43500271439552307,-0.8983315229415894,0.02602212131023407,-0.02686557173728943,-0.0041190385818481445,-0.20885156704939226,-0.017066492807944793,-0.2248176548089785,-0.9516022895092396,0.4500412948968866,0.06827161834117292,2.6938635190061735
1773062432040783616,0.08154559135437012,-0.12394526600837708,-0.06456372141838074,0.0070698997005820274,0.06073444336652756,-0.43355920910835266,-0.8990760445594788,0.02384503185749054,-0.01675817370414734,-0.0037102103233337402,-0.2089187793062191,-0.017257149219398787,-0.22397356867001528,-0.9517830987097335,0.4484387699803246,0.0674495908228446,2.6940535554339813
1773062432050838528,0.09160041809082031,-0.09542760252952576,-0.05579366162419319,0.016032235696911812,0.06013454869389534,-0.4324778616428375,-0.89963698387146,0.02224765717983246,-0.012071669101715088,0.0032137036323547363,-0.2089453555151356,-0.017435268918783706,-0.22333272896872855,-0.9519246000308419,0.44723914351138205,0.06674384058697165,2.694265792223932
1773062432060894464,0.10165643692016602,-0.07426828891038895,-0.03995922952890396,0.01596834883093834,0.059639010578393936,-0.43174514174461365,-0.9000218510627747,0.022117573767900467,-0.010195165872573853,0.010022461414337158,-0.20892574594295638,-0.0175916670616094,-0.22288923164457908,-0.9520299302375983,0.4464266414911671,0.06616722735781462,2.694510944940402
1773062432070949632,0.11171150207519531,-0.040484488010406494,-0.025317968800663948,-0.014241751283407211,0.059424128383398056,-0.4312905967235565,-0.90025395154953,0.01590852066874504,-0.010832816362380981,0.01667851209640503,-0.2089641702988135,-0.017654276411710173,-0.2226237702689995,-0.9520824537110563,0.44592276378351725,0.06591256595282377,2.694532374978221
1773062432081004544,0.12176656723022461,0.031161567196249962,-0.012833763845264912,-0.045083221048116684,0.059525709599256516,-0.4313387870788574,-0.9002241492271423,0.007429864257574081,-0.009716510772705078,0.025956571102142334,-0.20914736830831504,-0.017652046597804224,-0.2226574067312653,-0.9520343947643213,0.44597617063831396,0.06602709070086163,2.6941162278615973
1773062432091060736,0.1318225860595703,0.09214715659618378,0.011838559061288834,-0.024051440879702568,0.05977855250239372,-0.4320354163646698,-0.8998732566833496,0.008870735764503479,0.0012950599193572998,0.032502710819244385,-0.20932440805823557,-0.017649679358391228,-0.22305121794499136,-0.9519033078719595,0.44674846175162125,0.06633250698678944,2.69360738458604
1773062432101115392,0.1418774127960205,0.10912474244832993,0.025577625259757042,-0.007005440071225166,0.060103755444288254,-0.4330596327781677,-0.8993591666221619,0.01452697068452835,0.009918153285980225,0.032095372676849365,-0.209361660000826,-0.017617380375548098,-0.22362927789020445,-0.9517600663985005,0.44788447156470557,0.0667303116908481,2.6933392314163314
1773062432111171584,0.1519334316253662,0.10047798603773117,0.027625063434243202,-0.004751872271299362,0.06046300753951073,-0.43407732248306274,-0.898844301700592,0.019050534814596176,0.009425252676010132,0.031962037086486816,-0.20935374899138195,-0.017556733409654416,-0.22420883046287465,-0.9516266015082232,0.4490138098132864,0.0671663133464217,2.69315694718684
1773062432121226496,0.1619884967803955,0.07605786621570587,0.01937485672533512,-0.008543414995074272,0.06082472577691078,-0.43493664264678955,-0.8984044194221497,0.029385235160589218,-0.0018614530563354492,0.03443652391433716,-0.20935939767292047,-0.017479284594742822,-0.224704860225834,-0.9515097911311786,0.44996792742278785,0.06759990047422132,2.6929610473766172
1773062432131282688,0.1720445156097412,0.0595254972577095,0.01985129527747631,-0.028181564062833786,0.06124560162425041,-0.4355863332748413,-0.8980609774589539,0.030307132750749588,-0.010351777076721191,0.030385196208953857,-0.20943496115508664,-0.017363915838605262,-0.22509555732989456,-0.951402856614798,0.45068955070579125,0.0680921643843371,2.6926236509208135
1773062432141337600,0.1820995807647705,0.0692824199795723,0.01849723979830742,-0.04267401993274689,0.06173642352223396,-0.4361860156059265,-0.8977362513542175,0.022049590945243835,-0.006166279315948486,0.02932804822921753,-0.20959420190543618,-0.017227515129816344,-0.22546637926581592,-0.9512825204742625,0.4513558728183581,0.0686608991238484,2.692096686318747
1773062432151392512,0.1921544075012207,0.10255888849496841,0.024686159566044807,-0.048387300223112106,0.06223336607217789,-0.43701493740081787,-0.8972986936569214,0.022681795060634613,0.007357954978942871,0.027837634086608887,-0.20978705973722686,-0.017123486756295766,-0.22595893053905902,-0.9511249733580575,0.4522772364247064,0.06924546721761869,2.691472346051294
1773062432161448448,0.2022104263305664,0.13521189987659454,0.04006145894527435,-0.05488072708249092,0.06278940290212631,-0.4381580650806427,-0.8967022895812988,0.023163363337516785,0.0144520103931427,0.026325702667236328,-0.20998761118119075,-0.017029459617306862,-0.2266248998981496,-0.9509239783418548,0.45354853165449033,0.06990846139553047,2.6907817385548065
1773062432171503616,0.2122654914855957,0.13358284533023834,0.04672415554523468,-0.04584275931119919,0.06346379220485687,-0.4393928647041321,-0.8960503935813904,0.02152767777442932,0.01400834321975708,0.02878659963607788,-0.21018030403842422,-0.01688566031735102,-0.227353660232612,-0.9507100256470443,0.4549226975783967,0.07070806627011209,2.690064597354993
1773062432181559552,0.2223215103149414,0.06468633562326431,0.04728521406650543,0.14578777551651,0.06387597322463989,-0.4403424859046936,-0.895554780960083,0.03884618729352951,0.019566118717193604,0.04177975654602051,-0.2100359493165331,-0.01675842916357382,-0.22790736811307805,-0.9506115024489253,0.4559800868275612,0.07120500225210011,2.690155531865892
1773062432191614720,0.2323765754699707,-0.11143063008785248,-0.0746646597981453,0.27003756165504456,0.0626690462231636,-0.4402576982975006,-0.8956817388534546,0.1292559802532196,0.03739514946937561,0.06070554256439209,-0.20892311582181516,-0.01708548156671123,-0.2277437756148481,-0.9508900739171607,0.4558856601528769,0.0698541468418984,2.6928285210917755
1773062432201670656,0.2424325942993164,-0.19187328219413757,-0.07898236811161041,0.04580886289477348,0.06129147857427597,-0.43896380066871643,-0.8964117765426636,0.10582277178764343,-0.02081400156021118,0.07674020528793335,-0.20825959899805743,-0.017462603123848605,-0.2269122213134891,-0.951227524351872,0.45444511042832747,0.06826799077460773,2.694728500581755
1773062432211725568,0.2524874210357666,-0.19706910848617554,-0.06169233098626137,0.004298971965909004,0.06067664921283722,-0.43723341822624207,-0.8972988724708557,0.01256553828716278,-0.04415082931518555,0.025671064853668213,-0.20833842364185814,-0.01758401053449102,-0.22592335499187718,-0.9514434268640382,0.4525201722699119,0.06751865902436101,2.6949071617979863
1773062432221780480,0.2625424861907959,-0.21731022000312805,-0.03430824726819992,0.24969951808452606,0.0597921721637249,-0.4354310631752014,-0.8982341885566711,0.054572444409132004,0.016653597354888916,0.03295403718948364,-0.20787092321138959,-0.017702661059556514,-0.2248766877003312,-0.9517912734313261,0.45051707529972135,0.06646829229536329,2.696309490976347
1773062432231836672,0.2725985050201416,-0.10098469257354736,-0.0550667904317379,0.33020979166030884,0.058047909289598465,-0.4341683089733124,-0.8989595770835876,0.12852132320404053,0.06676718592643738,0.050418317317962646,-0.20641266731866,-0.01808298491062655,-0.22403841480854375,-0.9522991731917956,0.4491148229147426,0.06448280190392101,2.699959247688117
1773062432241891584,0.2826535701751709,-0.12609483301639557,-0.08629913628101349,0.16962842643260956,0.05640607327222824,-0.4333959221839905,-0.8994366526603699,0.05901140347123146,-0.03793281316757202,0.04161804914474487,-0.20531501912971234,-0.018556445141002846,-0.22346660182621483,-0.952661566432152,0.44825758230659235,0.06263064950451251,2.702769971808779
1773062432251947520,0.2927095890045166,-0.19160886108875275,-0.1817404329776764,0.21452026069164276,0.05449850857257843,-0.4320165812969208,-0.9002175331115723,0.06343665719032288,-0.049489766359329224,0.025324344635009766,-0.20464441913228812,-0.019193660875334636,-0.22253730207657013,-0.9530106426670691,0.44672759818401475,0.060465470088168806,2.704808574530205
1773062432262002432,0.3027644157409668,-0.1515340805053711,-0.27563291788101196,0.39090338349342346,0.05119531601667404,-0.4306035041809082,-0.9010880589485168,0.14600926637649536,0.011169910430908203,0.062129318714141846,-0.20346805544151986,-0.02040925935075181,-0.22144851485751532,-0.9534907770814675,0.445161335295242,0.05675398578171465,2.7082652538093916
1773062432272058368,0.3128204345703125,-0.10483501851558685,-0.32241639494895935,0.47391435503959656,0.04669651761651039,-0.4296565651893616,-0.9017841815948486,0.1944686472415924,0.015945017337799072,0.05937695503234863,-0.20173110335380498,-0.02215006624481211,-0.22049330355839705,-0.9540422516805585,0.4441124183895705,0.05173615644029898,2.7131503893614664
1773062432282113536,0.3228754997253418,-0.04011201113462448,-0.36798959970474243,0.5220263004302979,0.041530683636665344,-0.4292754530906677,-0.9022182822227478,0.19707098603248596,0.012298554182052612,0.0694851279258728,-0.19974992688099222,-0.02423680105275739,-0.21978046049225028,-0.9545727100924245,0.4436904060769594,0.045999277619535775,2.718656665996549
1773062432292169472,0.3329315185546875,-0.07405400276184082,-0.37201496958732605,0.6209121346473694,0.03579717501997948,-0.42906057834625244,-0.902566134929657,0.22735589742660522,0.008391082286834717,0.09027975797653198,-0.1974319967638667,-0.026552959582916095,-0.2191161494754901,-0.9551459038541535,0.44345251938228974,0.039640779745266384,2.7249895505079413
1773062432302224640,0.3429865837097168,-0.19798150658607483,-0.4538170397281647,0.7701789140701294,0.029057517647743225,-0.4280823767185211,-0.9032724499702454,0.25364208221435547,-0.010974019765853882,0.12699681520462036,-0.1945686261216873,-0.02916807050300904,-0.21797473655428326,-0.9559180903447173,0.4423698255672019,0.032158070895085225,2.732764641243345
1773062432312279552,0.353041410446167,-0.3227945566177368,-0.6119020581245422,0.9332442879676819,0.020591888576745987,-0.42588862776756287,-0.9045412540435791,0.2761457860469818,-0.037566572427749634,0.1358950138092041,-0.19109833914278745,-0.03238638520482891,-0.2160566947628453,-0.9569493931671138,0.4399437971076317,0.022761075332666168,2.742298127221768
1773062432322335488,0.3630974292755127,-0.2700800597667694,-0.7930346727371216,1.1492984294891357,0.009758474305272102,-0.4232005476951599,-0.9059835076332092,0.30207014083862305,-0.04023939371109009,0.14612627029418945,-0.18691621255025942,-0.036596827096069734,-0.21370290327425695,-0.9581513739020543,0.4369748838107776,0.010770722738888044,2.7538804054897033
1773062432332390656,0.373152494430542,-0.07792900502681732,-0.8186132311820984,1.319034218788147,-0.0029557161033153534,-0.42163902521133423,-0.9067589640617371,0.33246925473213196,-0.01700538396835327,0.13384026288986206,-0.1818384772449479,-0.041696779947959395,-0.21185349795775402,-0.9593300860727877,0.43525211863123664,-0.003259637631407753,2.767663373842838
1773062432342446592,0.3832085132598877,0.19739754498004913,-0.853536069393158,1.3955566883087158,-0.016238441690802574,-0.42195799946784973,-0.9064699411392212,0.3396484851837158,0.02397826313972473,0.11961996555328369,-0.17613902378394267,-0.047164307191706265,-0.21104633867984382,-0.9603176556350025,0.43560391889049516,-0.01791201698686313,2.7827545778729985
1773062432352501504,0.393263578414917,0.5613083839416504,-0.9985952377319336,1.4950624704360962,-0.030797386541962624,-0.42510226368904114,-0.9046212434768677,0.34572353959083557,0.04184725880622864,0.16930019855499268,-0.170055146276824,-0.053493603529939135,-0.2117258070860944,-0.9609327644049428,0.43907485380234734,-0.0340313660640548,2.798876163865597
1773062432362557696,0.4033195972442627,0.8304126858711243,-1.113004207611084,1.6576051712036133,-0.047172896564006805,-0.430849552154541,-0.9011899828910828,0.4007495641708374,0.08146905899047852,0.14578837156295776,-0.1633887550195531,-0.06087681977210837,-0.21377329274408716,-0.9611967222397606,0.44543397715323046,-0.05229738645320859,2.8166886136348195
1773062432372612352,0.4133744239807129,1.0484944581985474,-1.1087404489517212,1.8934677839279175,-0.06509143114089966,-0.43838074803352356,-0.8964292407035828,0.40611010789871216,0.13853028416633606,0.06725138425827026,-0.15572230010675564,-0.06898942482334201,-0.2168543951906989,-0.961231085188388,0.4537962957351898,-0.07248468385325062,2.8371191442383448
1773062432382667520,0.4234294891357422,1.2353541851043701,-1.073675274848938,2.087946891784668,-0.08371645957231522,-0.44712403416633606,-0.8905457258224487,0.3548498749732971,0.15308716893196106,-0.03909599781036377,-0.14685721705858412,-0.07729142008217486,-0.2208012346899809,-0.9610961187562393,0.4635474687178828,-0.09373034294174766,2.860471798257931
1773062432392723456,0.4334855079650879,1.4794936180114746,-1.1343923807144165,2.2878174781799316,-0.10348200052976608,-0.45712828636169434,-0.8833602070808411,0.2864196300506592,0.11881041526794434,-0.06602644920349121,-0.13698696395079518,-0.08603461239860775,-0.2256500703139616,-0.9606844952536702,0.47476369320773437,-0.1166143727493537,2.8865603608712225
1773062432402778624,0.4435405731201172,1.728050708770752,-1.0472649335861206,2.5542101860046387,-0.12442431598901749,-0.46855172514915466,-0.8746301531791687,0.2682536542415619,0.07951363921165466,-0.0259893536567688,-0.12584189079529273,-0.09516700618444408,-0.2315775789330906,-0.9599368903691088,0.4876506855649044,-0.1413111743933297,2.9161011158149623
1773062432412834560,0.4535965919494629,1.9621814489364624,-0.8666828870773315,2.797537088394165,-0.14560414850711823,-0.48108384013175964,-0.8644985556602478,0.23843863606452942,0.04811573028564453,-0.024447917938232422,-0.11312136569532348,-0.10406976538464534,-0.23857955677977705,-0.9588809791401891,0.5018905858620659,-0.16686009766988424,2.9496010240691435
1773062432422889472,0.4636514186859131,2.0679988861083984,-0.7702884674072266,3.0131356716156006,-0.16684189438819885,-0.4940033555030823,-0.8533021211624146,0.17390671372413635,-0.010833680629730225,0.005874752998352051,-0.09902492501418125,-0.11259532496511128,-0.24631533960552568,-0.9575202673144283,0.5166881680530631,-0.19308899977521343,2.986660719549802
1773062432432945408,0.4737074375152588,1.9945690631866455,-0.7173045873641968,3.2942538261413574,-0.18898159265518188,-0.5057470798492432,-0.8417279124259949,0.17817836999893188,-0.053869009017944336,0.04427307844161987,-0.08359692387472263,-0.12104899287963872,-0.25393540089372724,-0.9559683990443121,0.5302477477422727,-0.2208539475663221,3.027333722961592
1773062432443000576,0.4837625026702881,1.9257053136825562,-0.6421191692352295,3.5573837757110596,-0.21235302090644836,-0.5152395367622375,-0.8303219079971313,0.21818189322948456,-0.08945107460021973,0.016799569129943848,-0.06677613568349644,-0.12951583217889276,-0.2608921056389173,-0.954307103761775,0.5412870891395973,-0.250381021632167,3.0716788695527337
1773062432453055744,0.4938175678253174,1.810660481452942,-0.457893431186676,3.8000540733337402,-0.23624174296855927,-0.5225518941879272,-0.8192248940467834,0.21288053691387177,-0.18377751111984253,-0.026142537593841553,-0.04866524231090512,-0.13766788373378433,-0.26727345674309416,-0.952493730031163,0.5498412280282132,-0.2807553017650023,3.1191692894969054
1773062432463111680,0.5038735866546631,1.6626380681991577,-0.2593364119529724,4.056647300720215,-0.2598963975906372,-0.5268882513046265,-0.8092235326766968,0.1961146593093872,-0.25921404361724854,-0.10476267337799072,-0.029066840212921406,-0.1450289350632761,-0.2726808640375392,-0.9506666171250611,0.5549352345363037,-0.310761751143632,-3.113554501304702
1773062432473166592,0.5139284133911133,1.5594916343688965,-0.2727139890193939,4.127077102661133,-0.28367146849632263,-0.528695285320282,-0.8000074028968811,0.19042503833770752,-0.24640542268753052,-0.1646837592124939,-0.008640125390644392,-0.15203924040779826,-0.277273088863512,-0.9486459557600206,0.5570626969229296,-0.34075453762307006,-3.061489361576132
1773062432483222528,0.523984432220459,1.541154384613037,-0.24256788194179535,4.210698127746582,-0.3079667389392853,-0.5287275910377502,-0.7909510731697083,0.20236065983772278,-0.17697614431381226,-0.15819138288497925,0.012016566102555935,-0.15916158382024992,-0.28141081548162455,-0.9462194174918543,0.5571007970263809,-0.37130267553401775,-3.00887384448868
1773062432493277440,0.5340394973754883,1.3656425476074219,0.03311162814497948,4.341514587402344,-0.33155351877212524,-0.5265536308288574,-0.7828240394592285,0.19613179564476013,-0.1086391806602478,-0.2340673804283142,0.03339344907139735,-0.16561125080104583,-0.28488751414786645,-0.9435553882019568,0.5545415832747091,-0.4006292892210722,-2.9553985957631843
1773062432503333632,0.544095516204834,1.0810185670852661,0.15204285085201263,4.336563587188721,-0.3536338806152344,-0.5212103128433228,-0.7767128348350525,0.12456896901130676,-0.1246635913848877,-0.346746027469635,0.05517107770804893,-0.1710924346574423,-0.28700344075343365,-0.9409104073888063,0.548268547784763,-0.42724896988994804,-2.9025958727575514
1773062432513388544,0.5541505813598633,0.7394511699676514,0.15773802995681763,4.358214855194092,-0.3749757409095764,-0.5123805403709412,-0.7725667953491211,0.058676302433013916,-0.20994001626968384,-0.3170480728149414,0.07667598810310244,-0.17632728551833662,-0.2874461650958781,-0.9382986287709157,0.5379545852834288,-0.4518700192461465,-2.8519630716893585
1773062432523443456,0.5642054080963135,0.5486789345741272,0.23107078671455383,4.451355457305908,-0.3959895074367523,-0.5002010464668274,-0.7700592279434204,0.028130650520324707,-0.2366611361503601,-0.2311767339706421,0.09827628644156326,-0.1815391014262417,-0.28638074761068627,-0.935612884476677,0.5238309520153231,-0.47496869967204863,-2.8026874489016333
1773062432533499392,0.5742614269256592,0.4257298707962036,0.4015498161315918,4.397886753082275,-0.4155418574810028,-0.4858672618865967,-0.7689330577850342,-0.015228986740112305,-0.19473576545715332,-0.13218998908996582,0.12001636561256919,-0.18615376881879075,-0.284394543521249,-0.9327715209626095,0.5073551505292236,-0.4954534281178078,-2.754706989125269
1773062432543554560,0.5843164920806885,0.31000036001205444,0.5548108816146851,4.248689651489258,-0.43264371156692505,-0.47025054693222046,-0.7692098617553711,-0.06735625863075256,-0.07284024357795715,0.01522737741470337,0.14128460404898827,-0.18983607647889292,-0.2817043386472612,-0.9298621180657661,0.4895746623270388,-0.5123530958313494,-2.70934327518498
1773062432553610496,0.5943725109100342,0.17177803814411163,0.6761599779129028,4.152188777923584,-0.4473210573196411,-0.45357224345207214,-0.7708281874656677,-0.10164439678192139,0.046147316694259644,0.14526361227035522,0.16197967430351093,-0.1926558380869008,-0.2783336817488213,-0.9269178018143753,0.4707695180401863,-0.5258174265774338,-2.6666683419003947
1773062432563665664,0.6044275760650635,0.009443620219826698,0.7462679743766785,4.07481050491333,-0.4601941406726837,-0.43547454476356506,-0.773681640625,-0.11428403854370117,0.07030120491981506,0.2123870849609375,0.18221235442583703,-0.1949823091785939,-0.27411874419480947,-0.9239260862565755,0.4505653648765296,-0.5365951181527054,-2.626314654714608
1773062432573721600,0.6144835948944092,-0.15672697126865387,0.7443142533302307,3.8610405921936035,-0.4714414179325104,-0.41626328229904175,-0.7774753570556641,-0.11644920706748962,0.04219406843185425,0.25786781311035156,0.2016073681098942,-0.19704222438629804,-0.26914066191307046,-0.9209191935245548,0.4293317291733876,-0.5450936403684161,-2.5888269560909234
1773062432583776512,0.6245384216308594,-0.2304646372795105,0.7583613991737366,3.530501365661621,-0.4806758463382721,-0.3969813287258148,-0.7818929553031921,-0.1378391683101654,0.05346021056175232,0.25902003049850464,0.21950408472549257,-0.1987392043402299,-0.26373520435203424,-0.9180220631547135,0.4082255743037567,-0.5512012089392413,-2.5552527775903737
1773062432593831424,0.6345934867858887,-0.14514921605587006,0.7754586338996887,3.2099244594573975,-0.48773935437202454,-0.3790019452571869,-0.7864272594451904,-0.20290392637252808,0.12849843502044678,0.2446487545967102,0.2358327244429256,-0.19983991841470256,-0.2585544059733078,-0.9152030002331006,0.38871754798504243,-0.5551375951512079,-2.5251450380183864
1773062432603887616,0.6446495056152344,0.16033490002155304,0.7775057554244995,2.9681167602539062,-0.49308544397354126,-0.363744854927063,-0.7902888059616089,-0.27174609899520874,0.2285367250442505,0.1870936155319214,0.2510001399574119,-0.20024805084098565,-0.2544725952544308,-0.9122189218829803,0.37228500144980137,-0.5578299849844662,-2.496815775298087
1773062432613942528,0.6547045707702637,0.6326747536659241,0.7850641012191772,2.7400410175323486,-0.49717310070991516,-0.35262393951416016,-0.7927643060684204,-0.28331395983695984,0.33063602447509766,0.05590212345123291,0.26546774412366503,-0.1998134031145624,-0.25237363073347063,-0.9087953336205966,0.3603736741664108,-0.5601357022995641,-2.468493955307167
1773062432623998720,0.6647605895996094,1.1213147640228271,0.811958372592926,2.471515655517578,-0.49996188282966614,-0.34659191966056824,-0.7936700582504272,-0.267387330532074,0.41328808665275574,-0.09228569269180298,0.2792448575956479,-0.19827234777689484,-0.25269158159356875,-0.9049074370247447,0.35393536362251193,-0.5621414113752293,-2.4397815520380544
1773062432634053376,0.6748154163360596,1.4417082071304321,0.8295871615409851,2.2314677238464355,-0.5015489459037781,-0.34510499238967896,-0.7933165431022644,-0.23833447694778442,0.46880802512168884,-0.2058594822883606,0.29224351032257684,-0.1956643345512006,-0.25506310598144366,-0.9006952728652692,0.3523506597935753,-0.5637729107362942,-2.411080150655917
1773062432644109568,0.6848714351654053,1.5066020488739014,0.8239954710006714,2.0506324768066406,-0.5023716688156128,-0.346185564994812,-0.7923245429992676,-0.22484689950942993,0.5028323531150818,-0.23285239934921265,0.30442431509677764,-0.19244623055845222,-0.2584611526862207,-0.8963749413547571,0.35350220889469697,-0.5650791852961525,-2.3831887708793236
1773062432654164480,0.6949265003204346,1.3818998336791992,0.7647153735160828,1.9106159210205078,-0.5029491782188416,-0.3477593660354614,-0.7912682890892029,-0.23018980026245117,0.5003930330276489,-0.20838069915771484,0.31576212917503693,-0.18919329871045332,-0.2618620649318199,-0.8921481659823949,0.3551802435128855,-0.566202618759068,-2.3569084000427125
1773062432664219648,0.7049815654754639,1.0940053462982178,0.6976059079170227,1.753751277923584,-0.5035515427589417,-0.34841588139533997,-0.7905961275100708,-0.22113418579101562,0.47671177983283997,-0.1662520170211792,0.32610009161495995,-0.1863358938511791,-0.264538992159798,-0.8882323583838758,0.35588055712610256,-0.5671296565153812,-2.333156863464537
1773062432674275584,0.7150375843048096,0.7135889530181885,0.5958438515663147,1.596596598625183,-0.50425785779953,-0.34714195132255554,-0.7907063364982605,-0.21392756700515747,0.45871421694755554,-0.140919029712677,0.33528025056787697,-0.18417160921958947,-0.2659467280323121,-0.8848391581816134,0.35452180892928864,-0.5677018085601381,-2.3127666470030293
1773062432684330496,0.7250924110412598,0.26714932918548584,0.47952699661254883,1.4495899677276611,-0.5052700638771057,-0.3433486223220825,-0.7917158007621765,-0.2283267378807068,0.41352379322052,-0.1375444531440735,0.34321406058351117,-0.1829786095200737,-0.2658212422656391,-0.882078271884963,0.3504799510554465,-0.5680325589596591,-2.296172324682664
1773062432694386432,0.7351484298706055,-0.12580114603042603,0.39368292689323425,1.370028018951416,-0.5057364702224731,-0.3378215730190277,-0.7937929630279541,-0.22639548778533936,0.3511577546596527,-0.1449582576751709,0.35072275747428233,-0.1819718431254968,-0.26455580124097694,-0.879710261872439,0.3446014376708651,-0.5672630041395781,-2.281490142952568
1773062432704441600,0.7452034950256348,-0.7493579983711243,0.16297036409378052,1.0732349157333374,-0.5082821249961853,-0.3269258439540863,-0.7967237830162048,-0.19020414352416992,0.3062044382095337,-0.06417709589004517,0.3556110646658286,-0.183839076828697,-0.260463657231481,-0.8785798990286512,0.333048837945493,-0.5678684367581431,-2.274372457066421
1773062432714497536,0.7552595138549805,-0.7646253705024719,0.13042627274990082,1.003493070602417,-0.5107830762863159,-0.31556835770606995,-0.7996981739997864,-0.22758972644805908,0.21211379766464233,0.010101616382598877,0.3595833856163395,-0.18608505261379096,-0.2559751198843732,-0.8778090522657226,0.32105556863505746,-0.5684044841996745,-2.269492101524504
1773062432724552704,0.7653145790100098,-0.8760737776756287,0.10806514322757721,0.8797191381454468,-0.5126035809516907,-0.30410322546958923,-0.8029688000679016,-0.17634600400924683,0.17655500769615173,-0.07407587766647339,0.36314249352628825,-0.1881683255957866,-0.25121363425173177,-0.8772753465793333,0.30899693030003905,-0.5681669286889065,-2.2657722492924566
1773062432734607360,0.77536940574646,-0.8703674077987671,-0.009024189785122871,0.9381997585296631,-0.514976978302002,-0.29232507944107056,-0.8058193325996399,-0.11182355880737305,0.25109580159187317,0.007189571857452393,0.3663295033996029,-0.1907306963687546,-0.24639833528113467,-0.8767624829341387,0.29665720754886343,-0.5686549503349152,-2.2627619583186576
1773062432744663552,0.7854254245758057,-0.7718938589096069,-0.10285332798957825,0.8701615333557129,-0.518038272857666,-0.2808004915714264,-0.8079526424407959,-0.13070440292358398,0.2709890902042389,0.0010678768157958984,0.36952129962273245,-0.19362002313695148,-0.24194001577713975,-0.8760310714850098,0.284628062132533,-0.5701456695781009,-2.259326478249578
1773062432754718464,0.795480489730835,-0.4583335518836975,-0.24976393580436707,0.6670025587081909,-0.5216124057769775,-0.27170246839523315,-0.8087634444236755,-0.13091439008712769,0.23161765933036804,-0.003660261631011963,0.37205079556634046,-0.19650085054844083,-0.23875867954675947,-0.8751913290096949,0.27516159507110993,-0.5728173108602039,-2.256161704016526
1773062432764774656,0.8055365085601807,-0.03890450298786163,-0.2654200792312622,0.64593505859375,-0.5255243182182312,-0.26627781987190247,-0.8080348372459412,-0.0824468731880188,0.22987034916877747,-0.04616743326187134,0.37432662279664064,-0.1989119266832131,-0.2375218379609703,-0.8740119908682402,0.2695293510915373,-0.57663762295578,-2.2519103543309247
1773062432774829568,0.81559157371521,0.29179537296295166,-0.18472523987293243,0.5964609384536743,-0.529015064239502,-0.26405489444732666,-0.8064849972724915,-0.05913496017456055,0.25077974796295166,-0.12564390897750854,0.37694000989487103,-0.2003909434547648,-0.23790958917565283,-0.8724440908265442,0.2672239146294735,-0.580547709229472,-2.24567978002222
1773062432784885760,0.8256475925445557,0.37735050916671753,-0.1404659003019333,0.5050884485244751,-0.5317124128341675,-0.26400235295295715,-0.8047264814376831,-0.09080040454864502,0.16218045353889465,-0.1578589677810669,0.3795114396301922,-0.201047628712306,-0.23919995595999932,-0.870823931034258,0.26716942075982403,-0.5838860881420472,-2.238885431714416
1773062432794940672,0.835702657699585,0.23950502276420593,-0.1825137585401535,0.5010495185852051,-0.5343358516693115,-0.2638927400112152,-0.8030229210853577,-0.07094979286193848,0.03180655837059021,-0.12544387578964233,0.3818353785649927,-0.20174118960263104,-0.2403934710991691,-0.8693176866142858,0.26705579468968244,-0.5871289364572847,-2.2326906172875542
1773062432804995584,0.8457574844360352,-0.0137503482401371,-0.27490490674972534,0.5522027611732483,-0.5375893712043762,-0.2620026469230652,-0.8014687895774841,-0.004585921764373779,-0.03629139065742493,-0.0912923812866211,0.383951286037633,-0.20316632684280486,-0.24080912602466792,-0.8679376339082236,0.26509677234664286,-0.5908277644221304,-2.2275026813405767
1773062432815051520,0.8558135032653809,-0.2144634872674942,-0.3186286687850952,0.6201403141021729,-0.5415611863136292,-0.257861465215683,-0.8001368641853333,0.04325491189956665,-0.040127456188201904,-0.08102768659591675,0.3860186558833563,-0.2054272159899282,-0.24027325653694367,-0.8666360442490127,0.2608081475718116,-0.5950097003914359,-2.223134170326459
1773062432825106688,0.8658685684204102,-0.3820887506008148,-0.2855354845523834,0.6767669320106506,-0.5456752181053162,-0.251899391412735,-0.7992404103279114,0.05769914388656616,-0.034035056829452515,-0.06495636701583862,0.3881695805758025,-0.20811909711837742,-0.23888538471717263,-0.8654158621738965,0.2546424423207729,-0.5990494442077379,-2.219298120056676
1773062432835162624,0.8759245872497559,-0.5379430651664734,-0.23083098232746124,0.7140112519264221,-0.5494832396507263,-0.2443588823080063,-0.7989723682403564,0.05639547109603882,-0.06040489673614502,-0.041970014572143555,0.39040603439766675,-0.21097412890097286,-0.2366510627367292,-0.864331703893903,0.24685848086581338,-0.602448595794694,-2.2160360696295913
1773062432845217792,0.8859796524047852,-0.7407017350196838,-0.20085842907428741,0.7208229303359985,-0.5529342889785767,-0.2352921962738037,-0.7993130087852478,0.06269991397857666,-0.11559891700744629,-0.016910135746002197,0.39260504836403487,-0.21399566779218462,-0.23355803312991608,-0.8634337045878604,0.23751919419744422,-0.6051756066113775,-2.213614714450535
1773062432855273728,0.8960356712341309,-1.0413422584533691,-0.2386670559644699,0.6792386770248413,-0.5562885403633118,-0.22422248125076294,-0.8001670837402344,0.09867745637893677,-0.13126154243946075,0.023143768310546875,0.3944354815449695,-0.2175077852166739,-0.2293617781489805,-0.8628465988308206,0.22614513284281618,-0.6075076662479512,-2.212893570326561
1773062432865328640,0.906090497970581,-1.2774921655654907,-0.3205823600292206,0.6317663192749023,-0.5599420666694641,-0.21115414798259735,-0.8011733889579773,0.1461084485054016,-0.08813174068927765,0.0626022219657898,0.3956563293375095,-0.22177201989171458,-0.22412156174754436,-0.8625791179985064,0.21275558410268866,-0.6099889804186077,-2.2142712112340805
1773062432875383552,0.9161455631256104,-1.3066623210906982,-0.3576527535915375,0.6502046585083008,-0.5640572309494019,-0.19702760875225067,-0.8018850088119507,0.16937339305877686,-0.05188901722431183,0.07428491115570068,0.3965633320198683,-0.22659128237262158,-0.218435064109121,-0.8623688799111718,0.1983251773774465,-0.6130136165899863,-2.2166053590453245
1773062432885439744,0.926201581954956,-1.1586333513259888,-0.29240328073501587,0.6766186952590942,-0.5679858326911926,-0.18323205411434174,-0.80238276720047,0.1662524938583374,-0.03332066535949707,0.02316218614578247,0.3976637714320604,-0.2312176131327921,-0.21294845007972965,-0.8620062477179838,0.18427316517152476,-0.6159909513080528,-2.218361110482951
1773062432895494656,0.9362566471099854,-0.8460032939910889,-0.22514063119888306,0.6743571162223816,-0.5712577700614929,-0.17113055288791656,-0.8027321696281433,0.1459648609161377,-0.01745280623435974,-0.02943640947341919,0.3991240796229899,-0.23508635204095713,-0.20825065248188504,-0.8614325855255819,0.17197703042303256,-0.6184966281023673,-2.2187635917637163
1773062432905550592,0.946312665939331,-0.3162420094013214,-0.11974427849054337,0.7000031471252441,-0.5738301873207092,-0.16246886551380157,-0.8026972413063049,0.14696556329727173,0.01227658987045288,-0.04407399892807007,0.4012185246433202,-0.23773598403262508,-0.2052632069115749,-0.8604489711465257,0.16319225311267854,-0.6206412136377466,-2.2165204805005563
1773062432915605504,0.9563674926757812,0.13027448952198029,0.009346865117549896,0.680664598941803,-0.5753759145736694,-0.1577320545911789,-0.8025354743003845,0.15607964992523193,0.0654011070728302,-0.0530705451965332,0.40407881929451134,-0.23885662690815826,-0.20415622484321758,-0.8590623860973927,0.15839353914937598,-0.6220098703192395,-2.2112528148454023
1773062432925661440,0.966423511505127,0.4542367160320282,0.12193408608436584,0.5431370139122009,-0.5757580995559692,-0.15657274425029755,-0.802488386631012,0.15090763568878174,0.12466661632061005,-0.03679078817367554,0.4071791775710402,-0.23856321395373714,-0.20455659893242265,-0.8575834199694287,0.15721964178416814,-0.6223521520439383,-2.204365799241059
1773062432935716608,0.9764785766601562,0.6785222887992859,0.05709037184715271,0.44607460498809814,-0.5757756233215332,-0.1583864539861679,-0.8021198511123657,0.1213994026184082,0.1276857554912567,0.013393044471740723,0.4100537186453425,-0.23748555957441894,-0.20625395078767744,-0.8561051343389994,0.15905626902370987,-0.6225841629998682,-2.1969444488562333
1773062432945771776,0.9865336418151855,0.7667975425720215,0.042223010212183,0.5513325929641724,-0.5761885046958923,-0.16148239374160767,-0.8012055158615112,0.08506911993026733,0.09136825799942017,0.05248725414276123,0.4130647586698379,-0.23627860708625023,-0.2087334852520413,-0.8543888504597434,0.16219257663658093,-0.6234643193134038,-2.1885649140608976
1773062432955827712,0.9965896606445312,0.654837429523468,0.11788634955883026,0.668285608291626,-0.5765923261642456,-0.16369424760341644,-0.8004658222198486,0.056557536125183105,0.04896341264247894,0.009175539016723633,0.416666771932906,-0.23510220709428695,-0.21093613181785392,-0.8524210738536117,0.16443426423147295,-0.624234410821621,-2.1791269428401496
1773062432965882624,1.0066444873809814,0.4185173511505127,0.16643881797790527,0.5674653053283691,-0.5764360427856445,-0.16442804038524628,-0.8004279136657715,0.006306707859039307,-0.010239288210868835,-0.01581043004989624,0.4201535318080547,-0.23399286156311322,-0.21221070956466984,-0.8506966851529214,0.16517813088068242,-0.6241283345082845,-2.170695545272418
1773062432975938560,1.0167005062103271,0.0814775675535202,0.09542935341596603,0.4934619069099426,-0.5761999487876892,-0.1634405106306076,-0.800800085067749,-0.015032351016998291,-0.0736047625541687,-0.028179407119750977,0.4228161490130056,-0.23343433330078558,-0.21238733349804403,-0.8494859805197045,0.1641770604493952,-0.6237136985775851,-2.164896285138776
1773062432985993728,1.0267555713653564,-0.16342297196388245,-0.005183594301342964,0.5320866107940674,-0.5766781568527222,-0.16006271541118622,-0.8011381030082703,0.03367894887924194,-0.08677870035171509,-0.006692707538604736,0.4249749291857525,-0.2339039078479239,-0.21147085684677197,-0.8485077140919429,0.16075418509084777,-0.6239069261657728,-2.1609974908101117
1773062432996049664,1.0368115901947021,-0.22589033842086792,-0.0498751662671566,0.5332706570625305,-0.5777864456176758,-0.15528187155723572,-0.8012804388999939,0.05756855010986328,-0.07753673195838928,0.025889813899993896,0.4269964905680074,-0.23504889320853087,-0.21002808136134637,-0.8475342200306786,0.15591277514069035,-0.6247332776384577,-2.1577683873701443
1773062433006104832,1.0468666553497314,-0.10955193638801575,-0.03220377117395401,0.4582887887954712,-0.578904390335083,-0.1509474515914917,-0.8013018369674683,0.014191865921020508,-0.055397167801856995,0.05484187602996826,0.4288629190594515,-0.23614215871983885,-0.2087725253583147,-0.8465976915401068,0.15152662970633482,-0.6256379154694657,-2.1547159195002035
1773062433016160768,1.0569226741790771,0.07860172539949417,0.02147063985466957,0.4257103502750397,-0.5795943140983582,-0.14827963709831238,-0.8013012409210205,-0.043422043323516846,-0.025762125849723816,0.07681393623352051,0.4306971933710191,-0.23665080726580892,-0.20819649357072445,-0.8456658136469284,0.14882845186358154,-0.6262037320039788,-2.1512106004046285
1773062433026215680,1.0669775009155273,0.2995861768722534,0.0880424901843071,0.49589598178863525,-0.5798490643501282,-0.14709004759788513,-0.8013361692428589,-0.061371028423309326,0.022929266095161438,0.09766185283660889,0.4329149804640158,-0.23650772016028604,-0.2083171115443147,-0.8445429881201131,0.14762566696009422,-0.626391747740998,-2.146347982787089
1773062433036270592,1.0770325660705566,0.6127590537071228,0.16622385382652283,0.5695672631263733,-0.5796156525611877,-0.147626593708992,-0.8014063239097595,-0.043675363063812256,0.049787238240242004,0.10934394598007202,0.4358570264280049,-0.23553839991308842,-0.20932867617285886,-0.8430491615844357,0.1481681441762454,-0.6261589530640964,-2.139237081524658
1773062433046326528,1.0870885848999023,0.8545773029327393,0.26913997530937195,0.6522212028503418,-0.5788000822067261,-0.15007732808589935,-0.8015405535697937,-0.033641934394836426,-0.0005269050598144531,0.1069452166557312,0.4395363378962666,-0.23363817345127874,-0.21128873325119518,-0.8411765764619272,0.15064649044997153,-0.625410974744198,-2.1297933426399718
1773062433056381696,1.0971436500549316,0.9184087514877319,0.3317634165287018,0.7258527874946594,-0.5773860216140747,-0.15329882502555847,-0.8019506931304932,-0.018072962760925293,-0.08202221989631653,0.10016846656799316,0.4438502572366268,-0.23108445448528914,-0.21359924995999982,-0.8390305892585435,0.1539056938579753,-0.6240078873251612,-2.1187033790373917
1773062433066437632,1.1071996688842773,0.7516667246818542,0.3130538761615753,0.6882088780403137,-0.5758922100067139,-0.15601509809494019,-0.8025007843971252,-0.004384279251098633,-0.19077140092849731,0.12707048654556274,0.448185959139758,-0.2285895755716968,-0.21563028781188923,-0.8368870159912993,0.15665505435750668,-0.6224551828546301,-2.1077606274727887
1773062433076492544,1.1172544956207275,0.41045907139778137,0.2648557126522064,0.602635383605957,-0.5745354294776917,-0.15703223645687103,-0.8032745122909546,0.02405935525894165,-0.23505762219429016,0.1322692632675171,0.45189312819945554,-0.22672409285274014,-0.2167001077364401,-0.8351226778894567,0.15768487732304648,-0.6208822377219905,-2.098926616559844
1773062433086548480,1.1273105144500732,0.10797228664159775,0.188497394323349,0.5535580515861511,-0.5736126899719238,-0.15571582317352295,-0.8041896820068359,0.04111146926879883,-0.19712841510772705,0.14374351501464844,0.4548337325718447,-0.2258371142750736,-0.21657042387634134,-0.8337992244494407,0.15635207924439787,-0.6195834389285549,-2.09269642462645
1773062433096603648,1.1373655796051025,0.048151835799217224,0.10459183901548386,0.5429365634918213,-0.5732495784759521,-0.15307241678237915,-0.804955780506134,0.03177618980407715,-0.13158029317855835,0.12275058031082153,0.4573523085983234,-0.22566120117242144,-0.21586834022410034,-0.8326504778664493,0.15367658039880258,-0.6188341432416709,-2.0878081163734437
1773062433106658816,1.1474206447601318,0.2778368592262268,0.040669940412044525,0.5895480513572693,-0.5735399127006531,-0.15096382796764374,-0.805147111415863,0.014549434185028076,-0.058295220136642456,0.04959297180175781,0.4599411912200061,-0.2256537377519172,-0.21565440544391687,-0.8312807835902217,0.15154320297402582,-0.6189610826536383,-2.0823180087642617
1773062433116714752,1.1574766635894775,0.6960687637329102,0.07426678389310837,0.6562058925628662,-0.5741105675697327,-0.1513349413871765,-0.8046706318855286,0.008848726749420166,0.01156441867351532,-0.041566550731658936,0.4631532905439157,-0.22499858450814977,-0.2168878027305273,-0.8293518632656253,0.1519186248925159,-0.61971097969243,-2.0742508252114966
1773062433126769664,1.1675314903259277,0.972169041633606,0.21347354352474213,0.6732503175735474,-0.573966383934021,-0.15430603921413422,-0.8042090535163879,-0.013008654117584229,0.03991091251373291,-0.12593615055084229,0.46704705599865054,-0.22315418214151012,-0.21931184180167967,-0.8270256872184903,0.15492504834320686,-0.6198635013212844,-2.0637229867794376
1773062433136825600,1.1775875091552734,1.0950078964233398,0.24092994630336761,0.6949657201766968,-0.5731111168861389,-0.15882065892219543,-0.8039401173591614,-0.013238370418548584,0.03321029245853424,-0.19859284162521362,0.4713015690394445,-0.22045808795919497,-0.22232447997995397,-0.8245271605287308,0.15949603546289876,-0.6193166429824452,-2.0519105599303247
1773062433146880512,1.1876425743103027,1.0129725933074951,0.237677201628685,0.7622715830802917,-0.572393000125885,-0.1632927805185318,-0.8035557270050049,0.03542095422744751,-0.0349494069814682,-0.18020892143249512,0.47575204125328385,-0.21775564908850079,-0.225398813949838,-0.8218503202295082,0.16402732173900403,-0.6189501150387706,-2.039550005270231
1773062433156936704,1.1976985931396484,0.7622012495994568,0.22392968833446503,0.794467568397522,-0.571784496307373,-0.1659749150276184,-0.8034393191337585,0.08013111352920532,-0.11361187696456909,-0.14625245332717896,0.48021055218376735,-0.2155398535992844,-0.2276464502494636,-0.8192175593152025,0.16674655600198443,-0.6185160195692362,-2.0278099225018447
1773062433166991616,1.2077536582946777,0.6046460270881653,0.14799220860004425,0.7683456540107727,-0.57161545753479,-0.16690939664840698,-0.8033660054206848,0.07616263628005981,-0.16834141314029694,-0.03724062442779541,0.484380715190005,-0.2140505331047557,-0.22912738344378297,-0.8167363038857129,0.16769426485297176,-0.6184194249990567,-2.0172938159545972
1773062433177046528,1.217808485031128,0.42527925968170166,0.1432802826166153,0.6862323880195618,-0.5716762542724609,-0.1669159233570099,-0.8033214807510376,0.06107139587402344,-0.15037532150745392,0.0381237268447876,0.48809036033595804,-0.21303281821630993,-0.23012234001883813,-0.814511229032756,0.16770088376365827,-0.6184958615116193,-2.0081737018708625
1773062433187102464,1.2278645038604736,0.3104250729084015,0.15032082796096802,0.5873401761054993,-0.5715639591217041,-0.1661468744277954,-0.8035607933998108,0.0425722599029541,-0.04065549373626709,0.02475219964981079,0.4912527341285098,-0.21229076472499323,-0.23054770898784588,-0.8126815014249993,0.16692094215348846,-0.618262363733206,-2.000752157850119
1773062433197157632,1.237919569015503,0.30768680572509766,0.1670026034116745,0.4095270335674286,-0.5711104869842529,-0.1656952053308487,-0.8039763569831848,0.04137110710144043,0.0731811672449112,0.014684975147247314,0.4938313278312989,-0.21146904234252767,-0.23085206831100435,-0.8112452470323059,0.16646292462816706,-0.6176434192497902,-1.9947444256723659
1773062433207213568,1.2479755878448486,0.3403765857219696,0.15650489926338196,0.14705835282802582,-0.5702812075614929,-0.16673767566680908,-0.8043493628501892,0.05296248197555542,0.19688904285430908,0.000729978084564209,0.4954985671613322,-0.21032795753104322,-0.23148966107769095,-0.8103430541368895,0.167520094984794,-0.6167386463480043,-1.9905021040403277
1773062433217268736,1.258030652999878,0.38418078422546387,0.2075129598379135,-0.02028590440750122,-0.5689085125923157,-0.16932719945907593,-0.8047803640365601,0.024093449115753174,0.2714542746543884,-0.011412262916564941,0.49631149860086604,-0.20875925915700158,-0.23244225579377772,-0.8099784694919605,0.17014697510946844,-0.6153495610492784,-1.9879297615406222
1773062433227324672,1.2680866718292236,0.42206355929374695,0.212065190076828,-0.1278124451637268,-0.5670718550682068,-0.17304134368896484,-0.8052864074707031,-0.021963179111480713,0.27426815032958984,-0.058666229248046875,0.4966866972618043,-0.20679643775569426,-0.23364935758300784,-0.8099046925873924,0.17391676246524526,-0.6135302056882904,-1.986143712652668
1773062433237379584,1.2781414985656738,0.41745975613594055,0.22529444098472595,-0.2328440546989441,-0.5649814605712891,-0.17750103771686554,-0.8057849407196045,-0.06871604919433594,0.20052653551101685,-0.05650448799133301,0.49663634408958146,-0.2046378797426141,-0.23501247232381337,-0.8100894520007866,0.1784465773165254,-0.6115017913982007,-1.9851918930165886
1773062433247434496,1.2881965637207031,0.3980850875377655,0.24482937157154083,-0.24880322813987732,-0.5626161694526672,-0.18219344317913055,-0.8063923716545105,-0.09117716550827026,0.13904158771038055,-0.039326012134552,0.4963291056448383,-0.2023662360672877,-0.23632969077257437,-0.8104651387271181,0.18321677481505022,-0.6091775126225975,-1.9848740512933258
1773062433257490688,1.2982525825500488,0.37009286880493164,0.2585965692996979,-0.22238042950630188,-0.5601290464401245,-0.18667876720428467,-0.8070976138114929,-0.08263218402862549,0.09776578843593597,-0.02816849946975708,0.49604970036426527,-0.20008917525423192,-0.23751950828916016,-0.8108536301821593,0.18778038499721858,-0.6066905077949637,-1.98461341896924
1773062433267545600,1.3083076477050781,0.29801613092422485,0.24444204568862915,-0.14783327281475067,-0.5577087998390198,-0.19046275317668915,-0.8078891038894653,-0.08888238668441772,-0.002927139401435852,-0.004732966423034668,0.4959268232852151,-0.19798921745987738,-0.2384443442723626,-0.8111726888894655,0.19163350637218965,-0.6042054008186062,-1.9842300503689538
1773062433277601792,1.3183636665344238,0.15762147307395935,0.17264430224895477,-0.09297747910022736,-0.5557723045349121,-0.19299881160259247,-0.8086214065551758,-0.06083536148071289,-0.07872970402240753,0.02276325225830078,0.4959415889467491,-0.19641013888775333,-0.238981893392336,-0.8113893449615975,0.19421750532713333,-0.6021572384033941,-1.9838478169968792
1773062433287656448,1.328418493270874,-0.0003449611831456423,0.11205483973026276,-0.17372789978981018,-0.5544289350509644,-0.19434289634227753,-0.8092215061187744,-0.0037833452224731445,-0.06148596107959747,0.07301545143127441,0.49566436012438614,-0.1955124082431269,-0.2390902575654027,-0.8117435712075298,0.1955875270991412,-0.6006821132297596,-1.9844631081951276
1773062433297712640,1.3384745121002197,-0.10772175341844559,0.14265801012516022,-0.21501781046390533,-0.55299311876297,-0.1949445605278015,-0.8100587725639343,-0.01908940076828003,-0.027192890644073486,0.11149615049362183,0.4949341242820822,-0.19490676788507713,-0.2387089386469511,-0.81244672042652,0.19620093325435603,-0.598991985302936,-1.9865341936003913
1773062433307767552,1.348529577255249,-0.04018251970410347,0.16367219388484955,-0.17462435364723206,-0.551361620426178,-0.19537022709846497,-0.8110677599906921,-0.05136054754257202,0.0010647773742675781,0.10428065061569214,0.49422478600735403,-0.19425235558174378,-0.23818510718944993,-0.8131887122755111,0.19663493399076334,-0.5970379897614599,-1.9886944536789477
1773062433317822720,1.3585846424102783,0.09753485769033432,0.23246324062347412,-0.12933702766895294,-0.5494764447212219,-0.19640646874904633,-0.812096118927002,-0.059318721294403076,0.0052291154861450195,0.08361101150512695,0.4938792622286229,-0.19321044111096025,-0.23795307072484437,-0.813714508909769,0.19769165524073554,-0.5948583538050778,-1.9897967198958018
1773062433327878656,1.368640661239624,0.20458877086639404,0.26039424538612366,-0.16510899364948273,-0.5471152067184448,-0.19849297404289246,-0.8131822943687439,-0.0673714280128479,-0.02597905695438385,0.028285503387451172,0.4937361697879529,-0.19160922109430234,-0.23810659408221216,-0.814134901937013,0.1998200569486348,-0.5922419307906529,-1.990140015156834
1773062433337933568,1.3786954879760742,0.26023393869400024,0.22832897305488586,-0.16183890402317047,-0.5447462201118469,-0.2012930065393448,-0.8140839338302612,-0.07703417539596558,-0.07220552861690521,0.01591193675994873,0.49357516448124195,-0.1898190553105647,-0.23859330522841982,-0.8145093300518893,0.20267776513536737,-0.5897215499065616,-1.9902367475229095
1773062433347989504,1.38875150680542,0.24215222895145416,0.24203138053417206,-0.1543448120355606,-0.5425768494606018,-0.20430229604244232,-0.8147827982902527,-0.05559819936752319,-0.07511666417121887,-0.014471352100372314,0.49346363675258925,-0.18805070760316586,-0.23926040059831077,-0.8147914630295515,0.20575091248671404,-0.5874826841278967,-1.990054060173285
1773062433358044672,1.3988065719604492,0.08216895908117294,0.21842777729034424,-0.183603897690773,-0.5402564406394958,-0.20661450922489166,-0.8157410621643066,-0.055294156074523926,-0.07442188262939453,-0.08121633529663086,0.49320805277401947,-0.18644438452367626,-0.2395160992405078,-0.8152400897061942,0.2081135348528601,-0.5849658537082972,-1.9905655532197861
1773062433368100608,1.408862590789795,-0.15087784826755524,0.07899066060781479,-0.12088841199874878,-0.5386667847633362,-0.207194522023201,-0.8166447281837463,-0.04591268301010132,-0.08015899360179901,-0.12981218099594116,0.49272124765559144,-0.18570571858060905,-0.23914646735882913,-0.815811413730805,0.20870638318372192,-0.5831010954813635,-1.9920927406411129
1773062433378155776,1.4189176559448242,-0.34905245900154114,-0.05654719099402428,-0.09291696548461914,-0.538435161113739,-0.20563732087612152,-0.8171908259391785,0.043058574199676514,0.024774909019470215,-0.15374118089675903,0.4920771564394647,-0.1862057705996495,-0.23818479818540678,-0.8163672556452509,0.20711490885295902,-0.5825962773448972,-1.994391822134726
1773062433388211712,1.42897367477417,-0.43089649081230164,-0.05680810287594795,-0.1649453192949295,-0.5387138724327087,-0.20305484533309937,-0.8176527619361877,0.06671380996704102,0.12377020716667175,-0.11670386791229248,0.49111008089414204,-0.18730520612987162,-0.23683406869553872,-0.8170906388440795,0.20447676298212003,-0.582574366722367,-1.9977137886581344
1773062433398266624,1.4390285015106201,-0.4293161630630493,-0.016743240877985954,-0.23211024701595306,-0.5385714769363403,-0.20058245956897736,-0.8183565735816956,0.019528508186340332,0.14716142416000366,-0.07989782094955444,0.48982782307776984,-0.18826949133636606,-0.23532170914438907,-0.8180752382480619,0.20195242393062518,-0.5820577341462815,-2.001904164000904
1773062433408321536,1.4490835666656494,-0.4477301239967346,-0.006408706307411194,-0.22574904561042786,-0.5381751656532288,-0.19825711846351624,-0.8191835284233093,-0.017580389976501465,0.11131253838539124,-0.023147404193878174,0.48845568685881946,-0.18909862504114572,-0.2337733075722348,-0.8191476461823566,0.19957941478061264,-0.5812562144831008,-2.0063328535142353
1773062433418377728,1.4591395854949951,-0.46762552857398987,-0.032660286873579025,-0.26228949427604675,-0.5378731489181519,-0.1957549750804901,-0.819983184337616,-0.003478109836578369,0.0799560546875,0.023138761520385742,0.48699903857515325,-0.1900360309762137,-0.23215234473591198,-0.8202581512431141,0.19702726337522844,-0.5805510399329448,-2.0109942180677667
1773062433428432640,1.4691946506500244,-0.5081838369369507,-0.03625049814581871,-0.2357775866985321,-0.5376859307289124,-0.19316242635250092,-0.8207204937934875,0.015896379947662354,0.062379345297813416,0.007518589496612549,0.48542073884916054,-0.19107802808555668,-0.23049717372570905,-0.8214176682600575,0.1943842588235559,-0.5799793600663625,-2.0159370188487404
1773062433438488832,1.4792506694793701,-0.43721887469291687,-0.0972006693482399,-0.09018683433532715,-0.5378273129463196,-0.1900215744972229,-0.8213608264923096,0.02838212251663208,0.048297956585884094,-0.03921961784362793,0.4841928593145922,-0.19231119328533355,-0.22877063817177987,-0.8223367232170177,0.19118412780062533,-0.5797424025901985,-2.020120146244437
1773062433448543488,1.4893054962158203,-0.1763169914484024,-0.14359119534492493,0.09292805194854736,-0.5388794541358948,-0.18740205466747284,-0.8212730884552002,0.028411924839019775,-0.04645414650440216,-0.036347150802612305,0.48375910009994094,-0.19360417424795004,-0.22777376245419467,-0.8225653703738094,0.18851667501997177,-0.5806873992343692,-2.0218517493502612
1773062433458599680,1.499361515045166,0.07306354492902756,-0.08854018896818161,0.10606515407562256,-0.5400778651237488,-0.18644680082798004,-0.8207030296325684,0.02317112684249878,-0.15386997163295746,-0.02136850357055664,0.4840599624237136,-0.1943252987902516,-0.22778531913919284,-0.8222149612640866,0.18754428055628267,-0.5820255439274695,-2.0210915050625187
1773062433468654592,1.5094165802001953,0.12756620347499847,-0.0995294526219368,-0.006580965127795935,-0.5408785343170166,-0.18708159029483795,-0.8200309872627258,0.008621513843536377,-0.18550752103328705,0.038384318351745605,0.48427163745533885,-0.1944704065408542,-0.22839824122830063,-0.821885924765042,0.18819044390516065,-0.5830825208078723,-2.0200553873054075
1773062433478709760,1.5194716453552246,0.11129561811685562,-0.21638630330562592,0.003763018874451518,-0.5420904159545898,-0.18811601400375366,-0.8189935088157654,0.026709556579589844,-0.12096601724624634,0.17463010549545288,0.48417131335557045,-0.19478742300380414,-0.22926210989530788,-0.8216294070600327,0.1892435643337378,-0.5846941786729793,-2.019478332457186
1773062433488765696,1.5295276641845703,0.19312217831611633,-0.34339404106140137,0.07518237829208374,-0.5445433259010315,-0.18909290432929993,-0.817139208316803,0.067050039768219,0.03236988186836243,0.3014684319496155,0.4841449689454041,-0.19567326075851957,-0.23052630948334998,-0.821080597962738,0.19023830951724466,-0.5878194778634797,-2.0183145267362064
1773062433498820608,1.5395824909210205,0.4515412151813507,-0.36024171113967896,0.08860789984464645,-0.5476566553115845,-0.19108913838863373,-0.8145901560783386,0.05318033695220947,0.18086576461791992,0.3272396922111511,0.4843879246358872,-0.1965210481640666,-0.23256055022905223,-0.8201605650297611,0.19227161285387878,-0.5918990004214828,-2.015843828463249
1773062433508876544,1.5496385097503662,0.5708727836608887,-0.2169148027896881,0.08063032478094101,-0.5502126812934875,-0.19512337446212769,-0.8119069337844849,-0.01965731382369995,0.23447579145431519,0.22450459003448486,0.48491819991202895,-0.1964896930108423,-0.2354534434661412,-0.8190286498569297,0.196383241839409,-0.5955881685315781,-2.012013576591207
1773062433518931712,1.5596935749053955,0.43717917799949646,-0.13654381036758423,0.12100597470998764,-0.5517421960830688,-0.19862675666809082,-0.8100172877311707,-0.07455480098724365,0.18384096026420593,-0.018809616565704346,0.48563686788167093,-0.19606366175789022,-0.23780325885958248,-0.8180254607241048,0.1999565590430279,-0.5979616964828492,-2.0082721396381995
1773062433528987648,1.5697495937347412,0.28895723819732666,-0.2176894098520279,0.12200234830379486,-0.5532991290092468,-0.20078076422214508,-0.8084226250648499,-0.043166935443878174,0.004567980766296387,-0.13377708196640015,0.48608175929603514,-0.19608293566177107,-0.23945806241372475,-0.8172734782198093,0.20215485619292328,-0.600191646092519,-2.005728756546725
1773062433539042816,1.5798046588897705,0.050928182899951935,-0.28993430733680725,0.25084635615348816,-0.5558024048805237,-0.20111973583698273,-0.8066192269325256,0.04530435800552368,-0.17851895093917847,-0.12485355138778687,0.48677553496281795,-0.19694572032478114,-0.24062994498832865,-0.8163083159874368,0.2025008776876123,-0.6033402995839177,-2.0029773337218972
1773062433549097472,1.5898594856262207,-0.2259369045495987,-0.38525429368019104,0.1992870420217514,-0.5589541792869568,-0.19910377264022827,-0.8049396872520447,0.06421846151351929,-0.21672876179218292,-0.06894636154174805,0.48723469030743116,-0.19880321617085045,-0.24084730233398655,-0.8155196516358263,0.2004432943808796,-0.6069610666256108,-2.001543678808091
1773062433559153664,1.5999155044555664,-0.29427918791770935,-0.5575909614562988,0.1583782285451889,-0.5631617903709412,-0.19584719836711884,-0.8028030395507812,0.07900041341781616,-0.18223507702350616,0.00394439697265625,0.4871021105042738,-0.20165679746962137,-0.24069277490541266,-0.8149436676746994,0.19712130854711732,-0.6117281590695044,-2.0016932925464745
1773062433569208576,1.6099705696105957,-0.0010084209498018026,-0.6118386387825012,0.06544570624828339,-0.5682141184806824,-0.19378112256526947,-0.7997384667396545,0.09210938215255737,-0.0002648979425430298,0.04284149408340454,0.4866922129092788,-0.204671666816257,-0.24133021494730184,-0.8142481095752198,0.19501487673091533,-0.6177381746107293,-2.0017070869980125
1773062433579264768,1.6200265884399414,0.400302529335022,-0.43451225757598877,-0.04868832603096962,-0.5724585056304932,-0.19530273973941803,-0.7963341474533081,0.018167734146118164,0.18573546409606934,-0.039816975593566895,0.4862775997815934,-0.20636201141102908,-0.24340837637788426,-0.8134501964213857,0.19656612089558256,-0.6232766102731515,-2.0004933109754
1773062433589319680,1.6300816535949707,0.8693203926086426,-0.1750086396932602,-0.1185823604464531,-0.5747723579406738,-0.20096825063228607,-0.7932518720626831,-0.07096433639526367,0.23948144912719727,-0.2115851640701294,0.48621768383670544,-0.20594438837262133,-0.24690278853242575,-0.8125381311038059,0.20234624042665933,-0.6270311207665002,-1.9973141765902178
1773062433599375616,1.6401376724243164,1.0959069728851318,-0.14156998693943024,-0.19854164123535156,-0.575529932975769,-0.20985256135463715,-0.7903968095779419,-0.10344034433364868,0.09615933895111084,-0.19875413179397583,0.4864196842739055,-0.20385879902113285,-0.25148195397750683,-0.8115381898329938,0.21142415347489701,-0.6293718914350603,-1.9926166680705582
1773062433609430528,1.6501924991607666,0.8709306120872498,-0.2720114290714264,-0.2294577956199646,-0.576673686504364,-0.21916526556015015,-0.7870286107063293,-0.10778981447219849,-0.15047888457775116,-0.021000564098358154,0.4863112812161197,-0.20192679948234238,-0.2563420888622516,-0.8105649473198371,0.22095885049746036,-0.6323515882794704,-1.9882532486203568
1773062433619485696,1.660247564315796,0.47291937470436096,-0.33362337946891785,-0.17577406764030457,-0.5786999464035034,-0.22571219503879547,-0.7836838364601135,-0.08235657215118408,-0.24030648171901703,0.11867529153823853,0.48573028579926036,-0.20129303939427354,-0.2600753708735445,-0.8098814635906041,0.22767403292253066,-0.636058662700352,-1.9858732021840217
1773062433629541632,1.6703035831451416,0.17616815865039825,-0.222577303647995,-0.025958340615034103,-0.5807074308395386,-0.22866946458816528,-0.781338095664978,-0.1005517840385437,-0.11694212257862091,0.19393575191497803,0.485261486320608,-0.2015801060824584,-0.26210002410377986,-0.8094382785165928,0.23071071050862543,-0.6391488548953805,-1.9848341819583724
1773062433639596800,1.680358648300171,0.15476273000240326,0.02186891995370388,-0.03125350549817085,-0.5814781785011292,-0.23001858592033386,-0.7803682088851929,-0.12320321798324585,-0.054161086678504944,0.24834001064300537,0.485228623584291,-0.20158546581279932,-0.2630193724716971,-0.8091583916454438,0.23209678356210983,-0.6403790161981824,-1.9839657929070764
1773062433649652736,1.6904146671295166,0.09714148193597794,0.105449378490448,-0.07865481078624725,-0.5806928873062134,-0.23139140009880066,-0.7805471420288086,-0.08193528652191162,-0.08942463994026184,0.2443990707397461,0.48521700760884307,-0.20085601775160158,-0.26340709070620444,-0.8092206326295612,0.23350764833774956,-0.639621835644975,-1.9836796460287252
1773062433659707648,1.7004694938659668,0.051882658153772354,-0.004085104446858168,-0.04657118022441864,-0.5800880789756775,-0.23231275379657745,-0.7807230949401855,0.027567386627197266,-0.09332504868507385,0.23844105005264282,0.4851067825589288,-0.20036388359464474,-0.2636147860393142,-0.8093410169105086,0.23445482475103818,-0.6390149349613838,-1.9837727711340176
1773062433669763584,1.7105255126953125,0.15453366935253143,-0.10787302255630493,-0.015533899888396263,-0.580522894859314,-0.23311443626880646,-0.7801607847213745,0.08738934993743896,-0.03139667212963104,0.1484163999557495,0.4850055818120401,-0.20038278332369494,-0.2641331951828388,-0.8092280361669195,0.2352791325300855,-0.6397187226595995,-1.9834655403482204
1773062433679818752,1.7205805778503418,0.6275715231895447,0.015307234600186348,-0.03525806963443756,-0.5809310078620911,-0.23619979619979858,-0.7789279818534851,0.033537209033966064,0.11477035284042358,0.011288821697235107,0.48518275846938275,-0.1996834787030003,-0.26582421476097123,-0.8087407609335224,0.23845311388389304,-0.640813042106939,-1.9814021003554931
1773062433689873664,1.730635643005371,1.11030912399292,0.2122751772403717,0.017582790926098824,-0.5799686908721924,-0.24320179224014282,-0.7774890661239624,-0.05784869194030762,0.16344410181045532,-0.0911175012588501,0.48616367939064664,-0.19702425197672738,-0.2691410818124818,-0.807706236701912,0.24566538938601284,-0.6409046599069537,-1.9760512253789635
1773062433699929600,1.7406916618347168,1.3444830179214478,0.2922094464302063,0.12681207060813904,-0.578098714351654,-0.2525230646133423,-0.7759084701538086,-0.09743839502334595,0.13344347476959229,-0.0984811782836914,0.48802800112682043,-0.19300652388973905,-0.2734853635315678,-0.8060911310791163,0.25528695692494685,-0.6403323000530828,-1.9677364245155256
1773062433709984512,1.750746488571167,1.2982509136199951,0.3098328709602356,0.20975647866725922,-0.576248288154602,-0.26194116473197937,-0.774160623550415,-0.022689640522003174,0.09859585762023926,-0.08104866743087769,0.4904160349077351,-0.18876506061324214,-0.2780061745215365,-0.8040972487617444,0.26503306110714897,-0.6398768147932332,-1.9579922446983475
1773062433720040448,1.7608025074005127,1.1650803089141846,0.27481335401535034,0.23869732022285461,-0.5745237469673157,-0.2701801359653473,-0.772609293460846,0.07870465517044067,0.10349315404891968,-0.11439937353134155,0.49290006199429326,-0.184840513964907,-0.282009457457283,-0.8020935775346612,0.2735801327522149,-0.6394020619823675,-1.9484648839351821
1773062433730095616,1.770857572555542,0.9963349103927612,0.229054257273674,0.2654055953025818,-0.5732099413871765,-0.2771560251712799,-0.7711127400398254,0.126173198223114,0.0810348391532898,-0.12204521894454956,0.49528337364601244,-0.1814605019277022,-0.2855095779022047,-0.8001566511762762,0.28083292146111394,-0.6392342607612346,-1.9395776881330618
1773062433740151552,1.7809135913848877,0.8662562966346741,0.11106264591217041,0.339400976896286,-0.5727719068527222,-0.28264206647872925,-0.7694451212882996,0.10760772228240967,0.07652634382247925,-0.06739264726638794,0.4975419357314563,-0.17891409852976753,-0.2885605158926119,-0.7982322129249562,0.28654736869074265,-0.6399049061684121,-1.9313081041864493
1773062433750206720,1.790968656539917,0.6925350427627563,0.05918730050325394,0.3916143774986267,-0.5731562376022339,-0.28657060861587524,-0.7677038908004761,0.09609019756317139,0.08483415842056274,-0.023891568183898926,0.49989558908603815,-0.17712214203117577,-0.29116286757732146,-0.7962137372649847,0.2906453777963851,-0.6413119600758918,-1.9231760633248511
1773062433760262656,1.8010246753692627,0.4635612368583679,-0.08333149552345276,0.333874374628067,-0.5742689967155457,-0.2889192998409271,-0.7659900784492493,0.09631794691085815,0.028528064489364624,-0.04153555631637573,0.5018252250276259,-0.17624486066274375,-0.293159883301552,-0.7944598964129339,0.29309781162729287,-0.6433143008285255,-1.9165553860761289
1773062433770317824,1.811079740524292,0.3509882986545563,-0.22184590995311737,0.38937488198280334,-0.576428234577179,-0.2899210453033447,-0.763987123966217,0.06390076875686646,-0.05221155285835266,-0.01602691411972046,0.5033379057422217,-0.17636468879223297,-0.2947913436221082,-0.7928711418381055,0.2941443251281656,-0.6463748742834087,-1.9111667839054796
1773062433780372736,1.8211348056793213,0.35794365406036377,-0.2534805238246918,0.4296490550041199,-0.5793550610542297,-0.2900545001029968,-0.7617192268371582,0.027749836444854736,-0.02394089102745056,-0.0520930290222168,0.5050356395277703,-0.17700043660201123,-0.2963296173879178,-0.791074401290592,0.2942837770181712,-0.6502435414284844,-1.9053761954908368
1773062433790428928,1.831190824508667,0.3326348066329956,-0.3073160648345947,0.3754880726337433,-0.5826385021209717,-0.29044708609580994,-0.7590605616569519,0.02943110466003418,-0.038761287927627563,-0.1466248631477356,0.5065186031613804,-0.1777939700625773,-0.29809231375083517,-0.7892840213448042,0.29469404019730655,-0.6546566905779735,-1.8997868594297744
1773062433800483840,1.8412458896636963,0.20755384862422943,-0.4166220426559448,0.3888603448867798,-0.5865122675895691,-0.290296733379364,-0.7561291456222534,0.030604064464569092,-0.07527336478233337,-0.20306885242462158,0.5077283423343643,-0.17910487765216318,-0.2997613753128459,-0.7875764003591328,0.29453690074343525,-0.6597331153786233,-1.8948613118978233
1773062433810539776,1.851301670074463,0.12662969529628754,-0.5726816058158875,0.397910475730896,-0.5914222598075867,-0.2891773283481598,-0.7527258396148682,0.04999464750289917,-0.06752738356590271,-0.20615172386169434,0.5086829533695235,-0.18125269235153996,-0.30130473756749476,-0.7858781861655444,0.2933673408827822,-0.6659649671169103,-1.8905622243626339
1773062433820594688,1.8613567352294922,0.12445362657308578,-0.7175291180610657,0.36069172620773315,-0.5974061489105225,-0.2878270149230957,-0.7485061287879944,0.042138874530792236,-0.10646006464958191,-0.18801724910736084,0.5093204180670532,-0.18406715718378724,-0.30309439098044316,-0.7841209900219508,0.29195706824536977,-0.6736004399933462,-1.8866169514694329
1773062433830650880,1.871412754058838,0.17886146903038025,-0.8224387168884277,0.3595527112483978,-0.604292631149292,-0.28679731488227844,-0.7433556914329529,-0.008149325847625732,-0.10846632719039917,-0.18006038665771484,0.5096822065933163,-0.18729818512308066,-0.30535477969663516,-0.7822415714965271,0.29088201673284236,-0.6825726793347273,-1.8826837927322382
1773062433840705792,1.8814678192138672,0.1445530354976654,-0.8858262300491333,0.34343579411506653,-0.6116748452186584,-0.2859100103378296,-0.7376376986503601,-0.021000266075134277,-0.08129271864891052,-0.2509182095527649,0.5099012520631637,-0.19076761169944817,-0.3078780268110737,-0.7802688790480043,0.2899559327027289,-0.6923145982611424,-1.8787141425003329
1773062433850760960,1.8915228843688965,0.031060831621289253,-1.0304867029190063,0.3643892705440521,-0.6196802258491516,-0.284392774105072,-0.7315170168876648,0.01857548952102661,-0.05525258183479309,-0.30324244499206543,0.5099037319734872,-0.19479247012569118,-0.3103182097727756,-0.7783036495877949,0.28837299052210785,-0.7028177259885684,-1.8752583236021074
1773062433860816640,1.901578664779663,-0.03383481130003929,-1.2163820266723633,0.38094186782836914,-0.628993570804596,-0.2820029854774475,-0.7244594097137451,0.03467899560928345,-0.10674518346786499,-0.22187542915344238,0.5095807195995827,-0.1998018504211967,-0.3128090589427631,-0.7762456123939813,0.28588118096752674,-0.7149797385125799,-1.8723568340638503
1773062433870871808,1.9116337299346924,-0.010940346866846085,-1.350447177886963,0.4040134847164154,-0.6394190192222595,-0.27929913997650146,-0.7163346409797668,-0.0030980706214904785,-0.11182940006256104,-0.20384657382965088,0.5090609738586516,-0.20550108261771927,-0.31559780384267133,-0.7739665941757348,0.28306413710853573,-0.7287261391284867,-1.8694341960410499
1773062433880927744,1.921689748764038,0.035146985203027725,-1.4272359609603882,0.42616432905197144,-0.6505675911903381,-0.2767159938812256,-0.7072411775588989,-0.00026553869247436523,-0.059480905532836914,-0.23756778240203857,0.508459674058743,-0.21154723301450873,-0.31879019023332567,-0.7714203213180763,0.28037496124543804,-0.7436833728911642,-1.8661184215127151
1773062433890982912,1.9317448139190674,-0.028576700016856194,-1.462827205657959,0.42967039346694946,-0.6619137525558472,-0.273960679769516,-0.6977218389511108,0.019793391227722168,-0.042735517024993896,-0.28137362003326416,0.5078162354898716,-0.21777864653551612,-0.3220427818517268,-0.768754587175853,0.277508856701876,-0.7590677503036567,-1.8627612917903642
1773062433901038848,1.941800832748413,-0.07908407598733902,-1.5785208940505981,0.4226870536804199,-0.6736900210380554,-0.27067655324935913,-0.687659740447998,0.01595991849899292,-0.08228975534439087,-0.24439287185668945,0.5069213282421211,-0.22450073585526728,-0.32522228998350583,-0.7660682990312575,0.2740957473979907,-0.775136841077952,-1.8599776635698735
1773062433911093760,1.9518556594848633,-0.07306477427482605,-1.594923973083496,0.39411693811416626,-0.6856804490089417,-0.2673092484474182,-0.677043616771698,-0.01388925313949585,-0.1253451704978943,-0.15019631385803223,0.5058059198101131,-0.23147766080525148,-0.3284756811616446,-0.7633362692893558,0.2705995937798844,-0.791735999157343,-1.8575290966474642
1773062433921148672,1.9619107246398926,-0.03370591253042221,-1.6548538208007812,0.3793095052242279,-0.6976457834243774,-0.264259397983551,-0.665925920009613,-0.016831696033477783,-0.06807699799537659,-0.15127378702163696,0.5045101632686716,-0.23846870968826667,-0.3319182547707834,-0.7605474571219843,0.2674359376831738,-0.8086563420850531,-1.855187829431272
1773062433931204864,1.9719667434692383,0.11329654604196548,-1.670852780342102,0.4086907207965851,-0.7097723484039307,-0.26166051626205444,-0.6540313959121704,0.03754633665084839,-0.025906622409820557,-0.1637786626815796,0.5032754067293951,-0.245418136490872,-0.3357889839524588,-0.7574494085116313,0.26474225287661973,-0.8262470911427987,-1.852081541692415
1773062433941259776,1.9820218086242676,0.23188738524913788,-1.655595302581787,0.3355526030063629,-0.7215725183486938,-0.2601604163646698,-0.6415992975234985,0.07420313358306885,-0.0462055504322052,-0.17778241634368896,0.5020946128445513,-0.2519061023835286,-0.34021121684726185,-0.754122411423947,0.2631883325097217,-0.8439980141461363,-1.8480765297282575
1773062433951315968,1.9920778274536133,0.19846853613853455,-1.5941070318222046,0.2998035252094269,-0.7328110933303833,-0.2592974007129669,-0.629088819026947,0.10248583555221558,-0.030528008937835693,-0.17497307062149048,0.5007688914191408,-0.2580477803300549,-0.34477085626296555,-0.75084943144263,0.26229465117683876,-0.8614114235122622,-1.844148212076432
1773062433961370880,2.0021328926086426,0.06049468368291855,-1.5779366493225098,0.27399298548698425,-0.7434375286102295,-0.2580292820930481,-0.6170263886451721,0.1366565227508545,-0.013409316539764404,-0.18755435943603516,0.4992493469675659,-0.26415812897698693,-0.34886573653433656,-0.7478390313545554,0.26098185451929523,-0.8780498077820638,-1.8412112751096554
1773062433971426816,2.012188673019409,-0.010699397884309292,-1.60075044631958,0.2645886540412903,-0.7539282441139221,-0.2561146318912506,-0.6049773693084717,0.13091188669204712,-0.10440477728843689,-0.14003300666809082,0.497496298392457,-0.27055881126196224,-0.3525751608016286,-0.7449740002254258,0.2590006290920493,-0.8945732235029762,-1.8392312582947832
1773062433981481728,2.0222437381744385,-0.05303939804434776,-1.6007225513458252,0.18095844984054565,-0.7641260623931885,-0.254183292388916,-0.5928762555122375,0.14246779680252075,-0.14452886581420898,-0.09297579526901245,0.49543136407917526,-0.2770261512063575,-0.35611570331627534,-0.7422842780137,0.2570031618984086,-0.9109317376701072,-1.8381023065234907
1773062433991537920,2.032299757003784,0.01027672365307808,-1.5703214406967163,0.15416426956653595,-0.773893415927887,-0.25275564193725586,-0.5806923508644104,0.17515379190444946,-0.05527353286743164,-0.07149875164031982,0.4931611947775763,-0.2832874707570504,-0.35972493516276655,-0.739687990816239,0.25552733264729455,-0.927070082664165,-1.837269255703557
1773062434001592832,2.0423548221588135,0.14196310937404633,-1.556613802909851,0.1605348289012909,-0.7833170890808105,-0.2519504725933075,-0.5682740807533264,0.17948096990585327,0.003644198179244995,-0.06237173080444336,0.4909791405706388,-0.2892052502115157,-0.3636252155608875,-0.7369372948065049,0.2546952225409436,-0.943179276886673,-1.8357667481230249
1773062434011648000,2.0524098873138428,0.301806777715683,-1.4535558223724365,0.21077221632003784,-0.7923347353935242,-0.251726359128952,-0.5557332634925842,0.17682570219039917,0.046617746353149414,-0.087516188621521,0.48923104569473114,-0.2945837425443615,-0.36790457094178663,-0.7338389330724913,0.2544636547910811,-0.9591400776108245,-1.8327173106658117
1773062434021703680,2.0624656677246094,0.35992202162742615,-1.3412500619888306,0.1695677936077118,-0.800516664981842,-0.2520463764667511,-0.5437330007553101,0.20688879489898682,0.040712177753448486,-0.11483627557754517,0.4878673589677369,-0.2992315996359613,-0.37228208692735426,-0.7306516296563229,0.25479431196962565,-0.9741480490006907,-1.8286604736043568
1773062434031758848,2.0725207328796387,0.3231896460056305,-1.314665675163269,0.15982216596603394,-0.808082640171051,-0.25259530544281006,-0.5321635007858276,0.2291337251663208,-0.006453096866607666,-0.08995252847671509,0.4864914293860628,-0.3035438833814476,-0.37653601580778223,-0.7276041232382919,0.25536162139405943,-0.9884334634385894,-1.824758024014285
1773062434041814784,2.0825767517089844,0.2508166432380676,-1.318915843963623,0.13454610109329224,-0.8154269456863403,-0.25288617610931396,-0.5206990242004395,0.25054657459259033,-0.026548057794570923,-0.03490400314331055,0.4849872048145423,-0.3079264328362952,-0.3805677313066806,-0.7246632811542336,0.25566222266121497,-1.0025053575350718,-1.8213817910824361
1773062434051869952,2.0926318168640137,0.24861493706703186,-1.2910007238388062,0.1204361543059349,-0.8225123286247253,-0.2531305253505707,-0.5093116164207458,0.24881243705749512,0.007998108863830566,-0.010570526123046875,0.48329964548313004,-0.31232664594529663,-0.38444279053272634,-0.7218567265024916,0.25591479249083354,-1.0163681350764437,-1.8185604971241653
1773062434061925888,2.1026878356933594,0.3631020784378052,-1.220777153968811,0.10948257148265839,-0.8291792869567871,-0.2536890506744385,-0.49810001254081726,0.2535262107849121,0.026699334383010864,-0.02559688687324524,0.48176685163543564,-0.3163707219059329,-0.3884064419622668,-0.7189928426929924,0.2564921751190738,-1.029851628312689,-1.815221972226127
1773062434071980800,2.1127426624298096,0.42654484510421753,-1.1337233781814575,0.09429171681404114,-0.8352721333503723,-0.254830002784729,-0.4872187077999115,0.2314666509628296,0.03455415368080139,-0.0006962716579437256,0.48044512558774827,-0.3198563871521726,-0.392533483042153,-0.7160877973241525,0.2576718850902069,-1.042742736893706,-1.8111419649708065
1773062434082035712,2.122797727584839,0.5012220144271851,-1.0636405944824219,0.12054995447397232,-0.8408634066581726,-0.25617051124572754,-0.4767863154411316,0.20985156297683716,0.06751087307929993,0.009196043014526367,0.4793846629387102,-0.32290243529990525,-0.39666214410404305,-0.71315030361045,0.25905842226538484,-1.0549799658985668,-1.8064615806602105
1773062434092091904,2.1328537464141846,0.5754194259643555,-0.9240508079528809,0.16366562247276306,-0.8459750413894653,-0.2575259804725647,-0.4669117033481598,0.2371036410331726,0.08255347609519958,-0.0359417200088501,0.4787880985030029,-0.3254538737640619,-0.4007791442976095,-0.710082951811636,0.26046096122841295,-1.0664791807961702,-1.800783459307901
1773062434102146816,2.142908811569214,0.5553762316703796,-0.7645551562309265,0.15230217576026917,-0.8503018021583557,-0.2588294744491577,-0.4582512378692627,0.2399044632911682,0.07987439632415771,-0.0664680004119873,0.4785906438255014,-0.327396842885904,-0.4045808814133371,-0.7071609610033155,0.2618101889119658,-1.0764935985873467,-1.794763136961114
1773062434112203008,2.1529648303985596,0.4844438433647156,-0.6328578591346741,0.19983652234077454,-0.8539591431617737,-0.2597356140613556,-0.4508782923221588,0.22876077890396118,0.07252553105354309,-0.0399511456489563,0.47862600454485,-0.3289868243347313,-0.40783393496325776,-0.7045256082729486,0.2627483998346878,-1.0850115431433003,-1.7891385186195248
1773062434122257664,2.1630196571350098,0.38453856110572815,-0.51235431432724,0.21272942423820496,-0.857075572013855,-0.25990310311317444,-0.4448278844356537,0.24988263845443726,0.06475844979286194,-0.0169793963432312,0.4789230958963284,-0.3303795237548094,-0.41040886054026876,-0.7021728033536371,0.2629218650375427,-1.0920593263639593,-1.7840782515655078
1773062434132313856,2.1730756759643555,0.29310551285743713,-0.4069937765598297,0.1808968186378479,-0.8596444725990295,-0.2596815526485443,-0.43997371196746826,0.26166778802871704,0.04529556632041931,-0.05309879779815674,0.47922851638358255,-0.3316067624205235,-0.4123713133058407,-0.7002334476059854,0.2626924144240818,-1.097746275016856,-1.780024868325683
1773062434142368768,2.1831307411193848,0.2646546959877014,-0.30265724658966064,0.13556529581546783,-0.8616259098052979,-0.25951769948005676,-0.4361782670021057,0.26485466957092285,0.03322985768318176,-0.06003755331039429,0.4795044517398138,-0.3325266748538208,-0.41392859807331245,-0.698687833509618,0.262522768061305,-1.1021795725726924,-1.7767321208453084
1773062434152423936,2.193185806274414,0.2268415242433548,-0.14882640540599823,0.11849682778120041,-0.8629245758056641,-0.25953423976898193,-0.43359339237213135,0.24752235412597656,0.07795467972755432,-0.004944205284118652,0.479888341820936,-0.33296815879527747,-0.4151331209925325,-0.6974983440742855,0.2625398997770022,-1.1051749612242694,-1.7738419580119364
1773062434162479872,2.2032418251037598,0.21281704306602478,0.003021715674549341,0.12793587148189545,-0.8635731339454651,-0.25942379236221313,-0.43236637115478516,0.20434772968292236,0.1332031488418579,0.014733344316482544,0.4805227487230774,-0.33296250895619295,-0.41587592886880387,-0.6966211391269737,0.2624255354953603,-1.1066117521583065,-1.7712427200272445
1773062434172535040,2.213296890258789,0.15563179552555084,0.17374683916568756,0.15933746099472046,-0.8635497093200684,-0.25901076197624207,-0.432660847902298,0.16349172592163086,0.10649916529655457,-0.007463693618774414,0.4815243526174347,-0.3324868067486791,-0.41607944227506466,-0.6960350607454121,0.26199788234496046,-1.1063282720182492,-1.768826465748639
1773062434182590720,2.2233526706695557,0.08903971314430237,0.288532555103302,0.2075689136981964,-0.8629900813102722,-0.25794246792793274,-0.4344121515750885,0.16451901197433472,0.12021663784980774,-0.02486211061477661,0.48286023364647307,-0.33174932362605425,-0.41561557146663186,-0.6957386010015586,0.2608920116891256,-1.104448174314879,-1.7668620844544394
1773062434192645888,2.233407735824585,0.1944568157196045,0.43542593717575073,0.23528169095516205,-0.8620314002037048,-0.256544291973114,-0.43713489174842834,0.20091384649276733,0.1383039355278015,-0.05044442415237427,0.48459314350591204,-0.33068125095008116,-0.41482822718793516,-0.6955120249342293,0.25944514578068917,-1.1014859893168665,-1.7646284510090797
1773062434202701824,2.2434637546539307,0.2747010588645935,0.699298620223999,0.16653618216514587,-0.8600281476974487,-0.2558519244194031,-0.44146522879600525,0.18893134593963623,0.08850875496864319,-0.11023157835006714,0.4869184872530701,-0.3285009993818045,-0.4139498526268239,-0.6954445559265957,0.25872885580068267,-1.0965536534517026,-1.7613642713434896
1773062434212756992,2.25351881980896,0.1715950071811676,0.8236084580421448,0.09973324835300446,-0.8568963408470154,-0.25579309463500977,-0.44754743576049805,0.17165464162826538,0.07627341151237488,-0.12868547439575195,0.48934379466748534,-0.3254938214839101,-0.41265004180457904,-0.6959285169063649,0.25866800717323707,-1.089477022082363,-1.7586369171368919
1773062434222812928,2.2635748386383057,0.013116685673594475,0.9041770696640015,0.062052708119153976,-0.8531823754310608,-0.2555007338523865,-0.4547519385814667,0.1843591332435608,0.05207052826881409,-0.05319786071777344,0.49158296982173894,-0.32240214397512773,-0.4107077808706169,-0.6969377980101149,0.25836560473368025,-1.081093309952678,-1.75736415400639
1773062434232867840,2.273629665374756,-0.017702478915452957,0.9378243088722229,0.026515644043684006,-0.8490610718727112,-0.25507020950317383,-0.46263864636421204,0.14686691761016846,0.04083681106567383,-0.015526056289672852,0.4935914742411909,-0.31931175806492834,-0.40831444370149855,-0.6983457751412632,0.25792031491039413,-1.0718904937303704,-1.757302796630267
1773062434242922752,2.283684730529785,0.10252033174037933,1.0180743932724,0.021874554455280304,-0.8445566296577454,-0.25501418113708496,-0.47084158658981323,0.08700358867645264,0.08403947949409485,0.03846853971481323,0.4957339873341924,-0.31585353114988485,-0.4059750680439576,-0.6997632378002211,0.2578623839030853,-1.0622120750833643,-1.7568478634636069
1773062434252978688,2.293740749359131,0.2530035078525543,1.1422847509384155,-0.004391388967633247,-0.8394066095352173,-0.2558167278766632,-0.4795354902744293,0.02547234296798706,0.1296418011188507,0.06309258937835693,0.4982574194204677,-0.3116012454155634,-0.4039021223584525,-0.7010757768140855,0.25869244405001235,-1.0517628844166294,-1.7551432642383196
1773062434263033856,2.30379581451416,0.26954522728919983,1.1947474479675293,-0.05267662927508354,-0.8336338400840759,-0.2573736011981964,-0.48868536949157715,0.017563343048095703,0.1001623272895813,-0.00028249621391296387,0.5009609090477382,-0.3067264899301288,-0.40196538480469146,-0.7024106781074845,0.26030324664297166,-1.0405774388006588,-1.7528219475594813
1773062434273089792,2.313851833343506,0.16830763220787048,1.2285757064819336,-0.030398447066545486,-0.8275110125541687,-0.2588420510292053,-0.49822309613227844,0.05430245399475098,0.06182059645652771,-0.020239979028701782,0.5035991602666093,-0.3017885650250283,-0.3997650776043135,-0.7039171363435758,0.26182319542045746,-1.0288530161650111,-1.7510311816022477
1773062434283144704,2.323906660079956,0.07504160702228546,1.2217826843261719,-0.041996248066425323,-0.8211997151374817,-0.25979048013687134,-0.5080747008323669,0.08124005794525146,0.06481370329856873,-0.05822473764419556,0.5060838744118513,-0.29706021986473147,-0.3971371135299455,-0.7056319459840205,0.2628052419171746,-1.0167415915962137,-1.7502067586516996
1773062434293200640,2.3339626789093018,0.06154720485210419,1.2373934984207153,-0.04987705498933792,-0.814754843711853,-0.2604721784591675,-0.5180045366287231,0.0805019736289978,0.04872599244117737,-0.04815751314163208,0.5084720619036871,-0.2924496540155147,-0.39429803362941346,-0.707430799141949,0.2635112416370027,-1.0044829101171688,-1.749870580765978
1773062434303255808,2.344017744064331,0.03859315067529678,1.2784427404403687,-0.12282875180244446,-0.8079010844230652,-0.26138538122177124,-0.528179407119751,0.058084189891815186,0.05310291051864624,-0.023883581161499023,0.5107696378309454,-0.28765738588538864,-0.39136113242322407,-0.7093687109574001,0.2644571886589869,-0.991777223133684,-1.7498444439802787
1773062434313310976,2.3540728092193604,-0.032944049686193466,1.250230312347412,-0.14733552932739258,-0.8007172346115112,-0.2626397907733917,-0.5383977890014648,0.023159921169281006,0.06181889772415161,-0.01337522268295288,0.5127038895235276,-0.28283380057623814,-0.38833766048921353,-0.7115711610577665,0.26575701302290006,-0.9788388127170912,-1.7507040727028667
1773062434323366912,2.364128828048706,-0.07256629317998886,1.2777620553970337,-0.09914056211709976,-0.7935185432434082,-0.2632633149623871,-0.5486535429954529,-0.0007014274597167969,0.09729346632957458,0.002983987331390381,0.5146779091021118,-0.27822550527594725,-0.3850503770762188,-0.7137460340406849,0.26640329204996493,-0.9658528823963964,-1.751820027381899
1773062434333421824,2.3741836547851562,-0.11918632686138153,1.2329635620117188,-0.12101399898529053,-0.7861998081207275,-0.26357242465019226,-0.5589450001716614,0.004797220230102539,0.06342285871505737,-0.03231775760650635,0.516576195437447,-0.27373956305412545,-0.3815679974513994,-0.7159760484325711,0.26672370188245714,-0.9527622706664919,-1.7533373907409768
1773062434343477760,2.384239673614502,-0.03548290953040123,1.2153842449188232,-0.2184702455997467,-0.7788752317428589,-0.26435574889183044,-0.5687436461448669,0.028982102870941162,-0.0016659200191497803,-0.03211694955825806,0.5182141658476107,-0.26926212201009864,-0.3783200875015987,-0.7182101502053976,0.2675358589170558,-0.9400806195918154,-1.7550085523107815
1773062434353532672,2.3942947387695312,0.11052776128053665,1.2965444326400757,-0.3196570575237274,-0.7708969116210938,-0.2667246460914612,-0.578425407409668,-0.01256561279296875,0.02133280038833618,-0.006352424621582031,0.5196241701183768,-0.26411076893799235,-0.37554335195805055,-0.7205577130008677,0.26999294718222083,-0.9270854559537657,-1.7564647435899918
1773062434363588864,2.404350757598877,0.20749212801456451,1.3620072603225708,-0.3321850895881653,-0.7622178196907043,-0.27023187279701233,-0.5882164835929871,-0.07169026136398315,0.11289849877357483,0.007619619369506836,0.5211618436032749,-0.25823147064897506,-0.37310623138723453,-0.7228405853466119,0.2736338582746406,-0.9135405683199688,-1.7571291395238882
1773062434373643776,2.4144058227539062,0.18128855526447296,1.3599278926849365,-0.3455159366130829,-0.7531362175941467,-0.2740101218223572,-0.5980837941169739,-0.04579871892929077,0.11422011256217957,-0.001144111156463623,0.5227281657277778,-0.25210214161913747,-0.3706785735853508,-0.7251186725051599,0.2775602883490375,-0.8996483697166184,-1.757699590471535
1773062434383698944,2.4244608879089355,0.10271730273962021,1.3280243873596191,-0.3721350431442261,-0.7439760565757751,-0.27755671739578247,-0.607833743095398,-0.012814044952392578,0.04978877305984497,-0.012039244174957275,0.52411727474661,-0.24613908910569868,-0.3681014329996091,-0.7274736784768256,0.281249956496633,-0.8857708511136663,-1.7588530410673435
1773062434393754624,2.434516668319702,0.06260810792446136,1.2614123821258545,-0.4127570688724518,-0.7349165678024292,-0.2809654176235199,-0.6172163486480713,-0.0026779770851135254,0.015370935201644897,0.01783585548400879,0.5251541979842725,-0.2404744962232775,-0.3654638729491218,-0.7299460377119994,0.2847999127135968,-0.872227123873497,-1.7608463544999466
1773062434403809792,2.4445717334747314,0.03825829178094864,1.2170523405075073,-0.4879753887653351,-0.7258725166320801,-0.28455525636672974,-0.6262086629867554,-0.0075563788414001465,0.01598536968231201,0.048785626888275146,0.5258359821321397,-0.23496021270230738,-0.36289030528264943,-0.7325303698655395,0.28854248879298283,-0.8589765671059255,-1.7635192567637816
1773062434413865728,2.454627752304077,0.09077665954828262,1.1591321229934692,-0.49232834577560425,-0.7168973684310913,-0.28855788707733154,-0.6346593499183655,-0.046347200870513916,0.01730242371559143,0.06323295831680298,0.5262227734807174,-0.22950870780224922,-0.3605497000296589,-0.7351320760392416,0.29272030710590735,-0.8461701256959636,-1.766501859583274
1773062434423920896,2.4646828174591064,0.1972983181476593,1.1528468132019043,-0.4355417490005493,-0.7081652879714966,-0.2927874028682709,-0.6424775123596191,-0.06737786531448364,0.04702937602996826,0.06540542840957642,0.5267533342030478,-0.2240393502861181,-0.35856324792700645,-0.7374073456272104,0.2971406869699577,-0.8339943175103742,-1.7686234525184414
1773062434433976832,2.474738836288452,0.2677534520626068,1.2176918983459473,-0.41831523180007935,-0.6992120146751404,-0.2973521053791046,-0.650141716003418,-0.05959230661392212,0.086139976978302,0.03252696990966797,0.5275589076728433,-0.21825128440348407,-0.3567849797121489,-0.7394270586462376,0.3019181261915701,-0.8217479167423543,-1.7698227707034753
1773062434444031744,2.4847936630249023,0.2016729861497879,1.3211461305618286,-0.3900279104709625,-0.6896281242370605,-0.3017981946468353,-0.65827876329422,-0.06417131423950195,0.10111460089683533,0.01791316270828247,0.5285898601112782,-0.21214159352517897,-0.35476267736269923,-0.7414393123684596,0.30657824064782085,-0.8086517851786319,-1.7708678722111537
1773062434454087680,2.494849681854248,0.025335002690553665,1.351616621017456,-0.3032548427581787,-0.6795766353607178,-0.3049737513065338,-0.6672081351280212,-0.07236123085021973,0.09135067462921143,0.0027794241905212402,0.5297878474456923,-0.2061867830273518,-0.3519700838046886,-0.7435919560192135,0.30991085793395173,-0.7945816084576953,-1.7725955816149848
1773062434464142848,2.5049047470092773,-0.01592428609728813,1.3340625762939453,-0.21303121745586395,-0.6697852611541748,-0.3066110908985138,-0.6762967705726624,-0.04360896348953247,0.033707648515701294,-0.03180253505706787,0.531192741631618,-0.2007703610117656,-0.34862998442322224,-0.7456424231389441,0.3116305899133058,-0.7805607836127902,-1.7745307090161417
1773062434474197760,2.5149598121643066,0.07864885777235031,1.4162927865982056,-0.2777988612651825,-0.659625232219696,-0.30839598178863525,-0.6854097247123718,-0.017529308795928955,-0.007247298955917358,-0.0372617244720459,0.5327217909127913,-0.1951154387165704,-0.3452898876858297,-0.7476043803436988,0.3135063542085114,-0.7662303695382919,-1.7761397093533813
1773062434484253952,2.5250158309936523,0.14638955891132355,1.4894416332244873,-0.32562577724456787,-0.648584246635437,-0.3112557530403137,-0.6945922374725342,-0.05621922016143799,0.03037196397781372,0.01452326774597168,0.5341968834945644,-0.1887886226752212,-0.3421443222188516,-0.7496198299993736,0.31651413495771535,-0.7511584299219148,-1.7776096470694338
1773062434494308608,2.5350706577301025,0.06570882350206375,1.5139389038085938,-0.30221647024154663,-0.636967658996582,-0.31410500407218933,-0.7039960026741028,-0.09923839569091797,0.02620217204093933,0.06115841865539551,0.5356866634506597,-0.18224240860720967,-0.3388063067013511,-0.7516900565019169,0.31951380300120297,-0.7354545354108794,-1.7792791797861724
1773062434504364800,2.5451266765594482,-0.058642685413360596,1.466542363166809,-0.2682419717311859,-0.6254438757896423,-0.3159324824810028,-0.7134469747543335,-0.10687112808227539,-0.042191267013549805,0.05506080389022827,0.5371427945867643,-0.17610886371684983,-0.335055509791635,-0.7537910718570843,0.32143932154560545,-0.7197642388825413,-1.7814944006164175
1773062434514419712,2.5551817417144775,-0.12048541009426117,1.4827255010604858,-0.26355603337287903,-0.6140311360359192,-0.3168938159942627,-0.7228720784187317,-0.06637352705001831,-0.054917097091674805,0.061251044273376465,0.5385071046163826,-0.17036754558030198,-0.330966540708914,-0.7559405833530342,0.3224527110792486,-0.7041645880734971,-1.7842757969849428
1773062434524475904,2.5652377605438232,-0.1671338826417923,1.5878647565841675,-0.26013171672821045,-0.6019445657730103,-0.3174724280834198,-0.7327167987823486,-0.04766780138015747,0.013639450073242188,0.03612256050109863,0.5399203361708286,-0.16446744519475293,-0.326484388346173,-0.7581849053687111,0.3230628365842414,-0.6877283547520556,-1.787391290905553
1773062434534530816,2.5752928256988525,-0.28784725069999695,1.6293224096298218,-0.268682062625885,-0.5890575051307678,-0.31739675998687744,-0.7431490421295166,-0.0603107213973999,0.0007158815860748291,0.010711967945098877,0.54138805013364,-0.15844157244203977,-0.3214370121802405,-0.7605743553324807,0.3229830238229175,-0.6702434934047611,-1.7910217564903204
1773062434544585984,2.585347890853882,-0.2928909957408905,1.472474455833435,-0.23107396066188812,-0.5765990614891052,-0.3165229260921478,-0.7532241940498352,-0.046844482421875,-0.045034050941467285,0.03688514232635498,0.5426551318905672,-0.1529584172809343,-0.3162145216021198,-0.7629793019369989,0.3220617003794626,-0.6533525159646538,-1.795182201777505
1773062434554641664,2.5954036712646484,-0.0666368305683136,1.5643905401229858,-0.3367026746273041,-0.5642837285995483,-0.31665968894958496,-0.7624372243881226,-0.01368868350982666,-0.09158924221992493,0.05502450466156006,0.5438755273675796,-0.14725336182741997,-0.3116052398072615,-0.7651262370943261,0.322205876339145,-0.6371382856706131,-1.7985856349854703
1773062434564696832,2.6054587364196777,0.06999532133340836,1.6588221788406372,-0.4748557507991791,-0.550478994846344,-0.31914055347442627,-0.771441638469696,-0.1089906096458435,-0.07510074973106384,0.059069812297821045,0.5447827475934288,-0.14032976819305118,-0.3075495858654134,-0.767419401396291,0.3248224915316397,-0.6197766054502131,-1.8020904665155606
1773062434574752768,2.6155147552490234,-0.03580009192228317,1.65926992893219,-0.4447641670703888,-0.5359797477722168,-0.32186877727508545,-0.7804653644561768,-0.1273503303527832,0.02064502239227295,0.11145901679992676,0.5455776688952764,-0.13310440636553464,-0.303398325456326,-0.7697906003646313,0.3277026393395737,-0.601773676540498,-1.8059447454142903
1773062434584807936,2.6255698204040527,-0.19921286404132843,1.6097551584243774,-0.4291802644729614,-0.5216871500015259,-0.32325056195259094,-0.7895261645317078,-0.10558640956878662,-0.027121752500534058,0.15242594480514526,0.5462917251684724,-0.12644114000295414,-0.2987466515003107,-0.7722229815221404,0.3291624561369397,-0.5839020894662809,-1.8104593436397216
1773062434594863872,2.6356258392333984,-0.34995511174201965,1.667934775352478,-0.41326218843460083,-0.5072810649871826,-0.32325565814971924,-0.7988565564155579,-0.12438702583312988,-0.07937800884246826,0.19419646263122559,0.5468953226662492,-0.12022108069454387,-0.2934597549794003,-0.7748121230339702,0.3291678404596328,-0.5657644001291763,-1.815839864543108
1773062434604918784,2.6456806659698486,-0.5183966159820557,1.8062034845352173,-0.3792666792869568,-0.49198609590530396,-0.3217533528804779,-0.8089650869369507,-0.11255186796188354,0.03746682405471802,0.19171655178070068,0.5476387360796748,-0.11406308521993637,-0.2872404503031972,-0.7775438150789882,0.3275807226322475,-0.546403220361557,-1.82180109411165
1773062434614974720,2.6557366847991943,-0.7742998003959656,1.9132336378097534,-0.3592941462993622,-0.47550228238105774,-0.31829309463500977,-0.8201140761375427,-0.11783570051193237,0.05300381779670715,0.14900201559066772,0.5484841460901352,-0.10799519932317361,-0.27978564946245416,-0.780526802790494,0.32392838662479256,-0.5254342639586754,-1.8286790281716463
1773062434625029888,2.6657917499542236,-0.9404903650283813,1.9351508617401123,-0.3475072681903839,-0.4583398699760437,-0.31266918778419495,-0.831963062286377,-0.10367181897163391,0.023179441690444946,0.13098961114883423,0.5493342476597091,-0.10232148449779217,-0.2711987781782694,-0.7837176997023099,0.3180018022265401,-0.5035444518041313,-1.8364384099570628
1773062434635084800,2.675846815109253,-0.8161332607269287,1.8502659797668457,-0.3744620680809021,-0.44133538007736206,-0.30672866106033325,-0.8432915210723877,-0.03151920437812805,-0.027835547924041748,0.0917656421661377,0.5499666486722817,-0.096885443030394,-0.26261653913529415,-0.7868814650475239,0.31175409444672814,-0.4821514975906281,-1.8443566065847279
1773062434645140992,2.6859028339385986,-0.27256396412849426,2.1177804470062256,-0.708158016204834,-0.4229361116886139,-0.3042624890804291,-0.8535510301589966,0.02065342664718628,-0.2794625163078308,-0.10274779796600342,0.5503215324682091,-0.08989751018295286,-0.25523109249889886,-0.789887219718738,0.30916411114131614,-0.4600426128754249,-1.8516195851360988
1773062434655195648,2.695957660675049,-0.2174852341413498,2.1155614852905273,-1.0254709720611572,-0.40160244703292847,-0.3062938153743744,-0.8630756139755249,-0.12365081906318665,-0.4482075273990631,0.0320667028427124,0.5493323342345166,-0.0807520855933561,-0.24888004998882396,-0.7935816232243551,0.3112972611715151,-0.4355170371631207,-1.8612095112982
1773062434665251840,2.7060136795043945,-0.48332729935646057,1.9684703350067139,-0.8410808444023132,-0.38104280829429626,-0.30672410130500793,-0.8721964955329895,-0.12376371026039124,-0.013374745845794678,0.3957865834236145,0.5478751675450795,-0.07254427678224468,-0.24215509826734005,-0.7974527980127153,0.3117493207810103,-0.41188762686763003,-1.872019079132188
1773062434675306752,2.716068744659424,-0.5505436658859253,2.060652732849121,-0.7681258320808411,-0.3609880805015564,-0.3050050139427185,-0.8812828660011292,-0.058765918016433716,0.099118173122406,0.30385977029800415,0.5469545076159034,-0.06500926628627675,-0.23480279831080658,-0.8009257993636996,0.3099436956062959,-0.388768958728469,-1.8817820785886243
1773062434685362688,2.7261247634887695,-0.6679235696792603,2.1651620864868164,-0.8451199531555176,-0.3396053612232208,-0.302521288394928,-0.89058917760849,-0.12102696299552917,-0.10211130976676941,0.18252032995224,0.5459504781249345,-0.057153350847513426,-0.226801456035233,-0.8045077862295414,0.3073367720184389,-0.36430572004495276,-1.8920916723886991
1773062434695417856,2.736179828643799,-0.855178952217102,2.2511565685272217,-0.8311439752578735,-0.3172224462032318,-0.29839974641799927,-0.9001819491386414,-0.06938949227333069,-0.04330560564994812,0.27716559171676636,0.544828628407006,-0.049371755556004385,-0.21787944244353338,-0.8082406156927179,0.30301556478162855,-0.3388096322320474,-1.9031239984672381
1773062434705472768,2.746234655380249,-1.0815426111221313,2.2253968715667725,-0.8655461072921753,-0.29411330819129944,-0.2922155559062958,-0.9100040793418884,-0.06851181387901306,-0.009053975343704224,0.3019108176231384,0.5435513343688602,-0.04189722864900947,-0.20794849281944836,-0.8121293243069718,0.2965426860064728,-0.31260297493174327,-1.9148893417247965
1773062434715528704,2.7562906742095947,-0.9168028831481934,2.1158225536346436,-0.7287912368774414,-0.27211326360702515,-0.28489917516708374,-0.9191228747367859,-0.08675819635391235,-0.10647350549697876,0.2051946520805359,0.5422804423224348,-0.03516642881229502,-0.19799466265489282,-0.8157778252747907,0.2889012450346644,-0.2878359413621941,-1.926102176795793
1773062434725583872,2.766345739364624,-0.5296679735183716,2.335714340209961,-1.0536212921142578,-0.24904003739356995,-0.28070348501205444,-0.9269221425056458,-0.029890626668930054,-0.28620630502700806,0.04609328508377075,0.5407674514791789,-0.027094828759437726,-0.18922158425361896,-0.8191652639663018,0.2845269949306729,-0.2624756787886064,-1.9368379345064348
1773062434735639808,2.7764017581939697,-0.6252210736274719,2.464961290359497,-1.1876682043075562,-0.2231297641992569,-0.27821335196495056,-0.9342432618141174,-0.08294627070426941,-0.20703136920928955,-0.0019597411155700684,0.538203585681742,-0.017535497100695747,-0.18047406645201608,-0.823078625027433,0.2819335276671704,-0.2344429183797498,-1.9499619514026054
1773062434745694976,2.786456823348999,-0.8462104201316833,2.406672239303589,-1.1174088716506958,-0.19691796600818634,-0.27370816469192505,-0.9414388537406921,-0.06379371881484985,-0.07300201058387756,0.20401209592819214,0.5355606973112612,-0.008375053739329216,-0.17091058097666925,-0.8269788649850518,0.27724633278540384,-0.20619426673255353,-1.9633363106343524
1773062434755750912,2.7965128421783447,-1.0276238918304443,2.339292049407959,-1.0601657629013062,-0.17136922478675842,-0.26674884557724,-0.9484079480171204,-0.17242656648159027,-0.12259441614151001,0.49674779176712036,0.5329399735592609,-0.00010639000121913229,-0.16061137744875242,-0.8307700746242241,0.27001807114441184,-0.1787626181179973,-1.9764918083511276
1773062434765805824,2.806567668914795,-1.0053422451019287,2.393580436706543,-0.8210791349411011,-0.14638283848762512,-0.25838032364845276,-0.9548882842063904,-0.2737831771373749,0.06961381435394287,0.6008386611938477,0.5308493694683255,0.007708923232740815,-0.14998805365765494,-0.8340522773529511,0.2613452029352638,-0.15211418205272356,-1.9879536747675173
1773062434775861504,2.8166234493255615,-0.9081206917762756,2.5802948474884033,-0.802821695804596,-0.12043362110853195,-0.2503061294555664,-0.9606469869613647,-0.21634310483932495,0.1374521255493164,0.44062745571136475,0.5293946583592289,0.016190601133371216,-0.13933549812709214,-0.8366988108935892,0.2529964343574977,-0.12471653204527575,-1.9974507662491117
1773062434785916672,2.826678514480591,-0.9412243366241455,2.6687171459198,-0.924827516078949,-0.09267819672822952,-0.24231044948101044,-0.9657620787620544,-0.16986452043056488,-0.016127660870552063,0.19970983266830444,0.5275948063933606,0.02546156310848879,-0.12833808950610162,-0.8393598067824714,0.2447465595269964,-0.0956708321834818,-2.0074955108236874
1773062434795971584,2.83673357963562,-0.7767678499221802,2.6096737384796143,-0.8501664996147156,-0.06482209265232086,-0.23443852365016937,-0.9699673652648926,-0.11486539989709854,-0.07790888845920563,0.13695955276489258,0.5255799305840586,0.03484535973025808,-0.11748242119716858,-0.8418726535095281,0.2366409501335195,-0.06672992664210779,-2.017467742047774
1773062434806027776,2.846789598464966,-0.46268823742866516,2.5714991092681885,-0.9158357977867126,-0.03763354942202568,-0.22900241613388062,-0.9726980924606323,-0.09881053864955902,-0.20163112878799438,0.24105441570281982,0.5234912364608907,0.04466912659088379,-0.10796117035350572,-0.8439822864067295,0.23105274908172524,-0.038670568449844116,-2.0267329727856636
1773062434816082432,2.856844425201416,-0.5934765338897705,2.7170534133911133,-0.9594829082489014,-0.00949868280440569,-0.224210724234581,-0.9744943976402283,-0.1670455038547516,-0.140382781624794,0.17874854803085327,0.5209408813542193,0.055084369275577964,-0.09858251758356586,-0.8460897892716747,0.2261330640256869,-0.009746984294483275,-2.0367127540184518
1773062434826138624,2.8669004440307617,-0.6904920339584351,2.7274441719055176,-0.739086389541626,0.019129741936922073,-0.21778258681297302,-0.9758098125457764,-0.16964244842529297,0.10616455972194672,0.22551995515823364,0.5187787913775243,0.06539055262429176,-0.08842606723852597,-0.847805023003983,0.21954195130944984,0.019601454164938477,-2.0454939677295236
1773062434836193536,2.876955509185791,-0.8282013535499573,2.674874782562256,-0.5937316417694092,0.04711506515741348,-0.21020498871803284,-0.976521372795105,-0.18590901792049408,0.04377739131450653,0.44405072927474976,0.5173620929251771,0.07525702946556077,-0.0779466627308676,-0.8488799232919738,0.21178462226143496,0.04821047227323094,-2.052018746891907
1773062434846249472,2.8870115280151367,-0.9647355079650879,2.657259941101074,-0.45006927847862244,0.07433415949344635,-0.20096568763256073,-0.9767738580703735,-0.22345830500125885,-0.007789790630340576,0.42294085025787354,0.5164670893973188,0.08445020344079349,-0.06694191313704528,-0.8494991264915099,0.20234362845917556,0.07595529968551883,-2.056793841886158
1773062434856304640,2.897066593170166,-0.9831438660621643,2.728691816329956,-0.3976425528526306,0.10149656236171722,-0.19103379547595978,-0.9763219356536865,-0.16234861314296722,-0.002371355891227722,0.2601659297943115,0.5159626397600644,0.09350963834725373,-0.05563250837321289,-0.8496725895658407,0.1922152295368694,0.10358599517053471,-2.0601227799997854
1773062434866359552,2.907121419906616,-0.8856764435768127,2.706332206726074,-0.4259873628616333,0.128947913646698,-0.18132196366786957,-0.9749332070350647,-0.124156653881073,0.014512881636619568,0.1712375283241272,0.5153288798454247,0.10278872044860998,-0.04436067405119913,-0.8496485886893859,0.18233052810558711,0.1315000674443697,-2.063231703083135
1773062434876415488,2.917177438735962,-0.7311950922012329,2.8586785793304443,-0.38667550683021545,0.15685458481311798,-0.17269645631313324,-0.9724055528640747,-0.12092013657093048,0.0032933801412582397,0.05548965930938721,0.514611642680693,0.11260077352438709,-0.03344075442000488,-0.8493396097927395,0.1735666004972678,0.1599281415814583,-2.066048982744384
1773062434886470656,2.927232503890991,-0.46892568469047546,2.8563971519470215,-0.5343539118766785,0.1856834590435028,-0.16620853543281555,-0.9684504866600037,-0.11630173027515411,-0.12425777316093445,-0.015695631504058838,0.5134191089093458,0.12342740768109636,-0.023246960845959216,-0.8488970317208241,0.1669834635345745,0.1894335649275496,-2.0695994243775124
1773062434896526592,2.937288522720337,-0.5300196409225464,2.9294612407684326,-0.577278733253479,0.21449494361877441,-0.1603180468082428,-0.9634780883789062,-0.13017487525939941,-0.1279815137386322,0.06073760986328125,0.5115733736236036,0.13446722959935534,-0.01339840030950001,-0.848546794074389,0.16101286008531474,0.21905336240492157,-2.074265067262757
1773062434906581760,2.947343587875366,-0.5664035081863403,3.077169895172119,-0.5165738463401794,0.2444075047969818,-0.15379798412322998,-0.9573981165885925,-0.10379776358604431,-0.01475059986114502,0.02409428358078003,0.509742901168454,0.14591818431055278,-0.002970113078867613,-0.8478569560512638,0.15441084366135535,0.24994472548172444,-2.0784066604034495
1773062434916637696,2.957399606704712,-0.8295630812644958,2.9759016036987305,-0.5024197697639465,0.27441197633743286,-0.14585980772972107,-0.9504856467247009,-0.13134559988975525,-0.08863724768161774,0.1689305305480957,0.5080782642826984,0.15713265276635818,0.008154983640255513,-0.8468171140085334,0.14638202333445233,0.281064430054457,-2.081518638019401
1773062434926692608,2.967454433441162,-0.936926543712616,2.8936047554016113,-0.4382602572441101,0.3028906285762787,-0.13586241006851196,-0.943291425704956,-0.11871704459190369,-0.03444093465805054,0.26146769523620605,0.5065876448110115,0.16721428841493574,0.019841267228413905,-0.8455854353813883,0.13628389391390192,0.31070020175486796,-2.0834582458184183
1773062434936748544,2.977510452270508,-0.793745219707489,3.04598331451416,-0.3924444913864136,0.3314124047756195,-0.12633073329925537,-0.9349900484085083,-0.0911780297756195,0.002536177635192871,0.1009141206741333,0.5052390111450482,0.17752969324188336,0.031435495817301644,-0.8439363247351591,0.12666920447192212,0.34063858639763617,-2.0845248407640633
1773062434946803456,2.987565517425537,-0.6721439361572266,3.1609084606170654,-0.47670185565948486,0.3610839247703552,-0.11799662560224533,-0.9250379204750061,-0.06579586863517761,-0.006698198616504669,-0.11504685878753662,0.5035032992138887,0.1888029405319115,0.04283086565769011,-0.8420233621394229,0.11827217302749128,0.37215549752323374,-2.086034507936368
1773062434956858624,2.9976205825805664,-0.534431517124176,3.225219249725342,-0.540102481842041,0.3911485970020294,-0.11052018404006958,-0.9136673808097839,-0.009739905595779419,-0.03913801908493042,-0.18392783403396606,0.5011597722472633,0.20064613847394094,0.053920653801559526,-0.8400432614809845,0.11074642348199337,0.4045004654899727,-2.0885101035972293
1773062434966914560,3.007676601409912,-0.551457941532135,3.144960641860962,-0.6815528273582458,0.4210222065448761,-0.10320070385932922,-0.9011602997779846,0.036573588848114014,-0.14913387596607208,-0.1222161054611206,0.498189660690934,0.21264177540915105,0.064832984228801,-0.8380854612794094,0.10338477634043863,0.4370651218187263,-2.0919325400328583
1773062434976969472,3.0177314281463623,-0.7679696083068848,2.9696292877197266,-0.7519673109054565,0.4491817057132721,-0.09417188912630081,-0.88846355676651,0.028342097997665405,-0.12286913394927979,0.05589824914932251,0.4947532760187448,0.22359806987617434,0.07597454650648998,-0.8363318634991572,0.09431163693101804,0.4680947307688736,-2.0956901880087484
1773062434987025408,3.027787446975708,-0.8279229402542114,2.913367509841919,-0.556239664554596,0.47572338581085205,-0.08373551070690155,-0.8756001591682434,0.00837695598602295,0.03641800582408905,0.1302083134651184,0.49168888464253047,0.23355923528741604,0.0874643154826978,-0.8342913769566785,0.08383367526148709,0.49769336011072324,-2.097805297613231
1773062434997080576,3.0378425121307373,-0.6880553364753723,3.097564935684204,-0.3507640063762665,0.5023314952850342,-0.07500486075878143,-0.8614159226417542,-0.02309870719909668,0.07172423601150513,0.02811819314956665,0.4893325218023244,0.24408916901124067,0.09855210071536884,-0.8314215140859765,0.0750753684621572,0.527934855261653,-2.097977916115599
1773062435007136512,3.047898530960083,-0.6436114311218262,3.0521202087402344,-0.3481874167919159,0.5292117595672607,-0.06746123731136322,-0.8458037376403809,-0.04125094413757324,0.06154083460569382,-0.05228281021118164,0.48715356920516184,0.2552010556544757,0.10941005553223711,-0.8279996513996691,0.06751250920196547,0.5590960529486945,-2.097361509302003
1773062435017191680,3.0579535961151123,-0.5840656161308289,3.027240753173828,-0.16984929144382477,0.5548059940338135,-0.060806963592767715,-0.8297547101974487,0.04590201377868652,0.10507272183895111,-0.00952446460723877,0.4850239489425111,0.26608636525515766,0.1196691211019648,-0.8243962814939944,0.06084449702124223,0.5893665306892442,-2.0964642031484764
1773062435027247616,3.068009614944458,-0.49291038513183594,3.1641852855682373,-0.1146632730960846,0.5804600715637207,-0.05564936250448227,-0.8123849034309387,0.14083808660507202,0.15196283161640167,-0.217903733253479,0.4833568521685463,0.27749729517305105,0.12962561828530117,-0.8200966651597417,0.05567812668274011,0.6204003788358206,-2.0942811210604764
1773062435037302528,3.078064441680908,-0.4419645369052887,3.1061789989471436,-0.3337520956993103,0.6061172485351562,-0.050634194165468216,-0.7937619686126709,0.15522003173828125,0.044759564101696014,-0.2398836612701416,0.4809520386608229,0.28924497983629915,0.13948608350876993,-0.8158223538606391,0.050655856667053516,0.6521489587835724,-2.0933535873423326
1773062435047357440,3.0881195068359375,-0.6319155693054199,2.9198684692382812,-0.35853680968284607,0.6300534009933472,-0.04421565309166908,-0.7752919793128967,0.20000946521759033,-0.03908206522464752,-0.08278602361679077,0.4780563104655286,0.30003483092095007,0.14944263531909524,-0.8118547804337868,0.04423007259319866,0.6824165112966276,-2.092947621138356
1773062435057413632,3.098175525665283,-0.8811277151107788,2.7540507316589355,-0.21002748608589172,0.652068018913269,-0.036496467888355255,-0.7572815418243408,0.20712387561798096,0.019650761038064957,-0.00579524040222168,0.47585568811214785,0.30955248920506845,0.1598014153744041,-0.8075903394850644,0.03650457395805393,0.7108824442336683,-2.090220655092885
1773062435067468544,3.1082305908203125,-0.9422086477279663,2.559650421142578,-0.09150111675262451,0.6721522808074951,-0.02852213941514492,-0.739863395690918,0.13372540473937988,0.00909770280122757,0.09919261932373047,0.4745105917327828,0.31798851400628975,0.1701517125485191,-0.802976626243254,0.028526008309625005,0.7374813427995116,-2.0851547897043208
1773062435077524736,3.118286609649658,-0.7805635929107666,2.4799771308898926,-0.03080338053405285,0.6906087398529053,-0.02171938307583332,-0.7229024171829224,0.10841774940490723,0.020071454346179962,0.09924519062042236,0.4735008818100313,0.32595115877364256,0.17973490719896035,-0.7982782617597987,0.021721091602567973,0.7625557040806833,-2.079561904818425
1773062435087579392,3.1283414363861084,-0.35111793875694275,2.5462050437927246,0.03869500383734703,0.7085827589035034,-0.017552988603711128,-0.7054093480110168,0.11391174793243408,0.09566274285316467,-0.04137098789215088,0.47214173375794666,0.3345897426862368,0.18800271698338264,-0.79359111994837,0.01755389046334423,0.7876424364556166,-2.075500845396152
1773062435097635584,3.138397455215454,0.06283097714185715,2.675654888153076,0.13099795579910278,0.726870596408844,-0.017261330038309097,-0.6865574717521667,0.134396493434906,0.1443823128938675,-0.28306227922439575,0.47022781860470025,0.3447575605744925,0.19458540955180909,-0.7887740960866025,0.017262187545077818,0.8139119592215215,-2.073865245476909
1773062435107690496,3.1484525203704834,0.15354862809181213,2.6586341857910156,-0.39810505509376526,0.7448678016662598,-0.017148073762655258,-0.666991651058197,0.19420379400253296,0.09370142221450806,-0.3739476203918457,0.46689364966022706,0.3553625522305686,0.20055330784655187,-0.7845419456307803,0.017148913773815923,0.8405008858156136,-2.075614600877071
1773062435117745664,3.1585075855255127,-0.14309269189834595,2.445291757583618,-0.1791822612285614,0.7619889378547668,-0.014723542146384716,-0.6474225521087646,0.18983900547027588,-0.011994618922472,-0.15851610898971558,0.46282444073100015,0.36524038153737953,0.20709464254787052,-0.7807078077534331,0.01472407389283063,0.8665065377989274,-2.0781468203533557
1773062435127801600,3.1685636043548584,-0.46133431792259216,2.0079574584960938,0.21613816916942596,0.7762407660484314,-0.013146849349141121,-0.6302995681762695,0.3813214898109436,0.07003164291381836,0.02103137969970703,0.461267826138626,0.3732626388196575,0.21336638638578115,-0.7761326610952043,0.013147228212097392,0.8887871653202122,-2.075394235135014
1773062435137856512,3.1786184310913086,-0.6630067229270935,1.7498406171798706,0.08985675871372223,0.7879312038421631,-0.01083018071949482,-0.6156681180000305,0.3829824924468994,0.01665906421840191,0.05901223421096802,0.46096739445525126,0.37937746006667916,0.2196330518411484,-0.7715849110040827,0.010830392775418982,0.9075169845588602,-2.069820596265767
1773062435147912448,3.1886744499206543,-0.6032624244689941,1.6333198547363281,0.1285029500722885,0.7982015609741211,-0.007587383035570383,-0.6023427248001099,0.1728067398071289,-0.016078995540738106,0.019502758979797363,0.4606575201051029,0.3844795078375475,0.22584096884638777,-0.7674412924523228,0.0075874559838204955,0.9243418943693307,-2.0641642068996684
1773062435157967616,3.1987295150756836,-0.42926478385925293,1.6866942644119263,0.3381210267543793,0.8080928325653076,-0.006401617545634508,-0.5890204310417175,0.12342572212219238,0.08217677474021912,-0.14529353380203247,0.46068997864534,0.38991322340464124,0.23120868862655136,-0.7630695316245071,0.0064016613766925265,0.9409352786933259,-2.0585292517434572
1773062435168023552,3.2087855339050293,-0.2870887517929077,1.645994782447815,0.31436988711357117,0.8179280757904053,-0.0071344212628901005,-0.5752761960029602,0.18452852964401245,0.10912416130304337,-0.2091323733329773,0.4607260121987522,0.39593757791517625,0.2357866597488734,-0.7585311697021851,0.007134481591031154,0.9578366573402086,-2.05362244497517
1773062435178078720,3.2188405990600586,-0.22249017655849457,1.5002175569534302,0.07797393202781677,0.8268907070159912,-0.00731906620785594,-0.562315046787262,0.2173445224761963,-0.007481948472559452,-0.11505311727523804,0.4600791826300407,0.4015668053956245,0.23997202487618885,-0.7546421074395281,0.0073191313844395535,0.9735953765964934,-2.0504743449765104
1773062435188134656,3.2288966178894043,-0.2592972218990326,1.4367269277572632,0.08270477503538132,0.8350777626037598,-0.006527403369545937,-0.5500931739807129,0.19835424423217773,-0.06004669517278671,-0.1585707664489746,0.4590468459867817,0.406632685412211,0.24413778949934062,-0.7512141013505362,0.006527449491371597,0.9883064693899511,-2.04806557859279
1773062435198189568,3.2389514446258545,-0.20173101127147675,1.4628232717514038,0.12285976111888885,0.8429501056671143,-0.006184757687151432,-0.5379562973976135,0.20040011405944824,0.029851175844669342,-0.1903609037399292,0.4581798378982821,0.41165289034599944,0.24812041054711056,-0.7476961499590977,0.006184797183263804,1.002773306019753,-2.0454426759367417
1773062435208244480,3.249006509780884,-0.12513582408428192,1.4713331460952759,0.11332590878009796,0.8507930040359497,-0.006373230367898941,-0.5254623889923096,0.1825016736984253,0.03638728708028793,-0.15628504753112793,0.45713231935151083,0.41694383855559203,0.2518464541037404,-0.7441513894700356,0.00637327355318339,1.0175253004206488,-2.0434112564404634
1773062435218300672,3.2590625286102295,-0.1126534566283226,1.48524808883667,-0.005525143817067146,0.8584685921669006,-0.006346884183585644,-0.5128269791603088,0.14482730627059937,0.0009452961385250092,-0.11908525228500366,0.4557378140499561,0.4222601507198807,0.25550512771443723,-0.7407541196847166,0.006346926801519252,1.0323097961210337,-2.0421016269506964
1773062435228355584,3.269117593765259,-0.1472436636686325,1.4440490007400513,-0.15796448290348053,0.8661292791366577,-0.004811523947864771,-0.49979695677757263,0.14444506168365479,0.03224683925509453,-0.11681073904037476,0.45367798019435857,0.42742595947539547,0.2596316136585781,-0.7376142733781518,0.004811542410595152,1.0474253341121875,-2.041530523926943
1773062435238411776,3.2791736125946045,-0.11778657138347626,1.2310458421707153,-0.01474306546151638,0.8726381063461304,-0.003320639720186591,-0.48835620284080505,0.18484175205230713,0.05893893167376518,-0.16571176052093506,0.4519576363160131,0.4318214810760499,0.263347881762213,-0.734787364610125,0.0033206458664105385,1.0605882007594998,-2.0406625078896212
1773062435248466432,3.2892284393310547,0.012266505509614944,1.3006118535995483,0.03530838340520859,0.8787938356399536,-0.003138042753562331,-0.4771915078163147,0.09250450134277344,0.03930140286684036,-0.2558712959289551,0.4504523653709081,0.4363748233155121,0.26642308463580894,-0.7319074855524532,0.0031380479139597258,1.0733375954326247,-2.0400550224043865
1773062435258522624,3.2992844581604004,0.09886191785335541,1.3008211851119995,-0.04194502905011177,0.8850062489509583,-0.0034892847761511803,-0.465565949678421,0.024463295936584473,-0.004780991934239864,-0.2023722231388092,0.4485620585391272,0.44134220867390683,0.269135793503993,-0.7290919006474575,0.003489291930212046,1.0865191117353843,-2.0406083515534696
1773062435268577536,3.3093395233154297,0.09368233382701874,1.2108827829360962,-0.0554690957069397,0.8908171057701111,-0.003388336393982172,-0.45434948801994324,0.06238424777984619,0.05096525698900223,-0.07070547342300415,0.44642403714622225,0.44606823892113584,0.2717505766579786,-0.7265538063049425,0.003388342934439239,1.0991515724069543,-2.0417284615978426
1773062435278632704,3.319394588470459,0.11001846194267273,1.1300551891326904,0.0470629520714283,0.8961024880409241,-0.003819893579930067,-0.44383084774017334,0.08816570043563843,0.10606904327869415,-0.05520784854888916,0.44456906806782653,0.45056309028858677,0.274002684034892,-0.724067601917071,0.003819902904523182,1.110923587919359,-2.0426803540986462
1773062435288688640,3.3294506072998047,0.09193986654281616,1.0588421821594238,0.13873055577278137,0.9009241461753845,-0.005118969827890396,-0.43394649028778076,0.07154899835586548,0.11644710600376129,-0.09901249408721924,0.44317113394898494,0.45489269708102437,0.2758611651977263,-0.7215072385745996,0.005118992073837005,1.121921427863493,-2.0431753003749558
1773062435298743552,3.339505434036255,0.07526843994855881,1.010532259941101,0.21845656633377075,0.9053673148155212,-0.007120984140783548,-0.42456939816474915,0.07040166854858398,0.13567626476287842,-0.09744897484779358,0.4421770371099174,0.45907481890357166,0.27742676574739317,-0.7188630507699422,0.00712104427196349,1.1322981747807976,-2.043212497010054
1773062435308799488,3.3495614528656006,-0.003369912737980485,0.9381333589553833,0.264243483543396,0.9094675183296204,-0.009531057439744473,-0.41566556692123413,0.07899677753448486,0.11541178822517395,-0.07330229878425598,0.441609707096565,0.4630245414683024,0.27888256714446114,-0.716110029552899,0.009531201781247507,1.1421010756275516,-2.0425300029184785
1773062435318854656,3.35961651802063,-0.12437722086906433,0.8559955954551697,0.28011655807495117,0.9131485223770142,-0.011747774668037891,-0.4074576795101166,0.07403409481048584,0.09680026769638062,-0.058332085609436035,0.44146677049342786,0.4664865539801923,0.2804664935090667,-0.7133273658651397,0.01174804510758225,1.1510971002841168,-2.040836976883732
1773062435328910592,3.3696725368499756,-0.1496673971414566,0.8021968007087708,0.33382001519203186,0.916465699672699,-0.013959101401269436,-0.3998696804046631,0.058982908725738525,0.08799473941326141,-0.07588410377502441,0.4417320481577991,0.4695532617557407,0.28210795059906285,-0.7104981373393814,0.013959554587253403,1.1593791502369204,-2.038255678174096
