time,seconds_elapsed,rotationRateX,rotationRateY,rotationRateZ,gravityX,gravityY,gravityZ,accelerationX,accelerationY,accelerationZ,quaternionW,quaternionX,quaternionY,quaternionZ,pitch,roll,yaw
1773062118171686656,0.1372528076171875,-0.023524384945631027,-0.20893265306949615,0.14775589108467102,0.20799070596694946,0.1667669713497162,-0.9638094305992126,0.09337037801742554,0.03355039656162262,0.010058820247650146,0.5272483312142144,-0.1336336134459465,-0.015405786122724526,0.8389957203262618,-0.16754981295262059,0.21254131533220544,2.0373859094474533
1773062118181724672,0.14729094505310059,-0.05056772008538246,-0.235111802816391,0.034094568341970444,0.20596636831760406,0.16696737706661224,-0.9642093777656555,0.06443463265895844,-0.003927215933799744,-0.0018398165702819824,0.5268164165142908,-0.13279973500072537,-0.01611011704190529,0.8393861653259437,-0.16775306581371338,0.21044878680808565,2.0383872103716767
1773062118191761664,0.15732789039611816,-0.04482993856072426,-0.19953224062919617,-0.05355698615312576,0.20383258163928986,0.16747047007083893,-0.9645755290985107,0.012430235743522644,-0.020406275987625122,0.011893033981323242,0.5268199468193059,-0.1320095931582243,-0.01690300088098722,0.8394930175019076,-0.16826334706292256,0.20825460637536103,2.0383630500566894
1773062118201799680,0.16736578941345215,-0.04515102878212929,-0.20098605751991272,-0.06640887260437012,0.20181745290756226,0.16803748905658722,-0.964900553226471,-0.01845259964466095,-0.03427895903587341,0.010936379432678223,0.52704549737425,-0.131293509767855,-0.017655753100098065,0.8394482812252506,-0.16883851116400855,0.20618639306408212,2.0378132657358705
1773062118211836928,0.17740297317504883,-0.055776242166757584,-0.19621527194976807,-0.03709625452756882,0.19978918135166168,0.16860786080360413,-0.9652231335639954,-0.024694576859474182,-0.04519478976726532,-0.005876719951629639,0.5272176900421147,-0.13057210908961883,-0.01842189911824145,0.8394361180560208,-0.16941714407626363,0.20410525937478846,2.037387568853976
1773062118221874688,0.1874408721923828,-0.0640576109290123,-0.20170670747756958,-0.02381799928843975,0.19781464338302612,0.1692344695329666,-0.9655200839042664,-0.002349540591239929,-0.04373094439506531,-0.007242977619171143,0.5272844847344903,-0.12988759243663944,-0.019213646660272955,0.8394826171684556,-0.17005288275700917,0.202082319310519,2.0372147330558357
1773062118231911680,0.1974778175354004,-0.06729308515787125,-0.19721181690692902,-0.04393338784575462,0.19582320749759674,0.16992858052253723,-0.9658041000366211,0.02349136769771576,-0.04193785786628723,-0.009018898010253906,0.5273599869450771,-0.1292148084642688,-0.020037135415548003,0.8395197790325223,-0.1707571970795088,0.20004477971689313,2.0370214254713845
1773062118241949696,0.20751595497131348,-0.07582966238260269,-0.18833310902118683,-0.06639635562896729,0.19385802745819092,0.1707257479429245,-0.9660599231719971,0.03430664539337158,-0.041071817278862,-0.00714564323425293,0.5275288374086602,-0.12858438748463016,-0.020882800204995153,0.8394898802270855,-0.17156617966740045,0.19803849329552137,2.036608467702788
1773062118251987712,0.21755385398864746,-0.07792211323976517,-0.17789778113365173,-0.05910994112491608,0.19198183715343475,0.17158301174640656,-0.9662826657295227,0.030048787593841553,-0.04081520438194275,-0.00887596607208252,0.527731492054132,-0.12801051621276083,-0.021724681320560137,0.839428815987792,-0.17243628346755824,0.19612679392178614,2.0361170218687095
1773062118262024704,0.22759079933166504,-0.07841333746910095,-0.1581316590309143,-0.0480414479970932,0.19024838507175446,0.17244350910186768,-0.966472327709198,0.02436646819114685,-0.03337492048740387,-0.0078012943267822266,0.5278962296974742,-0.12749901773597655,-0.022535038764776097,0.8393817805633773,-0.17330979851445502,0.1943631936635294,2.0357172340683842
1773062118272062720,0.23762893676757812,-0.06194620952010155,-0.14477963745594025,-0.049162641167640686,0.1887066513299942,0.17322134971618652,-0.9666354656219482,0.017378538846969604,-0.019000783562660217,-0.0011684298515319824,0.5280364522528839,-0.12704777010738003,-0.023262056121260755,0.8393420852003143,-0.17409953258967964,0.1927952840364353,2.0353745408418704
1773062118282099712,0.2476658821105957,-0.047743793576955795,-0.11939211934804916,-0.05782470107078552,0.18734917044639587,0.1738710105419159,-0.9667828679084778,0.014555126428604126,-0.0013398677110671997,-0.004576385021209717,0.5282056761007613,-0.12664234122548435,-0.023880360287329337,0.8392795659568254,-0.17475919327369271,0.19141366718626043,2.034960717524319
1773062118292137728,0.2577037811279297,-0.009513851255178452,-0.11957401782274246,-0.05991395190358162,0.18610168993473053,0.17424717545509338,-0.9669560790061951,0.01835082471370697,0.010811418294906616,-0.007073462009429932,0.5284157198950705,-0.1262109050884754,-0.02434674673351459,0.8391988904161749,-0.17514119896932914,0.19013648315299247,2.034439284823524
1773062118302174720,0.26774096488952637,0.008210995234549046,-0.10404619574546814,-0.05463450029492378,0.18489353358745575,0.17434020340442657,-0.9671710729598999,0.02618129551410675,0.014349982142448425,-0.012839913368225098,0.5286463742621268,-0.12571949449774342,-0.024679430600779036,0.8391177338489451,-0.17523567241453425,0.18889037825287605,2.033857206760775
1773062118312212736,0.27777886390686035,-0.006851044483482838,-0.10315137356519699,-0.04626418650150299,0.18381640315055847,0.17438381910324097,-0.967368483543396,0.03494885563850403,0.007760345935821533,-0.008949875831604004,0.5288468018994575,-0.12527065034139928,-0.0249602745437812,0.8390502101932378,-0.17527995797494364,0.18777830269882065,2.033348245746591
1773062118322249728,0.28781580924987793,-0.030232267454266548,-0.0977502167224884,-0.04486416280269623,0.18276701867580414,0.17465005815029144,-0.9675192832946777,0.03764618933200836,0.00026144087314605713,-0.0030617713928222656,0.5290141971422142,-0.12489433360138909,-0.025333039475962858,0.8389895767641613,-0.17555035804579358,0.18670267392692916,2.0329276206234237
1773062118332287744,0.297853946685791,-0.04377976804971695,-0.09708628803491592,-0.050737231969833374,0.1817496120929718,0.17508479952812195,-0.9676323533058167,0.0351388156414032,-0.010091513395309448,0.00640493631362915,0.5291821766245978,-0.12457849997688807,-0.025768544327370014,0.8389173286374673,-0.1759918982315918,0.1856659548269982,2.032512805272196
1773062118342325760,0.307891845703125,-0.06930790096521378,-0.09678921103477478,-0.06593495607376099,0.18071095645427704,0.17572975158691406,-0.9677099585533142,0.02975352108478546,-0.019067764282226562,0.010465085506439209,0.5293774088546839,-0.12431246026254715,-0.02629496144094843,0.8388172710902244,-0.176647006578956,0.18461445882682678,2.032039760448161
1773062118352362752,0.3179287910461426,-0.09013382345438004,-0.10142497718334198,-0.07256116718053818,0.179648756980896,0.17662331461906433,-0.9677450656890869,0.02930508553981781,-0.02684304118156433,0.009767770767211914,0.5296071838659215,-0.12410615941108814,-0.02692811376099568,0.8386828204773522,-0.17755477353805715,0.1835470867012702,2.031492359965398
1773062118362399488,0.32796573638916016,-0.09201613813638687,-0.09833064675331116,-0.06709770113229752,0.17855176329612732,0.17764295637607574,-0.9677614569664001,0.03212633728981018,-0.031204357743263245,0.0075106024742126465,0.5298302778274919,-0.12391980448908571,-0.02762519114148733,0.8385466917228447,-0.1785907904185897,0.18244803849817245,2.030962203171108
1773062118372436480,0.33800268173217773,-0.07539109140634537,-0.08427741378545761,-0.05982406809926033,0.17757073044776917,0.1785796731710434,-0.9677695631980896,0.033580392599105835,-0.032598838210105896,-0.0028725266456604004,0.5300334666093323,-0.12376051262763643,-0.02825863124681349,0.8384207884025476,-0.17954273237221033,0.18146603829174257,2.030479051300713
1773062118382474496,0.3480405807495117,-0.037856586277484894,-0.07286443561315536,-0.05843576788902283,0.17670172452926636,0.17922590672969818,-0.9678091406822205,0.02941398322582245,-0.028789520263671875,-0.015787601470947266,0.5302359347262885,-0.12356984366697749,-0.02873870311958275,0.8383045136386115,-0.18019956660394665,0.18058997334569313,2.029989083716259
1773062118392512512,0.3580787181854248,0.007206495385617018,-0.07429268956184387,-0.05597580224275589,0.17590239644050598,0.17946697771549225,-0.96791011095047,0.02069184184074402,-0.02242352068424225,-0.02253788709640503,0.5304507631732089,-0.12329807824340429,-0.02902643982314969,0.8381987522328904,-0.180444598032198,0.1797722329707365,2.0294568928517918
1773062118402549504,0.3681156635284424,0.02587982639670372,-0.07489576190710068,-0.05642121657729149,0.17507702112197876,0.17937016487121582,-0.9680776596069336,0.01535266637802124,-0.01689457893371582,-0.024796485900878906,0.5306874914595721,-0.12292266298395706,-0.02917503378225436,0.8380987709306368,-0.18034618969058688,0.1789163078347462,2.02885867817407
1773062118412587520,0.37815356254577637,0.03026711754500866,-0.07024827599525452,-0.0636836588382721,0.17429465055465698,0.17918720841407776,-0.9682527184486389,0.012427151203155518,-0.014605909585952759,-0.017358243465423584,0.5309472770197571,-0.12254295313970294,-0.029272252244945916,0.8379865487447036,-0.18016021926480041,0.17810209960710133,2.0282043612092693
1773062118422624512,0.38819074630737305,0.008793162181973457,-0.0705428272485733,-0.07310352474451065,0.17348843812942505,0.17911234498023987,-0.9684113264083862,0.012439906597137451,-0.017125055193901062,-0.010714590549468994,0.5312368886704896,-0.12218402464040903,-0.029417560520848523,0.8378501933041538,-0.1800841261032338,0.17726702950914336,2.027481032487352
1773062118432662528,0.39822864532470703,-0.028292154893279076,-0.07239212840795517,-0.09791512787342072,0.1726425439119339,0.1793678104877472,-0.9685152173042297,0.014338642358779907,-0.021118909120559692,-0.0015317797660827637,0.5315800895895758,-0.1219013782967375,-0.029705910016222883,0.8376635880467195,-0.18034380125299715,0.17640205868941541,2.0266398622831265
1773062118442699520,0.4082655906677246,-0.05406995490193367,-0.0804244875907898,-0.12138023972511292,0.17170602083206177,0.1799541860818863,-0.9685729146003723,0.01580922305583954,-0.023643165826797485,0.00911557674407959,0.5320114345693906,-0.1216746703702005,-0.030146367292450477,0.8374069885957897,-0.18093987994629313,0.17545445718510735,2.0255951019934493
1773062118452737536,0.4183037281036377,-0.0726577565073967,-0.08069773018360138,-0.11910483986139297,0.17070600390434265,0.18076109886169434,-0.9685994386672974,0.02012041211128235,-0.026204824447631836,0.003908276557922363,0.5324700949931862,-0.12148324508243179,-0.03069363800860349,0.8371232449907866,-0.18176024976299715,0.17444860813716032,2.024488193974376
1773062118462774528,0.4283406734466553,-0.09170535206794739,-0.07788263261318207,-0.10034273564815521,0.16971011459827423,0.1817442625761032,-0.9685904383659363,0.02851681411266327,-0.02503649890422821,0.0014121532440185547,0.5328730023343508,-0.12134110107666908,-0.03132257119972909,0.8368640994088566,-0.18275996712040934,0.1734528063454162,2.0235186226955197
1773062118472812288,0.43837857246398926,-0.08971277624368668,-0.06647258251905441,-0.07969018816947937,0.16882754862308502,0.18279355764389038,-0.9685472249984741,0.032481640577316284,-0.01999756693840027,-0.0062451958656311035,0.5331861203293367,-0.12126347147561549,-0.03196166501265398,0.8366517320371245,-0.18382714397475333,0.17257617590078964,2.022768407463636
1773062118482850560,0.44841670989990234,-0.07512233406305313,-0.048580266535282135,-0.05834588035941124,0.16813108325004578,0.1837148368358612,-0.9684940576553345,0.02802063524723053,-0.0111074298620224,-0.017208397388458252,0.5334091372799816,-0.12122757920812771,-0.032508935051488996,0.836493709228015,-0.18476428561725622,0.17188746185441653,2.0222355802613428
1773062118492887552,0.4584536552429199,-0.06837308406829834,-0.02395561710000038,-0.04620559513568878,0.1676902025938034,0.18448492884635925,-0.9684241414070129,0.016758039593696594,-0.006964176893234253,-0.02078789472579956,0.5335714159961554,-0.12125781889384496,-0.032931337361314726,0.83636933319114,-0.18554777478327866,0.17145765867681426,2.021852776233113
1773062118502925312,0.4684915542602539,-0.057520702481269836,0.0019641316030174494,-0.03458888828754425,0.1674938052892685,0.1851518452167511,-0.9683308601379395,0.0008716732263565063,-0.0037401020526885986,-0.018317699432373047,0.5337004937662103,-0.12136365752316863,-0.03324816465824506,0.8362591266776493,-0.18622638194954413,0.17127693819106504,2.021555785353641
1773062118512962560,0.4785287380218506,-0.027305275201797485,0.022958096116781235,-0.019097547978162766,0.16757452487945557,0.18563035130500793,-0.9682252407073975,-0.01411689817905426,0.0018238723278045654,-0.012914896011352539,0.5337927463324391,-0.12153520832757446,-0.03341498312929634,0.8361687144023663,-0.1867133252632358,0.17137619529136813,2.021352524459399
1773062118523000576,0.48856663703918457,0.013888143934309483,0.034274131059646606,-0.0033846304286271334,0.16782180964946747,0.18571536242961884,-0.9681661128997803,-0.015005022287368774,0.0018914490938186646,-0.017414331436157227,0.5338355814143062,-0.1216671940769268,-0.033377131396888325,0.8361235121096537,-0.18679984063071564,0.171634427242797,2.02126230290881
1773062118533037312,0.49860358238220215,0.055561553686857224,0.04176107794046402,0.015480936504900455,0.16821415722370148,0.18535926938056946,-0.9681662917137146,-0.006303146481513977,-0.001948624849319458,-0.0230446457862854,0.5338370141126151,-0.12173732154758496,-0.03311923007935115,0.8361227920884684,-0.18643744798461798,0.17202780596408687,2.021264904139254
1773062118543075584,0.5086417198181152,0.07227440178394318,0.03851095587015152,0.019608302041888237,0.1686689257621765,0.18469256162643433,-0.9682145714759827,-0.0015394091606140137,-0.002426326274871826,-0.017640531063079834,0.5338057624409279,-0.12174671455070717,-0.03271775540514417,0.8361571534698974,-0.18575903758583973,0.17247528884040036,2.0213382332273926
1773062118553113344,0.5186796188354492,0.05774499103426933,0.04080846533179283,0.020558252930641174,0.16912226378917694,0.18401528894901276,-0.9682644605636597,-0.008523508906364441,-0.004922881722450256,-0.002026677131652832,0.5337667745195301,-0.12175231767680282,-0.032313325867467615,0.8361969285890244,-0.18506995204522808,0.17292096286746145,2.021429181054193
1773062118563150336,0.5287165641784668,0.03040103055536747,0.025441894307732582,0.013514058664441109,0.16947105526924133,0.183538556098938,-0.9682939648628235,-0.020392686128616333,-0.0023099184036254883,0.018480122089385986,0.5337352382110068,-0.12176893119073286,-0.03202114006857407,0.8362259452531785,-0.1845849553207959,0.17326532335725273,2.0215040599014498
1773062118573188608,0.5387547016143799,0.006736979819834232,0.01186323445290327,-0.000985521823167801,0.16967003047466278,0.18335461616516113,-0.9682939648628235,-0.03101341426372528,0.0011546611785888672,0.029054462909698486,0.5337243933569926,-0.12180317742349143,-0.03189061808464412,0.8362328395311492,-0.1843978429167815,0.1734646987379018,2.021532110211738
1773062118583225600,0.5487916469573975,0.001666099182330072,-0.006568636279553175,-0.00901508517563343,0.16970984637737274,0.18333956599235535,-0.9682897925376892,-0.030214011669158936,0.0020241886377334595,0.035001277923583984,0.5337535765482814,-0.12181727699958915,-0.03186912878810256,0.8362129586311247,-0.1843825367750787,0.1735053184967303,2.0214633650580867
1773062118593263360,0.5588295459747314,-0.004563034512102604,-0.026856064796447754,-0.011373581364750862,0.16950160264968872,0.18336813151836395,-0.968320906162262,-0.01833277940750122,0.002926439046859741,0.03281980752944946,0.5337991287986705,-0.12173716306708306,-0.03193146388701424,0.836193214248008,-0.18441158778575362,0.173291206765467,2.021347205271251
1773062118603300608,0.5688667297363281,-0.00862573180347681,-0.048256296664476395,-0.006048989482223988,0.1691347062587738,0.18344280123710632,-0.9683709144592285,-0.005468934774398804,0.005705133080482483,0.037600040435791016,0.5338283883483377,-0.12160088642043393,-0.03205900677334718,0.8361893090327105,-0.18448755423938784,0.17291479559312178,2.0212645649335657
1773062118613338368,0.5789046287536621,-0.005737532861530781,-0.06598255783319473,0.006089432165026665,0.16859093308448792,0.1835235208272934,-0.9684504270553589,0.000888437032699585,0.006127968430519104,0.03151500225067139,0.5338131682986607,-0.12138830856974024,-0.03224389339552768,0.8362228773122672,-0.18456965805062317,0.1723559542733199,2.0212820253916934
1773062118623376384,0.5889425277709961,-0.0014303138013929129,-0.06771708279848099,0.005734432488679886,0.16794408857822418,0.18353348970413208,-0.9685609340667725,-0.003820553421974182,0.00642317533493042,0.02895522117614746,0.5337854905817466,-0.12111116617805423,-0.032428813288484196,0.8362736160357708,-0.18457980093939455,0.1716884026978316,2.0213227932500075
1773062118633413632,0.5989797115325928,0.005429190117865801,-0.07877692580223083,-0.005585333798080683,0.1672491729259491,0.18350902199745178,-0.9686858057975769,-0.016568630933761597,0.005364283919334412,0.030087172985076904,0.5337767449319899,-0.12080448710011776,-0.03260952417938365,0.8363165607853205,-0.18455491182065337,0.17097017744794715,2.021315169147209
1773062118643451392,0.6090176105499268,0.004112834110856056,-0.09233999997377396,-0.012270800769329071,0.1664036512374878,0.18346650898456573,-0.9688394665718079,-0.021490931510925293,0.006947919726371765,0.03310948610305786,0.5338057968179641,-0.12042939017677694,-0.03281825034112811,0.8363439736519768,-0.18451166044695275,0.1700959931397516,2.0212103658838707
1773062118653488384,0.6190545558929443,-0.003141883062198758,-0.10248184949159622,-0.004138571210205555,0.1654701977968216,0.18348997831344604,-0.9689948558807373,-0.014682844281196594,0.010159313678741455,0.041489362716674805,0.5338278814201506,-0.12003455286418659,-0.03307984873614063,0.8363762023664765,-0.1845355394855236,0.16913336359430411,2.021119943161692
1773062118663526656,0.6290926933288574,-0.01046459935605526,-0.11889038980007172,0.009603073820471764,0.16436053812503815,0.18352235853672028,-0.9691775441169739,-0.002510562539100647,0.012110576033592224,0.03785735368728638,0.5337972829040188,-0.11956420683725368,-0.033400818735652024,0.8364504431120788,-0.18456847693193937,0.16798935023670294,2.0211487786199815
1773062118673563392,0.639129638671875,-0.015093972906470299,-0.12969881296157837,0.02034200355410576,0.1632016897201538,0.18364068865776062,-0.9693509936332703,0.006308197975158691,0.013594433665275574,0.040029704570770264,0.5336984455065803,-0.1190938618413277,-0.033781145742834216,0.8365652585783057,-0.18468884969559513,0.16679755176607733,2.021340167848174
1773062118683601408,0.649167537689209,-0.006641898304224014,-0.13619853556156158,0.021714065223932266,0.1619519591331482,0.18372221291065216,-0.9695451259613037,0.0044451504945755005,0.01108674705028534,0.02517867088317871,0.5335746730351184,-0.11857310859088158,-0.03417404688768093,0.8367022081410617,-0.18477179347929365,0.16551103316842145,2.0215858822873725
1773062118693639424,0.6592056751251221,0.01746050827205181,-0.13012465834617615,0.01020787749439478,0.16070036590099335,0.18363992869853973,-0.9697689414024353,-0.004328295588493347,0.00637778639793396,0.018612325191497803,0.5334886745191826,-0.11800761506753318,-0.03449260588723456,0.8368239226318284,-0.18468808071468792,0.16421767506708398,2.021736324420995
1773062118703676416,0.6692426204681396,0.029455697163939476,-0.12232866138219833,0.02387801557779312,0.15949861705303192,0.1833905577659607,-0.9700144529342651,-0.010282933712005615,0.004307791590690613,0.014829576015472412,0.5334186486871169,-0.11741793010604808,-0.03472446992238318,0.8369419074082804,-0.18443440000712544,0.1629708036498574,2.021845984224542
1773062118713714688,0.6792807579040527,0.05853448808193207,-0.1205933466553688,0.04548157751560211,0.15836043655872345,0.18291670083999634,-0.9702904224395752,-0.00485701858997345,0.010854661464691162,0.017089128494262695,0.5332835774704541,-0.11679071810179933,-0.034852964840708225,0.8371104747761583,-0.1839523990407549,0.16178290158400938,2.0221082119074616
1773062118723751424,0.6893177032470703,0.08599163591861725,-0.1173287034034729,0.06718860566616058,0.1573096215724945,0.18213804066181183,-0.9706077575683594,0.002556711435317993,0.014471456408500671,0.016368865966796875,0.533061265160664,-0.1161131178574194,-0.03484053785047411,0.837346831526094,-0.18316042562579662,0.16067617159068412,2.0225748466860654
1773062118733789440,0.6993556022644043,0.1054428294301033,-0.11108412593603134,0.08594658225774765,0.15632250905036926,0.1810627281665802,-0.9709683656692505,0.0017738044261932373,0.015348419547080994,0.02297031879425049,0.5327767709089891,-0.11537846253910398,-0.03469337355056956,0.8376353752895154,-0.1820669277216676,0.1596267460888804,2.0231851571577586
1773062118743826432,0.7093925476074219,0.10696131736040115,-0.10790098458528519,0.09098993986845016,0.1554494947195053,0.1798730045557022,-0.9713295698165894,-0.00563870370388031,0.01351688802242279,0.026673197746276855,0.5324465558341402,-0.11465975277848435,-0.034472469587464,0.8379530992855895,-0.18085735047406726,0.15869216458372976,2.023907151660926
1773062118753864448,0.719430685043335,0.10229625552892685,-0.09371539205312729,0.07804378122091293,0.15461237728595734,0.17872637510299683,-0.9716747999191284,-0.016245663166046143,0.015151798725128174,0.025431513786315918,0.5321308299044246,-0.11396944141930375,-0.03425745235319182,0.8382565721829517,-0.1796918322728973,0.15779658974957256,2.0245971246780345
1773062118763902464,0.729468584060669,0.11534374952316284,-0.09591050446033478,0.07811369001865387,0.15381433069705963,0.1775398552417755,-0.9720188975334167,-0.01589013636112213,0.008174866437911987,0.022601783275604248,0.5318521583216372,-0.11328685834281357,-0.03400935051642751,0.8385360187532107,-0.17848602189225113,0.15694078952558208,2.0251995065719957
1773062118773939456,0.7395055294036865,0.11389898508787155,-0.09941868484020233,0.09844772517681122,0.1530163735151291,0.176263228058815,-0.9723771214485168,-0.005540177226066589,-0.0007718950510025024,0.031611740589141846,0.5315315373623779,-0.11257820216147647,-0.033728177931896065,0.8388460307447674,-0.17718894003561683,0.1560832278098779,2.0258997275789796
1773062118783977472,0.7495436668395996,0.09678027778863907,-0.10884281247854233,0.1211722120642662,0.15220047533512115,0.17504927515983582,-0.972724437713623,0.0017759650945663452,-0.0028080642223358154,0.03696393966674805,0.5311041637799977,-0.11187527948755771,-0.03349205164642335,0.839220281077574,-0.17595581215296394,0.15520976827151783,2.0268556056502436
1773062118794014464,0.7595806121826172,0.0737636387348175,-0.12827296555042267,0.1344994753599167,0.15125957131385803,0.17400360107421875,-0.9730587005615234,0.0009468346834182739,-0.0024948418140411377,0.04573637247085571,0.530588295948282,-0.11116180042678521,-0.0333719814623403,0.8396460726495729,-0.17489384896214863,0.15421329746779747,2.0280207484375494
1773062118804052480,0.7696187496185303,0.037857212126255035,-0.13830722868442535,0.1445997655391693,0.15022629499435425,0.17322900891304016,-0.9733569622039795,-0.006519019603729248,-0.006480947136878967,0.07598757743835449,0.5300014701973587,-0.11048052450680822,-0.0334001691803672,0.8401054021065704,-0.1741073030444623,0.1531300941209841,2.029357359744757
1773062118814089472,0.7796556949615479,0.026865018531680107,-0.15769851207733154,0.1611023098230362,0.14903320372104645,0.1726926863193512,-0.9736356139183044,-0.021225571632385254,-0.0028776228427886963,0.09126561880111694,0.5293619046256982,-0.1097938026314283,-0.0335783702555163,0.8405912486014007,-0.1735627716005029,0.1518898213505903,2.0308174261208887
1773062118824127488,0.7896935939788818,0.059285718947649,-0.17693477869033813,0.20842748880386353,0.14773543179035187,0.17202945053577423,-0.9739507436752319,-0.03083786368370056,0.02012445032596588,0.10535949468612671,0.5285828293921963,-0.10902155874729853,-0.033747792318930415,0.8411750938138596,-0.17288946619144488,0.150539176669772,2.0326016801104525
1773062118834165504,0.7997317314147949,0.16505450010299683,-0.2073661834001541,0.2895508110523224,0.14628808200359344,0.17058545351028442,-0.9744231104850769,-0.024538204073905945,0.056221187114715576,0.1166960597038269,0.5275682593419732,-0.10796218316909104,-0.03365429878781868,0.8419520709929229,-0.17142380256026085,0.14901502329442134,2.034919994651284
1773062118844202496,0.8097686767578125,0.30295461416244507,-0.25043976306915283,0.3897918164730072,0.14465364813804626,0.16781173646450043,-0.9751484990119934,-0.012573570013046265,0.09975112974643707,0.1303456425666809,0.526219572841934,-0.10644789575715433,-0.03308486837587559,0.8430108153383474,-0.16860950595065796,0.14726620166859275,2.0379912808873404
1773062118854240512,0.8198065757751465,0.4555550813674927,-0.3289462924003601,0.4896257221698761,0.14256463944911957,0.16345933079719543,-0.9761948585510254,-0.00030694901943206787,0.13826796412467957,0.1491837501525879,0.5245095886261805,-0.10429918915057344,-0.03200402450473579,0.8443856585054001,-0.16419613235290562,0.14501600732597275,2.0418606558650385
1773062118864277504,0.8298437595367432,0.5658406615257263,-0.4113367795944214,0.5795028805732727,0.1398026943206787,0.15766659379005432,-0.9775461554527283,0.002882242202758789,0.15658816695213318,0.19918006658554077,0.5224409788601714,-0.10146608510726858,-0.030521544992271322,0.8460664741529276,-0.15832724342892743,0.14205068172748206,2.0465132423545005
1773062118874315520,0.8398816585540771,0.6381146311759949,-0.5211873650550842,0.6706106662750244,0.13620638847351074,0.15087227523326874,-0.9791247844696045,0.003014788031578064,0.16208547353744507,0.24973946809768677,0.5200197225342326,-0.09800423695783218,-0.028857735201339295,0.8480223495370474,-0.15145059490782536,0.13822327689515165,2.0519372928546225
1773062118884353280,0.8499195575714111,0.6876851916313171,-0.6446742415428162,0.7764142155647278,0.13155685365200043,0.1433739960193634,-0.9808856844902039,0.0028425604104995728,0.1702551543712616,0.29985541105270386,0.5171816289407272,-0.09390232183752023,-0.027194102815002327,0.8502741564010747,-0.14386979909945183,0.1333248471485154,2.0582829648344636
1773062118894390528,0.8599567413330078,0.7392160296440125,-0.778944194316864,0.9014456272125244,0.12572090327739716,0.13524964451789856,-0.9828030467033386,0.004970625042915344,0.19116635620594025,0.3563534617424011,0.5138372526114136,-0.08912575950007445,-0.02559464557417164,0.8528615775951098,-0.13566542371039486,0.12722977536145513,2.065756917356101
1773062118904428544,0.8699946403503418,0.8280095458030701,-0.9316703677177429,1.026847004890442,0.11853836476802826,0.12635338306427002,-0.9848774075508118,0.01314498484134674,0.22025001049041748,0.39172250032424927,0.5099413362192476,-0.08357104640166783,-0.024024647049389482,0.8558028898236986,-0.12669203458977432,0.11978232097958504,2.07445548822782
1773062118914465536,0.8800315856933594,0.9698106050491333,-1.079233169555664,1.1569874286651611,0.10992182046175003,0.11624815315008163,-0.9871188402175903,0.024309739470481873,0.25780579447746277,0.41341888904571533,0.4897127713294116,-0.07667402656515174,-0.023699884891295,0.868182503078557,-0.11651157842183912,0.1108993381154895,2.1209096791399142
1773062118924503552,0.8900697231292725,1.1998631954193115,-1.240391492843628,1.3070563077926636,0.09976399689912796,0.10423498600721359,-0.9895363450050354,0.03573404997587204,0.2994667887687683,0.4205361008644104,0.48460460631697466,-0.06910192434947474,-0.021371545322292927,0.8717376456279529,-0.1044246627476191,0.10047941019208172,2.1321148244154324
1773062118934540544,0.90010666847229,1.5132797956466675,-1.3960415124893188,1.4862582683563232,0.0880049616098404,0.0894596204161644,-0.9920948147773743,0.04203043878078461,0.3453090488910675,0.42495614290237427,0.47879601939044025,-0.06018609554387624,-0.01817226597721199,0.8756721611860203,-0.08957937714942206,0.08847462148384082,2.144832285539642
1773062118944578304,0.910144567489624,1.8740307092666626,-1.5388548374176025,1.7031046152114868,0.0746200829744339,0.07129170745611191,-0.9946604371070862,0.0445358008146286,0.4080173671245575,0.4299936890602112,0.4721159741496661,-0.049795535516323486,-0.013791246612972164,0.8800208499155617,-0.07135223328766808,0.07488039482321165,2.159454344617679
1773062118954616576,0.9201827049255371,2.2214057445526123,-1.6433794498443604,1.9187260866165161,0.05980735272169113,0.04961763322353363,-0.9969760179519653,0.04186195880174637,0.4891549348831177,0.42550384998321533,0.46445576994278387,-0.038037155613288055,-0.008072679050438559,0.884742242341744,-0.049638014731755435,0.059916952618474344,2.1762465609428623
1773062118964653568,0.9302196502685547,2.626171350479126,-1.7818962335586548,2.126823902130127,0.04343276843428612,0.024333037436008453,-0.9987599849700928,0.028634488582611084,0.5585526823997498,0.4010579586029053,0.45578917283969467,-0.02488271682331443,-0.000927513815722899,0.8897394894404329,-0.024335439067357783,0.04345931298159403,2.1952868237804553
1773062118974691328,0.9402575492858887,3.0067484378814697,-1.9031153917312622,2.325028896331787,0.02512533962726593,-0.0047369967214763165,-0.999673068523407,0.01412026584148407,0.5687323808670044,0.397896945476532,0.44609716255438797,-0.010187332774273502,0.007724987018736896,0.8948932395361805,0.004737014543810568,0.025128266309132626,2.21665213272531
1773062118984728576,0.9502947330474854,3.231309175491333,-1.9444665908813477,2.5140466690063477,0.005271816160529852,-0.03651827946305275,-0.9993190765380859,-0.006843471433967352,0.5313913226127625,0.42197227478027344,0.43535089367786334,0.00557852546585954,0.017588068372536226,0.9000717474949014,0.03652640054200737,0.0052753594339043156,2.2404756081525345
1773062118994766592,0.9603326320648193,3.377338171005249,-1.9316941499710083,2.6678197383880615,-0.015557806007564068,-0.069484181702137,-0.99746173620224,-0.04147954657673836,0.4776872992515564,0.4050697684288025,0.42360333297533337,0.021785564821257108,0.028187302285687717,0.9051469694583676,0.06954021223958773,-0.015596131303798718,2.2667020225180674
1773062119004803328,0.9703695774078369,3.5600757598876953,-1.9034892320632935,2.7621564865112305,-0.03709286451339722,-0.10341863334178925,-0.9939460158348083,-0.09057742357254028,0.39985114336013794,0.33728402853012085,0.4110257741693327,0.03824618285892239,0.03955016989161487,0.9099619490923706,0.10360387700343315,-0.03730148068344908,2.29500071426781
1773062119014841600,0.98040771484375,3.729710340499878,-1.8409513235092163,2.78782057762146,-0.0590890496969223,-0.13838417828083038,-0.9886143207550049,-0.1601492315530777,0.3065055012702942,0.2777683734893799,0.39788146249666173,0.05485595394455394,0.05180402844865647,0.9143289791210638,0.1388297138196827,-0.059698546417342145,2.3248513213489983
1773062119024879360,0.990445613861084,3.793586015701294,-1.7847096920013428,2.802340269088745,-0.08137437701225281,-0.17369739711284637,-0.9814313054084778,-0.2367713749408722,0.23934070765972137,0.23489505052566528,0.3843788876732546,0.07140198850062644,0.06470007411869691,0.9181331108963111,0.17458290148820083,-0.08272475455726824,2.355871930984173
1773062119034916352,1.0004825592041016,3.7312023639678955,-1.744737982749939,2.89677357673645,-0.10412437468767166,-0.20799030363559723,-0.9725729823112488,-0.27168434858322144,0.21238484978675842,0.21883457899093628,0.37038003075238046,0.08769400663524231,0.07760981871107066,0.9214690563137372,0.20951988708564478,-0.10665447943819834,2.3884531910406555
1773062119044954624,1.0105206966400146,3.6534361839294434,-1.7197000980377197,3.0695230960845947,-0.12764906883239746,-0.24035117030143738,-0.9622562527656555,-0.23924851417541504,0.22324606776237488,0.22678256034851074,0.35553398326891833,0.10368991215859084,0.09011265508363765,0.9245127445648695,0.24272761108433885,-0.13188597791067713,2.4234434649995507
1773062119054991360,1.0205576419830322,3.6576685905456543,-1.6628456115722656,3.2581210136413574,-0.15204167366027832,-0.2709134817123413,-0.9505205154418945,-0.18081353604793549,0.2575010061264038,0.20541858673095703,0.33960127439240634,0.11945250656381755,0.10232716520503524,0.9273248314445018,0.2743418825394441,-0.15861258845412907,2.461437278622619
1773062119065029376,1.0305955410003662,3.874995470046997,-1.5858055353164673,3.4078500270843506,-0.1769966036081314,-0.30093321204185486,-0.9370759725570679,-0.1369987279176712,0.29087767004966736,0.13537925481796265,0.3225466342717437,0.13506641022595092,0.1149741937342128,0.929785897704837,0.3056710640143135,-0.18668249340456455,2.502602087813018
1773062119075066624,1.040632724761963,4.268894195556641,-1.4867373704910278,3.519331693649292,-0.20238330960273743,-0.33227723836898804,-0.9212126731872559,-0.12944957613945007,0.30771058797836304,0.03606557846069336,0.3043691226933316,0.1507822131823738,0.12906733105498738,0.9316468039851145,0.3387169672158527,-0.21625676767164811,2.5471746603131935
1773062119085104384,1.0506706237792969,4.679995536804199,-1.3319309949874878,3.568666458129883,-0.22775620222091675,-0.36558377742767334,-0.9024830460548401,-0.15681105852127075,0.31620633602142334,-0.019880235195159912,0.28517569035333046,0.1664573275077783,0.14508772314509286,0.9326930490687396,0.3742599302893328,-0.24720442239114399,2.595174120354945
1773062119095142656,1.06070876121521,5.048039436340332,-1.1292755603790283,3.6264123916625977,-0.2526218891143799,-0.40049034357070923,-0.8807892203330994,-0.21068069338798523,0.32312828302383423,-0.025369226932525635,0.265038325698115,0.1817298298463393,0.16303266340192302,0.9328179842505906,0.4120519139665274,-0.279315255791753,2.6466705513337794
1773062119105179648,1.0707457065582275,5.29724645614624,-0.8673720955848694,3.7266952991485596,-0.27680277824401855,-0.43589475750923157,-0.8563737273216248,-0.24990007281303406,0.33076170086860657,-0.008479118347167969,0.24379929265079922,0.19622639657319166,0.18250567980019403,0.9320670041854836,0.4510322156369509,-0.31262709517278864,2.7022003802292636
1773062119115217408,1.0807836055755615,5.383335113525391,-0.5805150270462036,3.805835008621216,-0.30006590485572815,-0.47024840116500854,-0.8299559354782104,-0.26171693205833435,0.32863157987594604,0.02040088176727295,0.22142085571981635,0.2094878704109295,0.20282222838540948,0.9305647216953699,0.4895722056205852,-0.34692208943143327,2.761878912370044
1773062119125254400,1.090820550918579,5.411502838134766,-0.3829292058944702,3.7769222259521484,-0.3225340247154236,-0.5025957226753235,-0.8021030426025391,-0.2701173424720764,0.283586323261261,0.03356361389160156,0.19836965829132894,0.22146412125356235,0.22338780457841576,0.9282784824523487,0.5265986440372233,-0.3823244141383587,2.8247711215882485
1773062119135292416,1.1008586883544922,5.449368953704834,-0.17989487946033478,3.6469993591308594,-0.3441055417060852,-0.5331215858459473,-0.7728989124298096,-0.2775222659111023,0.17063379287719727,0.06815648078918457,0.17522394256927143,0.2322387454265763,0.2441632712173584,0.9250653847695416,0.5622859108427489,-0.4188668996644085,2.8898043707946544
1773062119145329408,1.1108956336975098,5.450077056884766,0.005485229659825563,3.5205938816070557,-0.36438995599746704,-0.5618695020675659,-0.7426456809043884,-0.28674834966659546,0.021738946437835693,0.08750957250595093,0.1522694282024415,0.2416659443903252,0.265093830972224,0.9209434010372646,0.5966440318554143,-0.45615144088019755,2.9563842441668085
1773062119155367424,1.1209335327148438,5.379881858825684,0.14027686417102814,3.5220582485198975,-0.3841323256492615,-0.5882609486579895,-0.7116118669509888,-0.2773972153663635,-0.1203877329826355,0.08241569995880127,0.12928504666647242,0.2500134258999189,0.2858100133185234,0.9160192832840933,0.6289066659202376,-0.49498301981902854,3.025160786341083
1773062119165405440,1.1309716701507568,5.166996002197266,0.24441778659820557,3.6391706466674805,-0.4043230712413788,-0.6110149025917053,-0.680575966835022,-0.22205021977424622,-0.20804637670516968,0.09140360355377197,0.10587180865944702,0.2575549943973652,0.3055772462849643,0.9105377844338549,0.6573419930673976,-0.5360622695082209,3.0968659873715865
1773062119175442432,1.1410086154937744,4.896356582641602,0.3462775647640228,3.7529969215393066,-0.42537862062454224,-0.6292024254798889,-0.6505054831504822,-0.14719218015670776,-0.22858566045761108,0.12119334936141968,0.08197472322176094,0.26442242599270416,0.32377159428192914,0.9047280817317869,0.6805266136224212,-0.5791260815220565,-3.1121313031520326
1773062119185480704,1.1510467529296875,4.738193988800049,0.4292390048503876,3.857426643371582,-0.44720202684402466,-0.6431962847709656,-0.6215375065803528,-0.09788769483566284,-0.18259412050247192,0.13786447048187256,0.05763982208402762,0.2706817440088545,0.34053285847522335,0.8985802155393381,0.6986652934764013,-0.6236997861427548,-3.0359188648388566
1773062119195517440,1.161083698272705,4.78990364074707,0.4774494171142578,3.879873037338257,-0.46968862414360046,-0.6543078422546387,-0.5926835536956787,-0.07018259167671204,-0.10457277297973633,0.09858870506286621,0.03290206537857557,0.27650424164778503,0.35665616972985104,0.8917730836073788,0.7132670126236814,-0.670137443495177,-2.9573379499673647
1773062119205555456,1.171121597290039,4.97052001953125,0.5411273837089539,3.796215534210205,-0.49219444394111633,-0.6640329360961914,-0.5628541707992554,-0.06679600477218628,-0.013991296291351318,0.042697370052337646,0.00799686911040661,0.28178205267332684,0.37305735120135863,0.8839474253249424,0.7261996713603448,-0.7185250802476186,-2.8762133024149796
1773062119215592448,1.1811585426330566,5.242232322692871,0.632507860660553,3.6270971298217773,-0.5138918161392212,-0.6732785105705261,-0.5316118597984314,-0.08832675218582153,0.0699155330657959,0.015422344207763672,-0.016797318065152934,0.2861797916341338,0.39025016144124003,0.8749421171704296,0.7386339515711748,-0.7684509612156633,-2.7927125776075408
1773062119225630464,1.1911966800689697,5.6670756340026855,0.6726834774017334,3.4462664127349854,-0.5345906615257263,-0.6828194856643677,-0.4979662001132965,-0.11570841073989868,0.11014187335968018,0.02331101894378662,-0.04141686507071571,0.28962255027405653,0.40882230626590266,0.8644464567776485,0.7516148958847307,-0.8208529698768787,-2.7057824656646225
1773062119235668480,1.2012345790863037,6.08991813659668,0.7529799342155457,3.340022325515747,-0.5545870065689087,-0.6926285624504089,-0.4611928462982178,-0.13326388597488403,0.10601973533630371,0.04587915539741516,-0.06610254505348943,0.2921097714352577,0.4290401511627585,0.8521894528350731,0.7651269669150693,-0.8770836958450666,-2.613713868902464
1773062119245705472,1.2112715244293213,6.360561370849609,0.8875412344932556,3.3058059215545654,-0.5741893649101257,-0.7014684081077576,-0.42219504714012146,-0.13415414094924927,0.09462636709213257,0.07209742069244385,-0.09116723434788704,0.29349378933873543,0.4502930904769676,0.8383233936846557,0.7774557868054703,-0.936777009590253,-2.5162941599026616
1773062119255743488,1.2213096618652344,6.4374680519104,0.976495087146759,3.2928836345672607,-0.5937756896018982,-0.707994818687439,-0.38232696056365967,-0.1283007264137268,0.08479529619216919,0.11143761873245239,-0.11654835482830786,0.29389014721832046,0.47166206419897894,0.823152536308345,0.786654833456214,-0.9987275126018409,-2.415097765347179
1773062119265780480,1.231346607208252,6.403016090393066,1.0242027044296265,3.2200405597686768,-0.6133759617805481,-0.7116095423698425,-0.3426103889942169,-0.1313902735710144,0.07154911756515503,0.17558765411376953,-0.14178836283726018,0.29351648053130763,0.4924864259398655,0.8069704784652721,0.7917865188536392,-1.0614010286672106,-2.312664618390881
1773062119275818496,1.241384744644165,6.298648834228516,1.0366239547729492,3.094755172729492,-0.632627010345459,-0.712445080280304,-0.3036530613899231,-0.15510797500610352,0.059796154499053955,0.2227357029914856,-0.16639815272180747,0.2924405700447655,0.5124958291189139,0.7900242212122289,0.7929764673279281,-1.1232864712063912,-2.2112418869538817
1773062119285855488,1.2514216899871826,6.276042461395264,1.0343605279922485,2.9451303482055664,-0.6512688994407654,-0.7109120488166809,-0.26542946696281433,-0.19144344329833984,0.062138915061950684,0.23108193278312683,-0.19013138541106822,0.290698014320636,0.5317705601625609,0.7723760273031102,0.7907941867941374,-1.1837919600682403,-2.111721877683623
1773062119295893504,1.2614595890045166,6.347920894622803,1.1343520879745483,2.802255153656006,-0.6690822839736938,-0.7074600458145142,-0.22765974700450897,-0.22494536638259888,0.07542580366134644,0.23094037175178528,-0.21323624804223967,0.28799740326483747,0.5506610750349097,0.7538965675979552,0.7858978395884967,-1.2428277199168607,-2.0132546655794346
1773062119305931520,1.2714977264404297,6.498189449310303,1.25564444065094,2.6110565662384033,-0.6857594847679138,-0.7024723887443542,-0.19043797254562378,-0.2535868287086487,0.10380905866622925,0.23915928602218628,-0.2359835046928355,0.2838764703510946,0.5693813861741344,0.7345276380919978,0.7788654513860911,-1.2999182018480335,-1.9151022480705358
1773062119315968512,1.2815346717834473,6.726969242095947,1.463722825050354,2.4860763549804688,-0.7012667655944824,-0.6961872577667236,-0.1534542441368103,-0.2603268027305603,0.1471760869026184,0.2540401816368103,-0.2584669186775003,0.27814278103578666,0.5881406896322103,0.7140882179251633,0.7700724630049629,-1.3553676792431162,-1.8164414441607735
1773062119326006528,1.2915725708007812,6.995213508605957,1.5942891836166382,2.3896517753601074,-0.7161352038383484,-0.688136875629425,-0.11669599264860153,-0.23666930198669434,0.16209018230438232,0.27558577060699463,-0.2811400984838522,0.2707384105195722,0.6069206830896576,0.6923209016527251,0.7589181831241731,-1.409263631364479,-1.716317394357058
1773062119336043520,1.301609754562378,7.189885139465332,1.6480281352996826,2.253512144088745,-0.7305034399032593,-0.6782389879226685,-0.0797291249036789,-0.2093769907951355,0.13804733753204346,0.2759876251220703,-0.30363386653002983,0.2619458195269027,0.625715450103848,0.6690822796448033,0.74536353457736,-1.4620839143023554,-1.6151379931245013
1773062119346081536,1.311647653579712,7.288514137268066,1.6652684211730957,2.0385637283325195,-0.744005024433136,-0.6667823195457458,-0.04310429468750954,-0.194990336894989,0.10614389181137085,0.26989567279815674,-0.32534351993197586,0.25190636960371154,0.6441979772459425,0.6447509613647658,0.7298828326505007,-1.5129255290437316,-1.5148414547537892
1773062119356118528,1.3216845989227295,7.171811103820801,1.7267810106277466,1.805069088935852,-0.7563009262084961,-0.6541771292686462,-0.00781636219471693,-0.18772977590560913,0.044817447662353516,0.3238411545753479,-0.34598412960029135,0.2405711996798578,0.6619798460822117,0.6198411958949186,0.7130941397195999,-1.560461704651173,-1.4170263715925995
1773062119366156288,1.3317224979400635,6.778547763824463,1.6755740642547607,1.6399344205856323,-0.7676132917404175,-0.6404435634613037,0.02453296072781086,-0.18574059009552002,-0.02416825294494629,0.3559448719024658,-0.36518991640337245,0.22867892273117832,0.6782126733515484,0.5952897085476238,0.695075695564113,-1.6027455032936628,-1.325275934722922
1773062119376194304,1.3417603969573975,6.207284927368164,1.6560536623001099,1.4940626621246338,-0.7782272100448608,-0.6257413625717163,0.05301320552825928,-0.1546952724456787,-0.08215969800949097,0.3758503198623657,-0.3827720904794765,0.2169936667636818,0.6924018709705322,0.5718208091697101,0.6760815918995446,-1.638811722112624,-1.2420076817167403
1773062119386231296,1.351797342300415,5.449991703033447,1.6239629983901978,1.3516454696655273,-0.7881125807762146,-0.6107835173606873,0.07630282640457153,-0.1152382493019104,-0.12414079904556274,0.4019380807876587,-0.3987298817037781,0.20589468863563312,0.7041014052023259,0.5503300056382239,0.6570497732445637,-1.667312670195777,-1.1692216899693628
1773062119396269312,1.3618354797363281,4.711855888366699,1.4685434103012085,1.2610905170440674,-0.7973425984382629,-0.5960566997528076,0.09466519951820374,-0.08278441429138184,-0.13303887844085693,0.40386998653411865,-0.4129065281936894,0.19598756813342222,0.7133873223357627,0.5312021553013256,0.6385810088490941,-1.6889690247629205,-1.1075114128230297
1773062119406306304,1.3718724250793457,4.339414119720459,1.2729957103729248,1.2103328704833984,-0.8060650825500488,-0.5814852714538574,0.11015482246875763,-0.027247905731201172,-0.12777376174926758,0.3552534580230713,-0.4254192701105469,0.18738370267170346,0.7210858185298407,0.5137520010599287,0.6205531744325999,-1.7066125000367023,-1.0541186374212221
1773062119416344064,1.3819103240966797,4.356143951416016,1.0492565631866455,1.0949785709381104,-0.8141236901283264,-0.566911518573761,0.12575387954711914,0.028509676456451416,-0.12209910154342651,0.26131582260131836,-0.4365666551934089,0.17927953153720974,0.7285161558495052,0.4965205388027001,0.6027518562980848,-1.7240504580700242,-1.0035118741780296
1773062119426382336,1.3919484615325928,4.411766052246094,0.9523240923881531,0.8809129595756531,-0.8210208415985107,-0.5528943538665771,0.14224039018154144,0.030966579914093018,-0.09703832864761353,0.09832963347434998,-0.44648763801440683,0.17077449202904346,0.736176791534405,0.47909129162075736,0.5858338494933097,-1.7423417583106051,-0.9530551194684566
1773062119436419328,1.4019854068756104,4.4838995933532715,0.9342460036277771,0.6777792572975159,-0.8267178535461426,-0.5397447943687439,0.15878641605377197,-0.009921491146087646,-0.04793214797973633,-0.019748345017433167,-0.45555195710117047,0.1613565192569779,0.743879885204663,0.4616050171548146,0.570133951825655,-1.7605539026438493,-0.9023019190404028
1773062119446457088,1.4120233058929443,4.580657005310059,0.8898767828941345,0.5220937132835388,-0.8314448595046997,-0.527160108089447,0.17550517618656158,-0.042532920837402344,-0.01214665174484253,-0.0525345653295517,-0.4638752911910332,0.15107507138794943,0.7516175284422227,0.44392263672701227,0.5552550905285242,-1.7788270385054872,-0.8509602038734813
1773062119456494336,1.422060489654541,4.519294261932373,0.9743277430534363,0.4337749779224396,-0.8356248736381531,-0.5147876143455505,0.19163787364959717,-0.07711023092269897,-0.009779095649719238,-0.00836452841758728,-0.4717476265741892,0.1401384137676629,0.7590653218040704,0.42618699028760704,0.5407598833378574,-1.7962328602440019,-0.7997517053587581
1773062119466532352,1.432098388671875,4.25825309753418,1.0307421684265137,0.41143226623535156,-0.839775800704956,-0.5024929642677307,0.20561496913433075,-0.11897969245910645,-0.04761689901351929,0.028897404670715332,-0.4794576130692742,0.12912760641984544,0.7655935913874009,0.4090390744429894,0.5264797980743554,-1.8109174387146014,-0.7509808261878058
1773062119476569088,1.4421353340148926,3.9021823406219482,1.0538965463638306,0.4100644588470459,-0.8440501689910889,-0.49033427238464355,0.21714454889297485,-0.14800000190734863,-0.11743858456611633,0.09279191493988037,-0.4868518687317206,0.1187220586884656,0.7710235705288021,0.39294153718764363,0.512473244037834,-1.822600835051006,-0.7063564096669842
1773062119486607360,1.4521734714508057,3.5509419441223145,1.0664108991622925,0.36590152978897095,-0.8483240008354187,-0.4787231981754303,0.22620873153209686,-0.13325858116149902,-0.19631031155586243,0.11419950425624847,-0.49386745027428347,0.10902190200439373,0.7753828665931317,0.3781408986463878,0.49919987606549754,-1.8313866091905286,-0.6661780697969961
1773062119496645120,1.4622113704681396,3.29081654548645,1.017095923423767,0.24484887719154358,-0.8522117137908936,-0.4682024121284485,0.23349931836128235,-0.09746485948562622,-0.23409870266914368,0.09381702542304993,-0.5003187419416985,0.09975739701173317,0.7789724756472087,0.3645978600469502,0.4872553283535571,-1.838225294743978,-0.6295322494344952
1773062119506682112,1.4722483158111572,3.182772397994995,0.8857153654098511,0.12128020077943802,-0.8553072810173035,-0.4590088427066803,0.24033336341381073,-0.05111050605773926,-0.21025687456130981,0.1033097356557846,-0.5059169932411351,0.0905925491857712,0.7822785112800132,0.35196764776010203,0.47687924195201825,-1.8447234342321437,-0.5948590703185561
1773062119516720384,1.4822864532470703,3.1817338466644287,0.762201726436615,0.06767769157886505,-0.8577709794044495,-0.45039114356040955,0.24774327874183655,-0.015291094779968262,-0.13835397362709045,0.14350734651088715,-0.5107138761795694,0.08141112057580334,0.7856486907467992,0.3395580709454716,0.46720336873395774,-1.8519669427370664,-0.5606550662373925
1773062119526757120,1.492323398590088,3.1814496517181396,0.6050981879234314,0.05364563316106796,-0.8597555160522461,-0.4418545365333557,0.25609633326530457,0.015257716178894043,-0.05433085560798645,0.13222458958625793,-0.5147322357765513,0.07232130086200274,0.7891880646727304,0.3271126114343169,0.4576649015576962,-1.8602988909275198,-0.5266361395435437
1773062119536795136,1.5023612976074219,3.269784927368164,0.519731879234314,0.03931622952222824,-0.8614499568939209,-0.4329362213611603,0.2654622793197632,0.012237310409545898,0.0034470558166503906,0.12955725193023682,-0.5181260795124316,0.06327645980412264,0.7929232170073162,0.31434731969023844,0.44774753617729757,-1.8697201715571998,-0.49233512799657436
1773062119546832384,1.5123984813690186,3.216158628463745,0.5258804559707642,-0.031166858971118927,-0.8628649711608887,-0.4240794777870178,0.27499210834503174,-0.020039081573486328,-0.016823232173919678,0.04825007915496826,-0.5211483276999904,0.05400528601095685,0.7966049707840643,0.30151017869513064,0.4379452019239841,-1.8793164573259056,-0.45784992836756067
1773062119556870144,1.5224363803863525,3.1071741580963135,0.5731230974197388,-0.09546462446451187,-0.8641542196273804,-0.41572487354278564,0.28356674313545227,-0.09093904495239258,-0.09869462251663208,0.01826736330986023,-0.5240393314236444,0.04466780081342287,0.7998675842158106,0.28913550552014594,0.428739662116598,-1.8878689193462832,-0.42438651601446725
1773062119566908160,1.5324742794036865,2.9079816341400146,0.6178091764450073,-0.1987493336200714,-0.865252673625946,-0.4083004593849182,0.2909100353717804,-0.13897407054901123,-0.2074527144432068,0.030745267868041992,-0.526820846557165,0.03526231520202968,0.8026279264321723,0.27749739109002636,0.42059149113215993,-1.8951372206420773,-0.39229146954025906
1773062119576945408,1.5425114631652832,2.5604093074798584,0.592583179473877,-0.22155611217021942,-0.866192638874054,-0.4021151065826416,0.2966705858707428,-0.15993022918701172,-0.2550503611564636,0.0743163526058197,-0.5294324155272702,0.026311166857596217,0.8047627043478497,0.26714400626026746,0.4138257710637403,-1.9007736440668277,-0.363128749808036
1773062119586983168,1.5525493621826172,2.376072645187378,0.49902743101119995,-0.29307156801223755,-0.8668276071548462,-0.3968893885612488,0.30180859565734863,-0.12186545133590698,-0.17197346687316895,0.10659283399581909,-0.5315701204247527,0.018057875161172875,0.8065842882439866,0.25793177317918425,0.4081253822488641,-1.9058453099591537,-0.3368254316991638
1773062119597020160,1.5625863075256348,2.3179333209991455,0.45115578174591064,-0.41689419746398926,-0.8668442964553833,-0.39287325739860535,0.30697181820869446,-0.1006544828414917,-0.07595306634902954,0.05696558952331543,-0.5331891125085976,0.009747759740388244,0.808325977259798,0.2494464233881623,0.4037539956159778,-1.911141824359463,-0.3114085736696098
1773062119607058176,1.5726244449615479,2.296755790710449,0.5214459300041199,-0.44388827681541443,-0.866614580154419,-0.38949713110923767,0.3118838369846344,-0.1497887372970581,-0.033659666776657104,0.029592663049697876,-0.5346587090677599,0.0011870865715715604,0.8099015461169042,0.2412432178505201,0.4000855502772307,-1.9162524042696325,-0.2860575785034013
1773062119617095168,1.5826613903045654,2.2104337215423584,0.6735845804214478,-0.41410931944847107,-0.8668182492256165,-0.38610735535621643,0.31551066040992737,-0.188693106174469,-0.054276496171951294,0.025492727756500244,-0.5365303790322175,-0.007335418288339717,0.8109879893760573,0.23319457234837757,0.39640795460618444,-1.9198770717662956,-0.26133416384160013
1773062119627133184,1.5926992893218994,1.936238169670105,0.772991955280304,-0.4150942862033844,-0.8675410151481628,-0.38307294249534607,0.31721872091293335,-0.20820361375808716,-0.12701308727264404,0.04185113310813904,-0.5389099016996646,-0.015506208277152008,0.8113993534404922,0.22575814798152857,0.3931207066142185,-1.9213470305379416,-0.23843208385329795
1773062119637171200,1.6027374267578125,1.4577864408493042,0.775445818901062,-0.4305818974971771,-0.8684005737304688,-0.38133469223976135,0.31696072220802307,-0.20160669088363647,-0.19190746545791626,0.07903525233268738,-0.5414465856840681,-0.022711446020409472,0.8111501438337367,0.21989801667383357,0.3912396492353712,-1.9207656249994634,-0.21949205509680977
1773062119647208192,1.61277437210083,1.0293093919754028,0.7586207985877991,-0.4541418254375458,-0.869141161441803,-0.3812933564186096,0.31497469544410706,-0.16992133855819702,-0.20641416311264038,0.16261017322540283,-0.5439318988396998,-0.02871968741993514,0.8103471643581605,0.2159878364578732,0.39119495685714845,-1.9184728376118976,-0.2052552498123813
1773062119657246464,1.6228125095367432,0.8172844052314758,0.719703197479248,-0.4562939405441284,-0.8697142004966736,-0.38242998719215393,0.3120010495185852,-0.14804702997207642,-0.18669232726097107,0.18339085578918457,-0.5463038865076008,-0.03386843017521894,0.8092301596037317,0.213428206739214,0.3924247772186014,-1.9152357856613693,-0.19427343039268544
1773062119667283200,1.6328494548797607,0.761521577835083,0.6114996671676636,-0.4167490303516388,-0.8701316118240356,-0.38382694125175476,0.3091084063053131,-0.13504111766815186,-0.11243468523025513,0.15167653560638428,-0.5484357107096751,-0.0385179680099548,0.8081278149722753,0.21133889078147042,0.3939371127767138,-1.9121345506342526,-0.184668987506248
1773062119677321216,1.6428873538970947,0.9578256011009216,0.4941546320915222,-0.3417842388153076,-0.8703423738479614,-0.38457003235816956,0.30758771300315857,-0.13043588399887085,0.022127985954284668,0.1388540267944336,-0.550055917446699,-0.042906683293245367,0.8074359873030476,0.20891307395011804,0.39474197340220135,-1.9105057964440746,-0.17480247717772532
1773062119687358208,1.6529242992401123,1.4600751399993896,0.5600612759590149,-0.22758524119853973,-0.8708397746086121,-0.383414089679718,0.3076227009296417,-0.13582831621170044,0.13846474885940552,0.13920044898986816,-0.5516121316200475,-0.0479686227866442,0.8071619132830754,0.20472593087757684,0.39349007670056274,-1.9103620384465523,-0.16140309120735535
1773062119697396224,1.6629624366760254,1.8507113456726074,0.6077717542648315,-0.025832414627075195,-0.8721585869789124,-0.3792952597141266,0.3089894652366638,-0.14587730169296265,0.1693343222141266,0.07078659534454346,-0.5534055909992392,-0.053719801770445254,0.8072229675471423,0.1981098111204834,0.3890345196691369,-1.9112801206490913,-0.14374090034163026
1773062119707434240,1.6730003356933594,1.9613686800003052,0.6467863917350769,0.10871141403913498,-0.8743036985397339,-0.3729293644428253,0.31067103147506714,-0.14100074768066406,0.1892288327217102,-0.029634743928909302,-0.5554708384996598,-0.05947182257159354,0.807340464048409,0.1900435095119329,0.3821641368678378,-1.9122163462533432,-0.12436846482113453
1773062119717471232,1.683037281036377,2.0155835151672363,0.6180455684661865,0.14816586673259735,-0.8767728209495544,-0.3655286133289337,0.31250280141830444,-0.1293153166770935,0.2466321587562561,-0.0827360451221466,-0.5575296383282252,-0.06507464071981088,0.8074755061410352,0.18140892057794242,0.3742006401731784,-1.9131825134292944,-0.10460550597528531
1773062119727509248,1.69307541847229,2.237598180770874,0.6415715217590332,0.1187460720539093,-0.8792392015457153,-0.3576720356941223,0.31465739011764526,-0.13547027111053467,0.2627318501472473,-0.05914902687072754,-0.5594683936980449,-0.07101040352580727,0.8076423863783865,0.17223952732632689,0.36577382788824747,-1.9144691168771448,-0.08364770566405162
1773062119737546240,1.7031123638153076,2.2701172828674316,0.6316885352134705,0.059076882898807526,-0.8815842270851135,-0.3496645987033844,0.31708672642707825,-0.14499658346176147,0.1959933340549469,-0.08359670639038086,-0.5612903808970304,-0.0776033634785176,0.8077877696412985,0.16251084697260765,0.3572130726302591,-1.9160670944601266,-0.06093960013553867
1773062119747584256,1.7131505012512207,1.9054936170578003,0.5947830080986023,0.05105704069137573,-0.8837258219718933,-0.3425130248069763,0.31892508268356323,-0.13130390644073486,0.1327505111694336,-0.0862591564655304,-0.562980582337927,-0.08383186896236151,0.8077343381912157,0.15359109981384786,0.34959042969148385,-1.9171368390192534,-0.03993539705900501
1773062119757621248,1.7231874465942383,1.5055643320083618,0.538845419883728,0.05778444930911064,-0.8857237696647644,-0.3365800976753235,0.31969913840293884,-0.10444974899291992,0.0738084614276886,0.04477229714393616,-0.5645736224490381,-0.08883178403578482,0.8074394639115451,0.14631185874462146,0.3432827332440017,-1.917189818057735,-0.023105060094756363
1773062119767659264,1.7332253456115723,0.8170192241668701,0.4415578842163086,0.10004469007253647,-0.8875857591629028,-0.3320208191871643,0.3193018138408661,-0.10455596446990967,-0.03763860464096069,0.06605887413024902,-0.5661149291866431,-0.09235967096919831,0.8069204373499679,0.14093610915990254,0.33844513233461604,-1.9161234051963696,-0.011151053051530337
1773062119777697280,1.7432634830474854,-0.06237337738275528,0.4378363788127899,0.13737449049949646,-0.8893192410469055,-0.3298407793045044,0.3167281448841095,-0.09967929124832153,-0.0801781713962555,0.010878115892410278,-0.567707807433207,-0.09302964216340173,0.8060456320613927,0.13908237633482357,0.3361349244305577,-1.9129365605569557,-0.008415057552759533
1773062119787734272,1.753300428390503,-0.09395003318786621,0.5097007155418396,0.14068399369716644,-0.891348659992218,-0.3289636969566345,0.31189852952957153,-0.06337863206863403,-0.07379207015037537,0.13896825909614563,-0.569880816212004,-0.09254847476001155,0.8046017911680251,0.1388764672711693,0.3352059977606395,-1.9073976847636618,-0.009908358822087623
1773062119797772288,1.763338327407837,-0.17770059406757355,0.39660024642944336,0.11576905846595764,-0.8932064175605774,-0.328071653842926,0.30749261379241943,-0.035977721214294434,-0.20330053567886353,0.04797619581222534,-0.5718481498177483,-0.09198531266089212,0.8032963410215223,0.13872115083723655,0.3342615150526891,-1.9023458051821074,-0.011509176837555429
1773062119807809280,1.7733755111694336,-0.4982052147388458,0.2713780403137207,-0.04471476003527641,-0.8943783640861511,-0.3287505507469177,0.30333206057548523,0.0290982723236084,-0.2720489799976349,0.015576571226119995,-0.573398571703613,-0.09108833628237338,0.8021028246519504,0.13981417848819253,0.3349802723669424,-1.8977763609968707,-0.015051207950389667
1773062119817847296,1.7834134101867676,-0.5373316407203674,0.028202924877405167,-0.23039300739765167,-0.8943936824798584,-0.3316737413406372,0.30008772015571594,0.0608212947845459,-0.2402256727218628,0.12297749519348145,-0.5741866253800197,-0.0901800869453611,0.8011937378199799,0.14235842027661127,0.3380772012643958,-1.8945143359748158,-0.02011719065930939
1773062119827884288,1.7934503555297852,-0.32139846682548523,-0.280017614364624,-0.3571438789367676,-0.8930155634880066,-0.335625022649765,0.2997986674308777,0.07039892673492432,-0.18045780062675476,0.13373401761054993,-0.5736514184034665,-0.09003858311060906,0.8011194620922322,0.14499928107469962,0.34226865154372216,-1.8946888024761732,-0.023457422227387822
1773062119837922304,1.8034884929656982,-0.05772581323981285,-0.4285988509654999,-0.39026856422424316,-0.8906139135360718,-0.3395597040653229,0.302499920129776,0.04413247108459473,-0.1119784414768219,0.07185915112495422,-0.571961156241437,-0.0907383651940341,0.8018831021617445,0.14700525135780346,0.3464487389569213,-1.898223983072989,-0.0240718934474895
1773062119847960320,1.8135263919830322,0.27207764983177185,-0.2810988426208496,-0.45662522315979004,-0.8880557417869568,-0.3429936468601227,0.3061250150203705,-0.03323948383331299,-0.03710281848907471,0.04101243615150452,-0.5701189883141398,-0.09241031375887286,0.802821795497487,0.14799293367202213,0.3501020350830017,-1.9027540258249778,-0.021686270385056203
1773062119857997056,1.8235633373260498,0.7385902404785156,-0.08071809262037277,-0.4610426127910614,-0.8858850002288818,-0.34561455249786377,0.3094486594200134,-0.14124524593353271,-0.0008973181247711182,0.09873917698860168,-0.5688200675711028,-0.0956265259397029,0.8034798672381723,0.1473751866705836,0.3528936295368892,-1.906856488697282,-0.014911358184910966
1773062119868035328,1.833601474761963,0.9381095170974731,0.03266159072518349,-0.1827453225851059,-0.8846704959869385,-0.34589794278144836,0.3125899136066437,-0.2111850380897522,-0.01909223198890686,0.23634499311447144,-0.5680881337666762,-0.09944315467518636,0.8039937938565928,0.14484750044109734,0.3531956257433065,-1.9104439998969442,-0.004976118433378295
1773062119878072320,1.8436384201049805,0.8442714810371399,0.0720987468957901,0.08358702063560486,-0.8847434520721436,-0.3433808982372284,0.3151487112045288,-0.15558552742004395,-0.048571646213531494,0.2999178171157837,-0.5678541430598361,-0.10216925542637738,0.8044475151212249,0.14130593642890893,0.3505143078442331,-1.9129869286331673,0.004149607343991058
1773062119888110080,1.8536763191223145,1.059450626373291,-0.13873626291751862,0.013505669310688972,-0.8849165439605713,-0.3399253189563751,0.3183918595314026,-0.01817476749420166,-0.02717059850692749,0.2232951819896698,-0.5673658620830054,-0.1044677189897496,0.805159874997978,0.137477339397472,0.3468374768443802,-1.9161737188015262,0.013001058600005246
1773062119898147328,1.8637135028839111,1.5589579343795776,-0.4127236008644104,-0.1016845703125,-0.8838585019111633,-0.3360992670059204,0.3253170847892761,0.05176633596420288,0.013757407665252686,0.10876485705375671,-0.5655104375940058,-0.10821798842443923,0.806813119543789,0.1324361642849414,0.34277215947758366,-1.9234728754398218,0.026372369742570023
1773062119908185344,1.8737514019012451,1.9018878936767578,-0.39101216197013855,-0.2714240849018097,-0.8817781805992126,-0.3318746089935303,0.33515140414237976,0.04820585250854492,0.08668112754821777,-0.02068305015563965,-0.5626065843903346,-0.11360988322066523,0.809115873143563,0.12608778843550614,0.3382901101374611,-1.9340183398862874,0.04450789109988983
1773062119918223104,1.883789300918579,1.8504838943481445,-0.15918640792369843,-0.4322502315044403,-0.8796936273574829,-0.3285807967185974,0.34376436471939087,-0.03800046443939209,0.1577739119529724,-0.1545858383178711,-0.5602173210552471,-0.12034510201037382,0.8108015994388674,0.11947557116327381,0.3348005383398039,-1.9433269676987863,0.06493604379751138
1773062119928260352,1.8938264846801758,1.340227723121643,-0.008449227549135685,-0.2803729474544525,-0.878186821937561,-0.32623106241226196,0.34980157017707825,-0.1442282795906067,0.13108643889427185,-0.19672539830207825,-0.5586555436064906,-0.1262842952530572,0.8117592403274623,0.11403148852170206,0.33231375812071245,-1.949855749750251,0.08220092670478348
1773062119938298112,1.9038643836975098,0.8523664474487305,0.1323547512292862,-0.24675720930099487,-0.8775636553764343,-0.324587345123291,0.35288140177726746,-0.17045587301254272,0.03575366735458374,-0.13475701212882996,-0.5580362442731013,-0.13039438032052295,0.8120578816998147,0.11024938423668765,0.33057541680414176,-1.953124535124052,0.09394658786855192
1773062119948335104,1.9139013290405273,0.4722086191177368,0.2137705236673355,-0.18808668851852417,-0.8774989247322083,-0.32433173060417175,0.35327714681625366,-0.1969183087348938,-0.06630855798721313,-0.26064106822013855,-0.5582730121025185,-0.1332549640164702,0.8117152753857776,0.10813300895579271,0.3303051842929891,-1.9535382207103975,0.10123032909320485
1773062119958373376,1.9239394664764404,0.32838165760040283,0.2209906131029129,-0.009051703847944736,-0.8778660893440247,-0.3237856328487396,0.35286593437194824,-0.1833828091621399,-0.05692121386528015,-0.35181304812431335,-0.5587351970311005,-0.13483041114468294,0.8113283694421055,0.10668715898623105,0.3297279336890966,-1.9529901118896278,0.10542775806106165
1773062119968411136,1.9339773654937744,0.27943331003189087,0.6038163304328918,0.027677282691001892,-0.8793772459030151,-0.32258543372154236,0.35019174218177795,-0.1575947403907776,-0.017822861671447754,-0.34633126854896545,-0.5602240894558985,-0.13583708959672294,0.8103358338373228,0.10513358261339643,0.3284596818079868,-1.9497733227943577,0.10834308510262404
1773062119978448128,1.944014310836792,0.19872914254665375,0.7636914849281311,0.093559630215168,-0.8820080757141113,-0.3212314546108246,0.3447778522968292,-0.15670329332351685,0.031055152416229248,-0.2747705578804016,-0.5629369286463148,-0.13665928172509845,0.8085253013423289,0.10350346971314062,0.3270295809289581,-1.943434216007937,0.11052376631637213
1773062119988486400,1.954052448272705,0.05785737559199333,0.7182554006576538,0.1694372147321701,-0.8849989771842957,-0.3196257948875427,0.33855006098747253,-0.08546000719070435,0.04641720652580261,-0.1604342758655548,-0.5659509213958149,-0.13687165590342915,0.8065613331744923,0.10210043038946989,0.325334543156808,-1.9361635002607147,0.1112777818959917
1773062119998523136,1.9640893936157227,-0.01736467331647873,0.6304882764816284,0.22453029453754425,-0.8879098296165466,-0.31781846284866333,0.33257782459259033,-0.00410383939743042,0.020195722579956055,-0.047085851430892944,-0.5687765805802775,-0.13645577392551825,0.8047786892722126,0.10101707064239981,0.32342777156148395,-1.9291834919616497,0.1106734386344346
1773062120008561152,1.9741272926330566,-0.018239032477140427,0.5537738800048828,0.2189582884311676,-0.8905723690986633,-0.31586888432502747,0.3272739052772522,0.02642124891281128,-0.02951386570930481,0.035717517137527466,-0.5712750031426046,-0.135797694571157,0.8032408993387758,0.10004049029755335,0.32137228293119247,-1.9229641900636387,0.10967902777321595
1773062120018598400,1.9841644763946533,-0.00325981667265296,0.49588584899902344,0.21003296971321106,-0.8929458260536194,-0.3140229880809784,0.322548508644104,0.016816556453704834,-0.08743581175804138,0.09099522233009338,-0.573495812327216,-0.1351622340851482,0.8018761919487527,0.0991381400903196,0.31942740220496085,-1.9174301559401463,0.10876124004498512
1773062120028636160,1.9942023754119873,0.0369001179933548,0.49124979972839355,0.19224359095096588,-0.8951718807220459,-0.31214433908462524,0.31817179918289185,0.0033719539642333984,-0.10898298025131226,0.09418177604675293,-0.5755717711091626,-0.134652935923809,0.8005963318804632,0.09813901806594322,0.317449308652555,-1.912301198713208,0.10824224236635602
1773062120038673152,2.004239320755005,0.08716168999671936,0.40968650579452515,0.19991455972194672,-0.8972225785255432,-0.31022360920906067,0.3142499029636383,-0.0011844038963317871,-0.09399697184562683,0.05421936511993408,-0.5774565133828412,-0.13425240910853617,0.7994380754608321,0.09705177198086691,0.3154282483426974,-1.907691546114285,0.10809990947563
1773062120048711424,2.014277458190918,0.21751175820827484,0.40262898802757263,0.18286512792110443,-0.8991000652313232,-0.30797499418258667,0.31107965111732483,-0.008645236492156982,-0.08078843355178833,0.07637155055999756,-0.5790686782027318,-0.13409848425148707,0.7984719261667228,0.09560168613809875,0.3130638307986702,-1.9038943089576095,0.10892714327627784
1773062120058749184,2.024315357208252,0.2656329572200775,0.3940512239933014,0.1305723637342453,-0.9008243680000305,-0.30571672320365906,0.30830684304237366,-0.02817666530609131,-0.09844285249710083,0.04093626141548157,-0.5805545398472358,-0.13440264626545417,0.7975521029392328,0.09382497007255312,0.31069111682836303,-1.9005500286039385,0.1109751590065211
1773062120068786176,2.0343523025512695,0.35627540946006775,0.341899573802948,0.11426157504320145,-0.9022828340530396,-0.3037461042404175,0.3059805929660797,-0.046737492084503174,-0.11284935474395752,0.029087185859680176,-0.5818438945867491,-0.1350191163838297,0.7967183532296146,0.09201872193710586,0.3086220783968965,-1.8977442519309202,0.11366681763262682
1773062120078824192,2.0443904399871826,0.3629916310310364,0.13579730689525604,0.04600688815116882,-0.9033905863761902,-0.3017910122871399,0.3046431243419647,-0.037603557109832764,-0.13467136025428772,0.085295170545578,-0.5827132550612519,-0.13580647435202517,0.7961646628519383,0.09013119794158826,0.30657070369640327,-1.8960425405542027,0.1169122254421279
1773062120088861184,2.0544273853302,0.31234586238861084,0.034585192799568176,-0.10407689213752747,-0.9034956097602844,-0.3010421097278595,0.3050733804702759,-0.024498403072357178,-0.15064865350723267,0.1856493353843689,-0.5827332086767941,-0.13698792701589643,0.7960973541168328,0.08880024650412806,0.3057852712087115,-1.8964348716884254,0.12048470955950205
1773062120098899200,2.064465284347534,0.13704007863998413,-0.1045101135969162,-0.25106632709503174,-0.9028670191764832,-0.30193495750427246,0.30605030059814453,-0.039943158626556396,-0.16287833452224731,0.29185011982917786,-0.5823709235297858,-0.13834084153149945,0.7961701841843947,0.08842556031730188,0.3067216884131508,-1.897616712898986,0.12334752175512936
1773062120108937216,2.0745034217834473,0.19150470197200775,-0.29420986771583557,-0.40221336483955383,-0.9012451171875,-0.3045094311237335,0.30827125906944275,-0.014343202114105225,-0.1821848750114441,0.4749928414821625,-0.581336032070694,-0.14001633923262785,0.7965745739075863,0.08895359715649721,0.3094233616042203,-1.9003716289371777,0.12594093512060683
1773062120118974208,2.084540367126465,0.44654738903045654,-0.7056006193161011,-0.33568787574768066,-0.8985990881919861,-0.30686306953430176,0.31361493468284607,0.03893435001373291,-0.17598596215248108,0.6226642727851868,-0.5790172356442391,-0.14226868367668924,0.7978515427632124,0.0890585649297993,0.3118953225536486,-1.906583808723906,0.13053610728880663
1773062120129012224,2.094578504562378,0.06265971809625626,-1.0389881134033203,-0.3852391839027405,-0.8946534395217896,-0.3090800940990448,0.32259073853492737,0.13415539264678955,-0.0846882164478302,0.48749840259552,-0.5750503628053644,-0.14408974897705,0.8003333719050129,0.08956416154124577,0.31422561890596684,-1.9168618932704167,0.13460911787836308
1773062120139049216,2.1046154499053955,0.06970351189374924,-1.0615181922912598,-0.49233686923980713,-0.8897745609283447,-0.31302183866500854,0.33214277029037476,0.11233913898468018,0.04313960671424866,0.27453139424324036,-0.5705653803026491,-0.14543321626782948,0.8030694610310021,0.09156339653069857,0.31837311874533974,-1.9280658116898324,0.13635336541510434
1773062120149087232,2.1146533489227295,0.6655610799789429,-1.0443000793457031,-0.2902863025665283,-0.884914755821228,-0.31550735235214233,0.34260955452919006,0.008922815322875977,0.09909188747406006,0.1957816183567047,-0.5658772829687725,-0.14764089077822448,0.8059199345942222,0.09207744546543294,0.3209912651584469,-1.940190810618323,0.14143549933434027
1773062120159124224,2.124690294265747,0.9456145763397217,-0.9749849438667297,-0.03201081603765488,-0.8808813095092773,-0.31384438276290894,0.35433003306388855,0.01219850778579712,0.19734355807304382,0.0005588233470916748,-0.5610383852264056,-0.15014177433060394,0.8090874281880999,0.0898381168227698,0.3192392923628848,-1.9532364898692558,0.15027982070978388
1773062120169162240,2.13472843170166,0.8822348117828369,-0.6704102754592896,-0.06093287840485573,-0.8777323365211487,-0.31089305877685547,0.3645973205566406,0.005982577800750732,0.42251113057136536,-0.365757018327713,-0.5569140826909021,-0.15247688308554586,0.8118186090313784,0.08687901795628741,0.31613250500274437,-1.964495322072885,0.1593346539818462
1773062120179200256,2.144766330718994,1.0744209289550781,-0.23965461552143097,-0.09121035784482956,-0.8758264183998108,-0.3079856336116791,0.37158203125,-0.14352184534072876,0.4951651394367218,-0.4866790473461151,-0.5542914620525687,-0.15530077658054017,0.8134326578117745,0.08348683133055955,0.3130750041239873,-1.9720438187363203,0.16908590118433156
1773062120189236992,2.1548032760620117,1.1913915872573853,-0.003038350259885192,-0.1765548139810562,-0.8750467896461487,-0.30477583408355713,0.37603890895843506,-0.21134865283966064,0.20415931940078735,-0.4511426091194153,-0.5529036386259892,-0.15894715198533335,0.8140978157882877,0.07923550659404607,0.3097030452982578,-1.9766713687720785,0.18071055583699602
1773062120199275264,2.164841413497925,1.1496713161468506,-0.006920173764228821,-0.23107771575450897,-0.8744343519210815,-0.302196741104126,0.37952765822410583,-0.1542062759399414,-0.10808148980140686,-0.2782551944255829,-0.5519170449959483,-0.16312312191651746,0.8143430950520281,0.07499042562972769,0.30699629286714186,-1.980287580673069,0.1930673664998
1773062120209312256,2.1748783588409424,0.8534519076347351,-0.24846476316452026,-0.11059137433767319,-0.8734601140022278,-0.2998347580432892,0.3836228549480438,-0.022520720958709717,-0.19509929418563843,0.0160352885723114,-0.5505317200474102,-0.1665708100917553,0.8149021979990576,0.07143785040549067,0.3045194315614459,-1.9846319753798658,0.20352162585895864
1773062120219350272,2.1849164962768555,0.587237536907196,-0.3986952602863312,-0.09777171909809113,-0.8718552589416504,-0.2978646457195282,0.388773649930954,0.13322311639785767,-0.1955282986164093,0.14354443550109863,-0.5484921567869446,-0.16878312601298692,0.8160263947852321,0.06906161012863939,0.30245496884799805,-1.9902482545236257,0.2107561974261486
1773062120229387264,2.194953441619873,0.2549545168876648,-0.3893166780471802,-0.20069463551044464,-0.8697935938835144,-0.29750189185142517,0.3936389982700348,0.12691950798034668,-0.26768362522125244,0.06212577223777771,-0.546399115525352,-0.17049290337856537,0.8171607391871586,0.06803284790645876,0.30207499532105103,-1.9957820985376247,0.2156505162330063
1773062120239425280,2.204991340637207,-0.15797126293182373,-0.30370351672172546,-0.2423616647720337,-0.8677520155906677,-0.2992558479309082,0.39680275321006775,-0.0014191269874572754,-0.2763819694519043,0.024065256118774414,-0.5448566115195015,-0.17137419310356306,0.8179439201785612,0.06877434716142772,0.3039126606432558,-1.9996850236528831,0.2169681328586796
1773062120249463296,2.21502947807312,-0.1989465355873108,-0.2532956004142761,-0.2705390751361847,-0.8659098148345947,-0.3023495376110077,0.3984783887863159,-0.07984519004821777,-0.1612735390663147,0.05009949207305908,-0.5438571160589891,-0.17177556569670374,0.8183717666126289,0.0705711037791247,0.30715658284602154,-2.002087432206307,0.21610530912936246
1773062120259500288,2.2250664234161377,0.10773616284132004,-0.4715789258480072,-0.24098467826843262,-0.8637281656265259,-0.3048396706581116,0.4013059139251709,-0.06803447008132935,-0.00802651047706604,0.13349947333335876,-0.5423937314500699,-0.17257960219416837,0.819066072891555,0.07180585882832209,0.3097700868951538,-2.0057420136769917,0.21674269093064613
1773062120269538048,2.2351043224334717,0.30492180585861206,-0.6986737251281738,-0.2614959478378296,-0.8605316877365112,-0.30605781078338623,0.4072021543979645,-0.005099296569824219,0.08155527710914612,0.21723324060440063,-0.5396291464384009,-0.1739352830058571,0.8205775948837224,0.07210574859910464,0.3110493716354714,-2.0127736145571564,0.21986722843800818
1773062120279575296,2.2451415061950684,0.4271598160266876,-0.7075452208518982,-0.34385737776756287,-0.856644332408905,-0.30718961358070374,0.4144818186759949,-0.012572646141052246,0.07388266921043396,0.19681578874588013,-0.536256785246812,-0.1759662780049489,0.8223604910942938,0.07202642889537382,0.31223842742357133,-2.0214354150530673,0.2248354049070159
1773062120289613312,2.2551794052124023,0.329397588968277,-0.723092257976532,-0.3355712294578552,-0.8526124954223633,-0.30847233533859253,0.4217778742313385,-0.08369725942611694,-0.031234055757522583,0.14648982882499695,-0.5328548382968381,-0.17817712848747483,0.8241006331448048,0.07194949375921056,0.31358663162902684,-2.030185979487859,0.23014541930788848
1773062120299650304,2.26521635055542,0.1688491851091385,-0.8310077786445618,-0.4155001640319824,-0.8481574058532715,-0.3105968236923218,0.42913687229156494,-0.09535443782806396,-0.17054328322410583,0.15057498216629028,-0.5292970458735714,-0.18006135697977466,0.825921507805518,0.07263701037705177,0.31582084889086237,-2.0392035123716745,0.23414874672283012
1773062120309688320,2.275254487991333,0.1867150515317917,-0.9581450819969177,-0.5037936568260193,-0.8428008556365967,-0.3138306736946106,0.43726053833961487,-0.1136046051979065,-0.29557478427886963,0.20498183369636536,-0.5252588216570191,-0.1821326670056452,0.8279238891128626,0.07397847883123035,0.3192248642939908,-2.0493850277428654,0.23802125557566625
1773062120319726336,2.285292387008667,0.04868686944246292,-1.1434388160705566,-0.4926337003707886,-0.8365622758865356,-0.31741493940353394,0.44655534625053406,-0.1127481460571289,-0.39309537410736084,0.3274163603782654,-0.5205721654254362,-0.18417112566971625,0.830276256922879,0.07567734433254043,0.32300219418747034,-2.061115417098765,0.241764057527562
1773062120329763072,2.2953293323516846,-0.15586094558238983,-1.3020380735397339,-0.5383162498474121,-0.8293462991714478,-0.32208746671676636,0.45655688643455505,-0.04458552598953247,-0.32734182476997375,0.34095892310142517,-0.5153289822091484,-0.18567218130749946,0.8329491523202707,0.0784699421941611,0.3279336211760908,-2.0740249591514734,0.24369889819360732
1773062120339801344,2.3053674697875977,-0.10848810523748398,-1.3538402318954468,-0.49284273386001587,-0.8213943243026733,-0.32698574662208557,0.4673241674900055,-0.03059554100036621,-0.14672338962554932,0.15372389554977417,-0.5095854156123867,-0.18696294347467504,0.8358869170343823,0.08161305631140275,0.33311222460298473,-2.0880644950762974,0.24517373990742314
1773062120349838336,2.3154044151306152,-0.26863744854927063,-1.1589503288269043,-0.5505160093307495,-0.8137184977531433,-0.3321000039577484,0.4770451784133911,-0.05768054723739624,-0.019401490688323975,-0.10875898599624634,-0.5042557237759611,-0.1881603952643953,0.8385214687098375,0.08487444585082218,0.3385290666424123,-2.1010466624550483,0.24627481547122498
1773062120359876096,2.325442314147949,-0.21378296613693237,-1.1160457134246826,-0.6372080445289612,-0.8062666058540344,-0.3382765054702759,0.4852868616580963,-0.11855334043502808,0.03990611433982849,-0.16839230060577393,-0.49950634386271725,-0.1894952035734525,0.8406753273167978,0.088600425666954,0.3450848181700404,-2.11260716776839,0.24701387182746123
1773062120369914880,2.3354809284210205,-0.02753634937107563,-1.255868673324585,-0.6609859466552734,-0.7982182502746582,-0.3440355360507965,0.4944564402103424,-0.1179347038269043,0.005504041910171509,0.03604590892791748,-0.49431469179823667,-0.19146947949594398,0.8429517528565718,0.09178650603695113,0.35121143633236157,-2.125394806219054,0.24973031748946142
1773062120379952640,2.3455188274383545,-0.08116202801465988,-1.4318737983703613,-0.7190649509429932,-0.789057731628418,-0.349849671125412,0.5049682855606079,-0.09059607982635498,-0.037891387939453125,0.20827323198318481,-0.4883431660411377,-0.19359839130655518,0.8455789818339696,0.09506194969608414,0.35741063439550147,-2.140083751127562,0.2530752795494374
1773062120389990912,2.3555569648742676,0.24391523003578186,-1.467519760131836,-0.7057496905326843,-0.7789382934570312,-0.3552139699459076,0.5167960524559021,-0.10848236083984375,-0.008891254663467407,0.3762855529785156,-0.4816654843955453,-0.1961344452013749,0.8484864800793785,0.09798128583543979,0.36314296318361916,-2.1565771191351137,0.2579320774185404
1773062120400027648,2.365593910217285,0.23989439010620117,-1.3926897048950195,-0.6534715890884399,-0.7689674496650696,-0.3590284585952759,0.5289493203163147,-0.10868746042251587,-0.025081008672714233,0.27998000383377075,-0.47492871933037695,-0.19900077853104284,0.8513949357040443,0.09983972755047348,0.36722672721276395,-2.1733345723639133,0.2645294354062224
1773062120410065664,2.375631809234619,-0.27254122495651245,-1.3934444189071655,-0.6098633408546448,-0.7592583894729614,-0.3638056814670563,0.5396037697792053,-0.058277010917663574,-0.057413190603256226,0.008720874786376953,-0.46867532996901373,-0.20102691438429465,0.8540433578428637,0.10267217193740441,0.37235030394798513,-2.188666439536285,0.26852763161953114
1773062120420102912,2.385668992996216,-0.9171923995018005,-1.5481562614440918,-0.6494986414909363,-0.7488840222358704,-0.37190425395965576,0.5485069155693054,0.007093310356140137,-0.07508668303489685,-0.07319575548171997,-0.46262952522159895,-0.20150692159297293,0.8565327838621786,0.10826098131178087,0.3810595873886645,-2.2029590140198727,0.26712404726861044
1773062120430140672,2.39570689201355,-0.978900671005249,-1.522980809211731,-0.7732618451118469,-0.7375788688659668,-0.3827097713947296,0.5563369989395142,0.01666206121444702,-0.16282254457473755,-0.12581032514572144,-0.45654457092208334,-0.20138589095605783,0.858843540246663,0.11575244898564281,0.3927275749167488,-2.2170275576129685,0.2630443901188675
1773062120440177664,2.4057438373565674,-0.7358304858207703,-1.3685965538024902,-0.8174474239349365,-0.7263177037239075,-0.393339067697525,0.563690185546875,-0.04879814386367798,-0.2944355010986328,-0.17901623249053955,-0.4506767379989143,-0.20210252119290226,0.860813364804628,0.12265914397501505,0.4042606026873615,-2.2307889725030585,0.26115683070721657
1773062120450215936,2.4157819747924805,-0.7742563486099243,-1.311022400856018,-0.7518228888511658,-0.7155289649963379,-0.4033043384552002,0.5704072713851929,-0.08145302534103394,-0.27418601512908936,-0.15619194507598877,-0.44513857224626385,-0.20299013225336468,0.8625535552277758,0.1290278464185589,0.41512501511436445,-2.243817000655332,0.2600718349026507
1773062120460253696,2.4258198738098145,-0.6660646200180054,-1.2552268505096436,-0.7482444047927856,-0.705129861831665,-0.412916898727417,0.5764471292495728,-0.033303916454315186,-0.09900012612342834,-0.02191227674484253,-0.439873399649909,-0.20369339111880488,0.8641368988223695,0.13523221419635204,0.4256544264684138,-2.256120259831483,0.25878101135328446
1773062120470290688,2.435856819152832,-0.3438026010990143,-1.3379942178726196,-0.872478187084198,-0.694258987903595,-0.4214450418949127,0.5834288001060486,0.009062886238098145,-0.02897927165031433,-0.003579378128051758,-0.4342302099590173,-0.20521403827178425,0.865795362339205,0.14046319862000756,0.43503819806459426,-2.269668331068455,0.26025729302104605
1773062120480328704,2.445894956588745,-0.18488860130310059,-1.3945168256759644,-1.0723737478256226,-0.681941032409668,-0.42966052889823914,0.5919023156166077,0.02042675018310547,-0.12163954973220825,-0.03272867202758789,-0.42777726118485976,-0.20790573323497577,0.8675980419918403,0.14510511486976596,0.44411678959743095,-2.2856291059495466,0.26512656432539183
1773062120490365696,2.4559319019317627,-0.3340473175048828,-1.2844394445419312,-1.1103473901748657,-0.6691035628318787,-0.43852293491363525,0.5999984741210938,-0.025842726230621338,-0.23705995082855225,-0.0376204252243042,-0.4213553910484522,-0.21124098625213025,0.8691239681011321,0.14986808380071687,0.45395450246375385,-2.301796228067802,0.2713589905265288
1773062120500403712,2.4659698009490967,-0.5701450705528259,-1.100807547569275,-0.9635270237922668,-0.6571482419967651,-0.4483736753463745,0.6059017181396484,-0.06283766031265259,-0.25328636169433594,-0.1433621644973755,-0.41580408540813774,-0.21390702601923312,0.8701693238794714,0.15542196635133648,0.4649450501240734,-2.31564313341855,0.27534792665691765
1773062120510440704,2.4760069847106934,-0.9059261083602905,-0.8523802161216736,-0.7374158501625061,-0.6474130749702454,-0.4583868682384491,0.6088820099830627,-0.03526496887207031,-0.15332260727882385,-0.18644261360168457,-0.41170995301026414,-0.21533751647982247,0.870672584294642,0.16141180792425588,0.4761792973485746,-2.3255336708902776,0.27585256863193824
1773062120520478720,2.4860448837280273,-0.9899057149887085,-0.7996030449867249,-0.6498258113861084,-0.6392214298248291,-0.4687718152999878,0.6096299886703491,0.012222588062286377,0.004736870527267456,-0.3525347113609314,-0.4086191087213769,-0.21563239045139043,0.8708143710898341,0.16797425903284505,0.48789985857106144,-2.33250402320212,0.2731348193514872
1773062120530516736,2.4960827827453613,-0.5329965949058533,-0.800842821598053,-0.788777768611908,-0.6309837698936462,-0.4781404137611389,0.6109349727630615,0.056093573570251465,0.12584543228149414,-0.28052109479904175,-0.4053908873717496,-0.21640878421936613,0.8709963954336019,0.17375509247863852,0.49853619606028177,-2.3400524998932863,0.2721735545774888
1773062120540553728,2.506119966506958,0.10342566668987274,-0.918300211429596,-0.9992303252220154,-0.621385931968689,-0.48502469062805176,0.6153298616409302,0.054018259048461914,0.08333700895309448,-0.1497688889503479,-0.4010961948423883,-0.21923141184258296,0.8715517809919805,0.17736118794816516,0.5063913991531473,-2.3512976232832856,0.2778495547388372
1773062120550591744,2.516157865524292,0.026184270158410072,-0.9262064695358276,-0.9796974658966064,-0.6105251312255859,-0.4906938970088959,0.6216738224029541,-0.0009097456932067871,-0.10342222452163696,-0.11315953731536865,-0.3959235916282421,-0.2230087463040765,0.8724127488468144,0.18002090201161064,0.5128859501066418,-2.3652420552543445,0.2868910382543412
1773062120560628736,2.5261948108673096,-0.5385326743125916,-0.7973986864089966,-0.7460131049156189,-0.6008235812187195,-0.4975690245628357,0.6256487369537354,0.001732945442199707,-0.20489990711212158,0.16439026594161987,-0.3916649582984747,-0.22562314237117345,0.8728794762968947,0.18377775552078154,0.5207939881367233,-2.3764328573366997,0.29226623800754753
1773062120570666752,2.5362329483032227,-1.329559326171875,-0.8396852612495422,-0.3420353829860687,-0.5928905010223389,-0.5066815614700317,0.6259028315544128,0.027064144611358643,-0.1489885449409485,0.1781894564628601,-0.3886028018854574,-0.22547093040829613,0.872991572459394,0.18983247919710264,0.5313313367830956,-2.38327393789705,0.2895166437230328
1773062120580703744,2.5462698936462402,-1.8521641492843628,-0.869949996471405,-0.01588124781847,-0.5867071747779846,-0.5179364085197449,0.6225079894065857,0.0996619462966919,0.021003544330596924,0.20422834157943726,-0.3865615859439594,-0.22220460207307216,0.87285687237625,0.19828273928297113,0.5444368344346869,-2.385792493131763,0.2778218227195564
1773062120590741760,2.556307792663574,-1.6238816976547241,-1.08113431930542,0.11710822582244873,-0.5811213254928589,-0.5285465121269226,0.6188187599182129,0.1383570432662964,0.1805850863456726,0.2558302879333496,-0.3844024031770522,-0.2175225431999464,0.8729795740430983,0.2069430799555473,0.5568874912956827,-2.3876002825683154,0.2629874502152159
1773062120600779776,2.5663459300994873,-1.0743852853775024,-1.2684736251831055,-0.07525429129600525,-0.5738438367843628,-0.5366848707199097,0.6186054944992065,0.09384810924530029,0.21962249279022217,0.20616257190704346,-0.3806177931050644,-0.21349845541033868,0.8739114056802064,0.21407333844357174,0.566503306535954,-2.3937144571760216,0.2517642402216331
1773062120610816768,2.576382875442505,-0.7204636335372925,-0.8959649801254272,-0.3365353047847748,-0.5656641721725464,-0.5435339212417603,0.6201574206352234,-0.07232111692428589,0.1645512580871582,0.2314051389694214,-0.37640623743528645,-0.2115339192893807,0.8748326143302473,0.2196354730214875,0.5746415215909575,-2.4021161472895924,0.24643770118604094
1773062120620854528,2.586420774459839,-0.7009251117706299,-0.09315932542085648,-0.1399490088224411,-0.5610629916191101,-0.5493708848953247,0.6191931962966919,-0.30404937267303467,0.07482248544692993,0.2632684111595154,-0.37464710716019667,-0.2108908731538819,0.8747123108479575,0.22370302983879883,0.5816111592501296,-2.4054068732304694,0.24332685032406637
1773062120630891776,2.5964579582214355,-0.8429248332977295,0.3611045777797699,0.36470192670822144,-0.5625863671302795,-0.5536176562309265,0.6140066981315613,-0.30199187994003296,0.11466807126998901,0.205649733543396,-0.37624883986533636,-0.20909502972895383,0.8736604776777835,0.22678955954045804,0.5867021377885737,-2.399869472596548,0.23597881385972339
1773062120640929792,2.6064958572387695,-0.7130251526832581,0.5285543203353882,0.5613332390785217,-0.568340539932251,-0.5555592775344849,0.6069125533103943,-0.003558814525604248,0.3418753147125244,0.2603970170021057,-0.3797653007189582,-0.2060098621013217,0.8723624364797332,0.22874008202859547,0.5890354796148762,-2.389002900895864,0.22523152364414037
1773062120650966528,2.616532802581787,-0.4564981460571289,0.11174429208040237,0.39211276173591614,-0.5731394290924072,-0.5563094019889832,0.6016900539398193,0.272968590259552,0.5401504039764404,0.11890619993209839,-0.3824155937301686,-0.20311529671349063,0.8715441442727104,0.2300287857726968,0.5899378707110192,-2.3804916400169662,0.21602035624140692
1773062120661004800,2.6265709400177,-0.1843435913324356,-0.40099120140075684,0.10802938044071198,-0.5736068487167358,-0.5569270849227905,0.6006726026535034,0.42695462703704834,0.5704463720321655,-0.027384638786315918,-0.38237389269544597,-0.20117784598292127,0.8717016581496967,0.23120111663538828,0.5906814108030123,-2.379239255730392,0.21096627449084535
1773062120671042560,2.636608839035034,0.29510438442230225,-0.7218888998031616,-0.10569289326667786,-0.5700023770332336,-0.5566095113754272,0.6043866276741028,0.46702080965042114,0.4198450446128845,-0.027756989002227783,-0.3797288503581015,-0.20065037779015932,0.8728875879874466,0.23154414918695435,0.5902990638616875,-2.385464563844671,0.21155017384966862
1773062120681079552,2.6466457843780518,0.27685853838920593,-0.9500738382339478,-0.2178468555212021,-0.5640331506729126,-0.5553106665611267,0.6111437082290649,0.3398510217666626,0.11959594488143921,-0.12496817111968994,-0.37553945675306144,-0.20111272845565936,0.8747145421681706,0.23108061220361692,0.5887364853881722,-2.3962611098739957,0.21603863353383415
1773062120691117824,2.656683921813965,-0.10448870062828064,-1.2699816226959229,-0.3280895948410034,-0.5555131435394287,-0.5565794706344604,0.6177574992179871,0.130815327167511,-0.040756285190582275,-0.1340997815132141,-0.37019505392971075,-0.2010807280906369,0.8766101199390588,0.23254424201393278,0.5902628948693146,-2.409196834675476,0.21884248723947158
1773062120701154816,2.6667208671569824,-0.09018086642026901,-1.3129746913909912,-0.4388352930545807,-0.5452378988265991,-0.5593746304512024,0.6243520975112915,-0.0928083062171936,0.000857234001159668,0.13037806749343872,-0.36411347458642546,-0.20104312810096084,0.8784974220258633,0.23504316278959045,0.5936311865858677,-2.4237343246034806,0.22145050811543535
1773062120711192832,2.6767590045928955,-0.11246397346258163,-1.258212685585022,-0.5075435042381287,-0.5344335436820984,-0.5624343156814575,0.6309109330177307,-0.2909754514694214,0.08806902170181274,0.2071322798728943,-0.35793297012799075,-0.20147083008804256,0.8802641544903242,0.23754700084713326,0.5973269856810239,-2.4387948668314285,0.22521041064579816
1773062120721229824,2.686795949935913,-0.2061353474855423,-1.1890051364898682,-0.5477628707885742,-0.5235700607299805,-0.5663949251174927,0.636451780796051,-0.4116867780685425,0.22038674354553223,0.1919173002243042,-0.35202107878012123,-0.2020313271422365,0.8817081398893603,0.2405310437896253,0.6021248719460004,-2.4531990584089156,0.22880046610346122
1773062120731267584,2.696833848953247,-0.14297080039978027,-0.8955824375152588,-0.4895246922969818,-0.5138298273086548,-0.5702723264694214,0.6409123539924622,-0.4330849051475525,0.3954370617866516,0.03280907869338989,-0.34689690532590706,-0.20273236706082817,0.8828112822095061,0.24332372433360094,0.6068373256756833,-2.465806119517424,0.23232477885290836
1773062120741305856,2.70687198638916,0.1343207210302353,-0.8432193398475647,-0.43039771914482117,-0.5058579444885254,-0.5726754069328308,0.6450971961021423,-0.3734602928161621,0.6064431667327881,-0.3177657723426819,-0.34267949139536386,-0.20375143805414694,0.8837612567181411,0.24499407340598248,0.6097657218143577,-2.476586596740548,0.23668843546165266
1773062120751342848,2.7169089317321777,0.5241521000862122,-1.2018986940383911,-0.4794939160346985,-0.4966045022010803,-0.5727941989898682,0.6521431803703308,-0.34740492701530457,0.7837622165679932,-0.8260781764984131,-0.3372110927864629,-0.20494051498245283,0.8854778314448033,0.24539165702568733,0.609910591928637,-2.4907745494932594,0.24326470035133674
1773062120761380608,2.7269468307495117,1.073766827583313,-1.0844264030456543,-0.8505297899246216,-0.48518407344818115,-0.5707847476005554,0.6624203324317932,-0.24549821019172668,0.80073481798172,-0.7794859409332275,-0.3304247401666348,-0.20778448953708759,0.8877137939784437,0.24414990887787505,0.6074612755228631,-2.5094240956806373,0.2555555096693338
1773062120771417600,2.7369837760925293,1.5498336553573608,-0.7654162645339966,-0.9972048997879028,-0.47349444031715393,-0.566400408744812,0.6745323538780212,-0.22099414467811584,0.6079195141792297,-0.3485587239265442,-0.3236848161437401,-0.21304707721049287,0.8898747803259554,0.24075307785035746,0.6021315003697583,-2.5295527694686357,0.27440013899108956
1773062120781455872,2.7470219135284424,2.1147778034210205,-0.4877026379108429,-0.7896775007247925,-0.4642427861690521,-0.5583232641220093,0.6875708699226379,-0.1665860414505005,0.27396053075790405,-0.008280158042907715,-0.3179579902178412,-0.21935460108637936,0.8920027987934515,0.23477067421335063,0.5923633767293953,-2.547710667394945,0.2960468104066829
1773062120791492608,2.75705885887146,2.5982460975646973,-0.35296717286109924,-0.37083256244659424,-0.45805591344833374,-0.544477105140686,0.7026592493057251,-0.05644002556800842,-0.17682123184204102,0.09838157892227173,-0.3127280581936819,-0.2251955051718687,0.8947718113433962,0.22554756778743199,0.5757656009229646,-2.5638905463009105,0.3175848202592592
1773062120801530880,2.767096996307373,2.2975494861602783,-0.5104247331619263,-0.1859540492296219,-0.45388346910476685,-0.5274778604507446,0.7181620597839355,0.16297468543052673,-0.5400727391242981,0.03266185522079468,-0.30777422587007836,-0.22989077146001605,0.8979038147656435,0.21492779245086902,0.5556291113722096,-2.5779704320717274,0.3365323215372373
1773062120811568640,2.777134895324707,1.3787522315979004,-0.9942708015441895,-0.22199779748916626,-0.447346031665802,-0.515276312828064,0.7310072183609009,0.3520244359970093,-0.519742488861084,-0.28682398796081543,-0.30206086019057987,-0.23274220695579143,0.9007411796874704,0.20797965745468985,0.5413300202437756,-2.592426565073814,0.34970720691180174
1773062120821605632,2.7871718406677246,1.687745451927185,-1.0379269123077393,-0.21624404191970825,-0.4385794401168823,-0.5059319734573364,0.7427521347999573,0.3857230842113495,-0.20759940147399902,-0.45903027057647705,-0.29553359591775746,-0.23482237197570893,0.9034569804989717,0.20318409583155378,0.5304620872840496,-2.608203396522277,0.3604286324207419
1773062120831643904,2.7972099781036377,1.6718173027038574,-1.035744547843933,-0.20080329477787018,-0.429456889629364,-0.49428167939186096,0.7558122873306274,0.1722089946269989,0.10078808665275574,-0.5094134211540222,-0.2884681126178824,-0.23712994731460035,0.9064632041173315,0.19718000175192174,0.5170083294177034,-2.6248794286299737,0.3722044907986632
1773062120841680640,2.8072469234466553,1.8292757272720337,-0.6159927248954773,-0.29808056354522705,-0.4215473532676697,-0.48189613223075867,0.7681630253791809,-0.19586911797523499,0.21358546614646912,-0.6830646395683289,-0.28213223536136756,-0.2399128199289875,0.9091333041513564,0.1905781338186319,0.5028174042065204,-2.639691759893819,0.38452402141252134
1773062120851718656,2.8172848224639893,2.084794282913208,-0.21778619289398193,-0.23849740624427795,-0.4174056351184845,-0.46791863441467285,0.7789897918701172,-0.46415573358535767,0.1583481729030609,-0.37077122926712036,-0.277859062171185,-0.24363806028558935,0.9111176615240375,0.18248166669381466,0.4869342001616398,-2.649694032531668,0.39803602498022933
1773062120861755904,2.827322006225586,2.0946717262268066,-0.29732975363731384,0.02278665266931057,-0.4148083031177521,-0.4516852796077728,0.7898826599121094,-0.6101551055908203,0.05530771613121033,-0.4057579040527344,-0.27393121555908007,-0.24681140418616088,0.913249942151771,0.17326394464494993,0.4686533792692568,-2.6580266569692474,0.41030064313517256
1773062120871793664,2.83735990524292,1.7388570308685303,-0.16315053403377533,-0.004597966559231281,-0.4131016731262207,-0.436100035905838,0.7994775176048279,-0.5525051355361938,-0.04006582498550415,-0.40692979097366333,-0.2704864381469129,-0.24912854538709825,0.9152451798108909,0.16461613632818212,0.451260316110716,-2.6646630104822484,0.42003849211656036
1773062120881831680,2.847397804260254,1.1109150648117065,-0.03981287404894829,-0.10318073630332947,-0.41193920373916626,-0.42468664050102234,0.806192934513092,-0.4631980359554291,-0.141917884349823,-0.1816965937614441,-0.26810681891357596,-0.2512768314038162,0.9164913653791601,0.15818402123995148,0.4386157369538372,-2.6692087837200003,0.42800277735269293
1773062120891868928,2.8574349880218506,0.37853869795799255,0.6879240870475769,-0.19689549505710602,-0.4134792685508728,-0.41932857036590576,0.8082072734832764,-0.32245221734046936,-0.2348768711090088,-0.04940277338027954,-0.26827064373277204,-0.2530571770951959,0.9165509883117511,0.15468475799305836,0.43270558664221936,-2.6687077585105627,0.4329529883176334
1773062120901906688,2.8674728870391846,-0.08481109142303467,2.8047592639923096,-0.7480079531669617,-0.4250994920730591,-0.42040833830833435,0.8015903830528259,-0.01630672812461853,-0.23388847708702087,0.0360713005065918,-0.27550457541649925,-0.25670640789261834,0.913726983163284,0.15264995770629594,0.4338953279920682,-2.653984199898055,0.4382195995088356
1773062120911943680,2.877509832382202,1.1673389673233032,2.412307024002075,-0.011282367631793022,-0.44660618901252747,-0.4193366467952728,0.790379524230957,0.3864102363586426,-0.17461171746253967,0.33373546600341797,-0.28810595878827794,-0.2617342733002755,0.9092221627719065,0.14766590437537266,0.4327144805387244,-2.6272660742001386,0.4450969236741193
1773062120921981696,2.8875479698181152,2.787621259689331,-0.7941663861274719,1.1967605352401733,-0.4553722143173218,-0.39977964758872986,0.795495331287384,1.0384564399719238,0.04663023352622986,0.7159337997436523,-0.28934898227691813,-0.2625313237757996,0.910398247166297,0.1361235553093101,0.4112764207565223,-2.621685477830665,0.45066328783084064
1773062120932018688,2.897584915161133,2.268598794937134,-1.6933399438858032,1.1338260173797607,-0.44830864667892456,-0.3728683292865753,0.812396764755249,1.1981103420257568,0.4843032658100128,0.5979578495025635,-0.27991383830419303,-0.2593100671492531,0.9159457773438069,0.12429741351871058,0.38209837121099083,-2.6373419964624327,0.4522095516116838
1773062120942056704,2.907622814178467,1.7794075012207031,0.1951664835214615,-0.4007265269756317,-0.4441055655479431,-0.3551638722419739,0.8225746154785156,0.338652104139328,0.9212496280670166,0.16805648803710938,-0.27449625126669674,-0.2601108499974448,0.9184931424570818,0.11560508266049947,0.36308934714135027,-2.646539130378631,0.45922325125125496
1773062120952094720,2.91766095161438,0.9581974744796753,0.8306615948677063,-0.43480342626571655,-0.4454523026943207,-0.3455752432346344,0.825923502445221,-1.1231664419174194,0.3928012549877167,-0.8986318111419678,-0.2740831946410469,-0.2647660118735891,0.9180744601552926,0.109162935188536,0.3528517166054726,-2.6469717393167547,0.4715854876598481
1773062120962131712,2.9276978969573975,0.712546169757843,2.7352840900421143,0.052214182913303375,-0.46001508831977844,-0.33971190452575684,0.8203544616699219,-1.081015706062317,-0.498148113489151,-0.0974237322807312,-0.281341588961101,-0.2675191097696478,0.9157569341187598,0.1032934529112355,0.34661055776333954,-2.6305323529655635,0.4770373518788515
1773062120972169728,2.9377357959747314,0.5416918992996216,2.302525043487549,0.13858914375305176,-0.4825773239135742,-0.333713173866272,0.8097867369651794,-0.23931598663330078,-0.8705257177352905,0.3443880081176758,-0.29293952641666643,-0.26936683171959613,0.9123238927229657,0.09640040278985268,0.3402398112235745,-2.6041701742749197,0.4796568957865308
1773062120982206720,2.947772979736328,-0.20605313777923584,0.8533704876899719,0.38369691371917725,-0.49588507413864136,-0.3310359716415405,0.8028154969215393,0.324361115694046,-0.6615481376647949,-0.04468274116516113,-0.2998682256956577,-0.26924449154322755,0.910447772694103,0.09311914822897695,0.3374012425881189,-2.58827267029302,0.4784187264970506
1773062120992244736,2.957810878753662,-0.5298537015914917,-0.2114216536283493,0.4515506625175476,-0.4996437728404999,-0.33213233947753906,0.8000277876853943,0.8005470037460327,-0.10327723622322083,-0.39769911766052246,-0.3019257008216235,-0.266719715477788,0.910425443294593,0.09395237457525343,0.33856334853234116,-2.583329207606696,0.4720777262880275
1773062121002281728,2.9678478240966797,-0.10929743945598602,0.19722309708595276,0.33137792348861694,-0.5001140832901001,-0.3330203592777252,0.799364447593689,0.6088634133338928,0.18557465076446533,-0.4598410129547119,-0.3021112920143531,-0.264367702017287,0.9109291627469497,0.09511354881598404,0.33950495660307606,-2.5825335139053713,0.4665954086704384
1773062121012319744,2.9778859615325928,0.08596140891313553,0.7664912343025208,0.3682958483695984,-0.5054731965065002,-0.3310239613056183,0.796818733215332,-0.035756051540374756,-0.023971766233444214,-0.43918323516845703,-0.30463984868451743,-0.26314082529032873,0.9105856783562365,0.0937295645616364,0.33738850710445156,-2.5762879141233768,0.46378537015772664
1773062121022357760,2.9879238605499268,-0.17555995285511017,1.1307450532913208,0.4080493748188019,-0.5142712593078613,-0.3293294608592987,0.7918758988380432,-0.31966733932495117,-0.22061261534690857,-0.3013972043991089,-0.30916229972840786,-0.26165309466012354,0.909656857359264,0.09209126767780788,0.33559332184973417,-2.5656152837253323,0.4598868515022037
1773062121032394752,2.9979608058929443,-0.1892414540052414,1.3401330709457397,0.19961455464363098,-0.5254213809967041,-0.3292877972126007,0.7845392823219299,-0.22128266096115112,-0.1082121729850769,0.21161550283432007,-0.3154016633997827,-0.2605021610151168,0.9079693011047594,0.09084127334856432,0.33554921519359177,-2.551479419591847,0.45594299312562725
1773062121042432768,3.0079989433288574,-0.12148743867874146,0.86244797706604,-0.017043450847268105,-0.5344951152801514,-0.330026775598526,0.778072714805603,-0.12888073921203613,0.09520930051803589,0.18686246871948242,-0.3207400733851585,-0.26035454235068967,0.9062294826558456,0.08994107274025458,0.3363319378137469,-2.5396805993534977,0.45422954634056495
1773062121052469760,3.018035888671875,0.11851410567760468,0.7842438817024231,-0.008044762536883354,-0.5403937697410583,-0.33041343092918396,0.7738223671913147,-0.07888400554656982,0.21594205498695374,0.13988900184631348,-0.3242671322334268,-0.26081740292022537,0.9049229134552176,0.08910394323884636,0.3367415649979529,-2.531979335185575,0.4543771377597714
1773062121062507520,3.028073787689209,0.2836460769176483,1.2459113597869873,0.22689318656921387,-0.5485720038414001,-0.3279917538166046,0.7690838575363159,-0.0816311240196228,0.2316783368587494,0.2528277635574341,-0.32858632016586914,-0.2611363743395854,0.903520733320627,0.08653927916466753,0.33417693396796894,-2.522009538003999,0.454836787692602
1773062121072544768,3.0381109714508057,0.15585553646087646,1.5141990184783936,0.26963239908218384,-0.560200572013855,-0.3248979151248932,0.7619821429252625,-0.09205162525177002,0.2531816065311432,0.10103976726531982,-0.334766962398898,-0.2608901244211388,0.9016248807530388,0.08330688993091831,0.3309037887325856,-2.5076384652183306,0.45388460330701136
1773062121082582784,3.0481488704681396,0.3265385925769806,1.4848928451538086,0.2580510973930359,-0.5726175904273987,-0.32175135612487793,0.7540456652641296,-0.09173476696014404,0.17438200116157532,-0.015703558921813965,-0.34146278240373473,-0.26072910772993396,0.8994682644884303,0.07987651049000148,0.32757861261441046,-2.492106557326396,0.4531100400473863
1773062121092620800,3.0581870079040527,0.26362359523773193,1.2263684272766113,0.31307774782180786,-0.5838320255279541,-0.3175770044326782,0.7471849322319031,-0.003005802631378174,-0.048633962869644165,-0.11235815286636353,-0.34729807772692456,-0.2605163929047283,0.8976211187444904,0.07610300596517962,0.3231731261554968,-2.47831171525862,0.45279016047298576
1773062121102657792,3.0682239532470703,0.08638356626033783,1.0696325302124023,0.37694859504699707,-0.5934233069419861,-0.31401655077934265,0.7411088347434998,0.12337630987167358,-0.21740129590034485,-0.13167285919189453,-0.35228367790256115,-0.25976593656166996,0.8961451225513581,0.07308746229150194,0.3194206251848071,-2.466410655037123,0.4513070217207788
1773062121112695808,3.0782618522644043,-0.12932191789150238,0.8264830708503723,0.3636338412761688,-0.6014084219932556,-0.31211134791374207,0.735455334186554,0.14054715633392334,-0.2817607522010803,-0.09609681367874146,-0.35660811862138003,-0.2583291080331411,0.8949825391328556,0.07143537458671319,0.3174145805182366,-2.456130175356736,0.4479134722378399
1773062121122732544,3.088298797607422,-0.3038178086280823,1.0019302368164062,0.36201223731040955,-0.6094677448272705,-0.31142234802246094,0.7290850281715393,0.06509530544281006,-0.2424716353416443,-0.009404301643371582,-0.3612271663278724,-0.2566030942035031,0.8936986979575239,0.07051500394073769,0.3166894503539656,-2.4453208721288404,0.4434335747128085
1773062121132770816,3.098336935043335,-0.4201212227344513,1.0642940998077393,0.28423798084259033,-0.6178556084632874,-0.31210342049598694,0.721696138381958,-0.026217758655548096,-0.0762174129486084,-0.032655298709869385,-0.36635373523538395,-0.25486073494978767,0.8921289610122946,0.07026173866924047,0.3174062525061092,-2.4335586247936223,0.43836374278165446
1773062121142807808,3.1083738803863525,-0.1750672608613968,1.191623330116272,0.23710773885250092,-0.626750648021698,-0.3127211332321167,0.7137148380279541,-0.11098122596740723,0.07859030365943909,0.03633087873458862,-0.37185747849292444,-0.25350330855635833,0.890277194914884,0.06974622144769226,0.31805651509512717,-2.4209797847265495,0.4341069393958265
1773062121152845568,3.1184117794036865,0.020419415086507797,1.3399749994277954,0.31948089599609375,-0.6367685198783875,-0.31147709488868713,0.7053428292274475,-0.13666915893554688,0.13366633653640747,0.019037902355194092,-0.37778042718167176,-0.25260491234891086,0.8881791297090356,0.06790224260071537,0.3167470568185893,-2.4072444535063653,0.43148187275124283
1773062121162882816,3.128448963165283,0.037553127855062485,1.3650869131088257,0.37929603457450867,-0.6473085284233093,-0.30893000960350037,0.6968171000480652,-0.10360705852508545,0.10159355401992798,-0.009881675243377686,-0.3838213988897301,-0.2515392060404499,0.8860793331796585,0.06536534519144806,0.3140678194303566,-2.3930111514578876,0.4289715280516727
1773062121172920576,3.138486862182617,0.01718522608280182,1.3675756454467773,0.37941974401474,-0.6581322550773621,-0.3062226176261902,0.6878154873847961,-0.04368060827255249,0.04961550235748291,0.024510681629180908,-0.39007111497000585,-0.2503457703944345,0.8838748373705473,0.06274491388742591,0.31122247132344905,-2.378244690021215,0.42625235613383083
1773062121182958848,3.1485249996185303,-0.14700184762477875,1.1984750032424927,0.3555772602558136,-0.6680439710617065,-0.3041705787181854,0.6791155338287354,0.0012957453727722168,-0.03063783049583435,0.016105592250823975,-0.3959297432531132,-0.24897955586618586,0.8817975606872244,0.06067932252171975,0.30906763388472264,-2.3644127624750197,0.42300245033438366
1773062121192995840,3.158561944961548,-0.23325999081134796,1.1301828622817993,0.3261691629886627,-0.6769351363182068,-0.3032194674015045,0.6706835031509399,0.04177296161651611,-0.12463691830635071,0.09703177213668823,-0.4014060448755658,-0.2474441828046296,0.879836985671482,0.05942480429897314,0.30806936745295127,-2.3515554996067354,0.4190241732262954
1773062121203033600,3.168599843978882,-0.38421088457107544,1.0825685262680054,0.3297189176082611,-0.6853914856910706,-0.3029765784740448,0.6621509194374084,0.04830652475357056,-0.2048664391040802,0.19488954544067383,-0.4067910054423099,-0.24571888127520616,0.8778939024509627,0.05869964616754493,0.3078144998868926,-2.3389496045606175,0.41435113243192345
1773062121213070592,3.1786367893218994,-0.5574445724487305,0.9627134799957275,0.3130592405796051,-0.6930984258651733,-0.30391237139701843,0.6536452174186707,0.047041237354278564,-0.20557862520217896,0.1870378851890564,-0.41195731402144975,-0.2436196928264865,0.8760548228662173,0.058895025831574264,0.30879659352447064,-2.3269076153296337,0.4083626074408889
1773062121223108864,3.1886749267578125,-0.5839816331863403,0.9343026280403137,0.3111279010772705,-0.7002167701721191,-0.305512934923172,0.6452580690383911,0.05571615695953369,-0.09409943222999573,0.25313353538513184,-0.41690934725492584,-0.24132274345718135,0.874295356477142,0.05964432103568994,0.310477058721878,-2.3153701355590557,0.4016455906592822
1773062121233146624,3.1987128257751465,-0.4819381535053253,0.8871235847473145,0.2889957129955292,-0.7070134282112122,-0.3068259656429291,0.6371736526489258,0.06240570545196533,0.020632058382034302,0.24025267362594604,-0.4216436655332987,-0.23916217760098246,0.8725756501157163,0.06024895168939385,0.3118563464174528,-2.304284243757606,0.3953640568399149
1773062121243183872,3.208750009536743,-0.41232553124427795,0.8776390552520752,0.29983264207839966,-0.7135016918182373,-0.3075777292251587,0.6295326948165894,0.043961286544799805,0.030142396688461304,0.10612404346466064,-0.42611147883070627,-0.23721668120194575,0.8709159454571063,0.0605203196382775,0.31264629871185,-2.2937538897761067,0.3898372535364664
1773062121253221632,3.218787908554077,-0.38991355895996094,0.8669381141662598,0.26250776648521423,-0.7198938727378845,-0.3079601526260376,0.6220237016677856,0.05412238836288452,-0.005638480186462402,0.07695090770721436,-0.43048693496916945,-0.23537460665718102,0.8692586752348865,0.0605739027503752,0.31304825149139875,-2.2833903107512667,0.3847092405738348
1773062121263258624,3.2288248538970947,-0.20980024337768555,0.7996194958686829,0.25073766708374023,-0.7258155345916748,-0.30807411670684814,0.615046501159668,0.07931596040725708,-0.039292216300964355,0.07143115997314453,-0.43454415741185426,-0.23387907934829222,0.8676542039965272,0.06039994831433965,0.3131680207769024,-2.27377130159263,0.380542980451817
1773062121273296896,3.238862991333008,-0.16875876486301422,0.6131994128227234,0.2424766719341278,-0.7310311198234558,-0.3072786331176758,0.6092395782470703,0.10993754863739014,-0.045687586069107056,0.07656657695770264,-0.4379565433554105,-0.23254875589596702,0.866337610107881,0.05978393573197229,0.3123319955550193,-2.2655725303128706,0.3772752779814988
1773062121283333888,3.2488999366760254,-0.135696679353714,0.6100028157234192,0.1448390632867813,-0.7352937459945679,-0.30682727694511414,0.604318380355835,0.1274750828742981,0.00014084577560424805,0.06540548801422119,-0.4408183127435023,-0.23157296475825487,0.8651781113917668,0.05933117414206672,0.311857715206126,-2.258733180279093,0.3747625791526865
1773062121293371648,3.2589378356933594,-0.0748818963766098,0.532017171382904,0.11817442625761032,-0.7390434145927429,-0.3064878284931183,0.5998998880386353,0.07157832384109497,-0.004028499126434326,0.08914119005203247,-0.44338339919483044,-0.23097316075672125,0.8640609575313632,0.05883178703103913,0.3115010901404245,-2.252645751546758,0.3731199772529686
1773062121303409920,3.2689759731292725,-0.09662367403507233,0.5287209749221802,0.13703866302967072,-0.7427087426185608,-0.3059999346733093,0.5956069827079773,0.044603943824768066,-0.037612706422805786,0.1559036374092102,-0.44587199951398204,-0.23037993510676086,0.8629765772576778,0.05826346457673549,0.3109885694561581,-2.2467183768762613,0.37157729774629905
1773062121313446656,3.27901291847229,-0.2231358140707016,0.44696250557899475,0.16847434639930725,-0.7461264729499817,-0.3057815134525299,0.5914332866668701,0.026354074478149414,-0.06215372681617737,0.15705615282058716,-0.4482378542028676,-0.2295161775337188,0.8619970811890784,0.058019818767510445,0.310759143911297,-2.241052751274382,0.3692977124624203
1773062121323484672,3.289050817489624,-0.32710403203964233,0.41881901025772095,0.18016855418682098,-0.7491329908370972,-0.30616068840026855,0.5874226093292236,0.008608698844909668,-0.09561845660209656,0.14780688285827637,-0.45042228315403027,-0.22823786910676164,0.8611729092602373,0.058381918019258676,0.31115743554853753,-2.2357893387811707,0.3657906266826218
1773062121333521920,3.2990880012512207,-0.30817556381225586,0.3278469145298004,0.1622306853532791,-0.7519859671592712,-0.3067118227481842,0.5834763050079346,0.002062380313873291,-0.12775158882141113,0.10706007480621338,-0.4525387461644676,-0.22687636848547396,0.8603867007408919,0.05891021800216735,0.3117364243082688,-2.2306770738063935,0.3620091421207963
1773062121343559680,3.3091259002685547,-0.2663615345954895,0.20019066333770752,0.057980991899967194,-0.7537495493888855,-0.30762210488319397,0.5807151794433594,0.0007437467575073242,-0.11240655183792114,0.0244026780128479,-0.4539628610656253,-0.2258019847597749,0.8598668736790028,0.059666610559321466,0.3126929499465329,-2.2272481578303784,0.35882619363149915
1773062121353596672,3.3191628456115723,-0.029205041006207466,0.28740614652633667,0.08612008392810822,-0.7553515434265137,-0.3080727159976959,0.5783904790878296,-0.011662125587463379,-0.030611395835876465,0.14441841840744019,-0.4552064898308859,-0.22524744659919435,0.8593362736862478,0.05993260834990975,0.31316656453658615,-2.224284800593251,0.3571068099267594
1773062121363634944,3.3292012214660645,0.11843368411064148,0.2401435375213623,0.09295748919248581,-0.7572331428527832,-0.30694931745529175,0.5765239596366882,-0.014159560203552246,0.05667471885681152,0.15737801790237427,-0.4563356113407004,-0.22504356148953408,0.8588465440506579,0.059124966947465,0.31198595945943974,-2.2215257380399565,0.3569991879045778
1773062121373673216,3.3392393589019775,0.06707151234149933,0.21490849554538727,0.019498182460665703,-0.7586583495140076,-0.306045800447464,0.5751286745071411,-0.044564127922058105,0.08590734004974365,0.020299673080444336,-0.4571956084616469,-0.22509390309005642,0.858427089073779,0.0583753157461716,0.31103673798244613,-2.219452758438427,0.35742495546247766
1773062121383710208,3.349276304244995,0.0184099692851305,0.3036966919898987,0.04530581086874008,-0.7602342367172241,-0.30557021498680115,0.5732978582382202,-0.08249330520629883,0.026242882013320923,0.043660640716552734,-0.4582660326642131,-0.22515792761996065,0.8578769333779656,0.057820498685928465,0.3105372195654695,-2.2169206506496923,0.35764051021565624
1773062121393747968,3.359314203262329,-0.09368332475423813,0.2860131859779358,0.05936237424612045,-0.7621722221374512,-0.3053262531757355,0.5708494782447815,-0.04051625728607178,-0.06352442502975464,0.06322938203811646,-0.45964126960177903,-0.2249172348885252,0.8572263329406885,0.05748992928204744,0.3102810201509651,-2.2136424049253605,0.35698119796279343
1773062121403785216,3.369351387023926,-0.18677759170532227,0.11130926758050919,0.02473754994571209,-0.7634697556495667,-0.30581575632095337,0.5688499808311462,0.0219537615776062,-0.10482871532440186,0.06123107671737671,-0.4606915173820683,-0.2244587917387365,0.8567632291395096,0.057777483039857254,0.31079512965558187,-2.2111444763534003,0.3554966526956614
1773062121413823232,3.3793892860412598,-0.21129156649112701,0.0015986125217750669,0.019497649744153023,-0.763813316822052,-0.3068242371082306,0.5678450465202332,0.0521586537361145,-0.08152720332145691,0.07989048957824707,-0.4611381505268924,-0.22390344031042472,0.8566153001148984,0.05855802089582242,0.3118545173866249,-2.210082157851951,0.3536184846580432
1773062121423859968,3.3894262313842773,-0.13259916007518768,0.010369467549026012,0.025278041139245033,-0.763886570930481,-0.3076481819152832,0.5673003792762756,0.03299063444137573,-0.0373988151550293,0.06888425350189209,-0.4613438481854406,-0.22339864235205995,0.856588133658523,0.059258936512777007,0.31272034709091895,-2.209576803423769,0.3519882030883459
1773062121433898240,3.3994643688201904,-0.07966066896915436,0.057360146194696426,0.030837921425700188,-0.7641435265541077,-0.3080269992351532,0.5667489171028137,-0.027268946170806885,-0.017259925603866577,0.01358872652053833,-0.4615981213834395,-0.223051968347816,0.856517521862986,0.05960546243041357,0.3131184837568543,-2.2089504250830427,0.3509434297349261
1773062121443936000,3.4095022678375244,-0.044683512300252914,0.12557435035705566,0.06926360726356506,-0.7648367285728455,-0.3080067038536072,0.5658239722251892,-0.06168609857559204,0.0005726218223571777,0.018709778785705566,-0.462091989111802,-0.22271813264346185,0.8563344026896013,0.05965787772066228,0.3130971788883765,-2.207735486454969,0.3500895069438795
1773062121453972992,3.419539213180542,0.016041265800595284,0.12795495986938477,0.08614139258861542,-0.7657984495162964,-0.3075091242790222,0.5647928714752197,-0.04859364032745361,0.01899591088294983,0.009258031845092773,-0.4626815506343979,-0.22238557376876977,0.8561197854143565,0.05940857056644776,0.31257418898067285,-2.2062632836425418,0.3494632076121073
1773062121464011264,3.429577350616455,0.12861120700836182,0.11377255618572235,0.07957323640584946,-0.7667720913887024,-0.3063664734363556,0.5640922784805298,-0.03390234708786011,0.007385760545730591,-0.055074334144592285,-0.4631479926996187,-0.2222256776857062,0.8559567030013682,0.05871775122213833,0.3113735841849972,-2.2050638640606115,0.3495884884851007
1773062121474048256,3.4396142959594727,0.04238543286919594,0.14776434004306793,0.04752715304493904,-0.7676294445991516,-0.3053552210330963,0.5634747743606567,-0.018686652183532715,-0.024433046579360962,-0.12107658386230469,-0.46356964466321476,-0.22225011929801644,0.855769994376167,0.05801699714046611,0.31031145247672964,-2.2040080167767813,0.3500890158784966
1773062121484086016,3.4496521949768066,-0.07760941237211227,0.17412137985229492,0.10330253839492798,-0.7688283920288086,-0.30494898557662964,0.5620580315589905,-0.001847386360168457,-0.025556445121765137,-0.06042534112930298,-0.46436172649057744,-0.22189909402303304,0.8554471416928671,0.05778620000058903,0.3098848487855607,-2.2020638286363843,0.34934433533286435
1773062121494123264,3.4596893787384033,0.03888737037777901,0.1569162905216217,0.10081513971090317,-0.770073413848877,-0.3042759597301483,0.5607165694236755,0.04114574193954468,0.007645100355148315,0.008573532104492188,-0.46512144505229003,-0.22141248500699465,0.8551811540253786,0.05747821724005641,0.3091782634769833,-2.200155672120261,0.34842242025493664
1773062121504161024,3.4697272777557373,0.14965809881687164,0.15830886363983154,0.047066960483789444,-0.771224856376648,-0.30316007137298584,0.5597372651100159,0.035537660121917725,0.044676274061203,-0.012740373611450195,-0.465741945969304,-0.22136939342253537,0.8549059807570799,0.056706844860768144,0.30800703645829347,-2.198613668516338,0.3487911188747309
1773062121514199296,3.4797654151916504,0.21427063643932343,0.1754865199327469,0.030897842720150948,-0.7722426056861877,-0.3018271327018738,0.5590541958808899,-0.0041550397872924805,0.07410499453544617,-0.05580419301986694,-0.4662367756435033,-0.22168982480576824,0.8546231456280025,0.05564279506845124,0.30660859484935843,-2.197406732405459,0.3501464025542332
