time,seconds_elapsed,rotationRateX,rotationRateY,rotationRateZ,gravityX,gravityY,gravityZ,accelerationX,accelerationY,accelerationZ,quaternionW,quaternionX,quaternionY,quaternionZ,pitch,roll,yaw
1773062114468233472,0.6539962291717529,-8.143226623535156,-3.6370701789855957,3.951112747192383,-0.34270814061164856,0.41484153270721436,-0.8428865075111389,0.28445008397102356,0.46719276905059814,0.18695694208145142,-0.23113346528899087,0.22528613543182613,-0.16674205581241605,0.9316762115650608,-0.4277686483077389,-0.3861733616517036,-2.740131135230014
1773062114478289408,0.6640522480010986,-7.722720623016357,-3.679360866546631,3.565002202987671,-0.3556511402130127,0.4934566915035248,-0.7937334179878235,0.1600029468536377,0.5503512620925903,0.12271296977996826,-0.24261139529807135,0.24824804943452403,-0.20373066252802977,0.9154269613613676,-0.5160595533672026,-0.4212509352646978,-2.736181522717829
1773062114488344320,0.6741073131561279,-7.384825229644775,-3.771383285522461,2.9890410900115967,-0.36692044138908386,0.5635796189308167,-0.7400996685028076,0.049217164516448975,0.6115912795066833,0.08023333549499512,-0.251878368771271,0.27095546942921117,-0.2377673434944856,0.8981131489434235,-0.5987127570867349,-0.46025922715694767,-2.7390966012920237
1773062114498400512,0.6841633319854736,-7.152719020843506,-3.8113036155700684,2.4494614601135254,-0.3779095411300659,0.6257553100585938,-0.6823596358299255,-0.05412781238555908,0.6425857543945312,0.12419313192367554,-0.25852007272201355,0.2938250318697141,-0.2692341585401496,0.8799699722035573,-0.6760994501273494,-0.505777051520378,-2.75130153896459
1773062114508455168,0.6942181587219238,-6.863397598266602,-3.7465827465057373,2.061509132385254,-0.38795003294944763,0.6804046034812927,-0.6217268705368042,-0.1571396291255951,0.63507080078125,0.12757104635238647,-0.2630032970540108,0.3163648558117872,-0.29841219213330156,0.8612158056644594,-0.7483145852245168,-0.5578711766035211,-2.7727838741154165
1773062114518511360,0.7042741775512695,-6.578731060028076,-3.567422866821289,1.7406153678894043,-0.396256685256958,0.7278545498847961,-0.559650182723999,-0.2778613269329071,0.5544635057449341,0.1018102765083313,-0.26587303130753287,0.33802814090360833,-0.32544104783880945,0.8421024834605217,-0.8151880484042218,-0.6161039016976082,-2.8030066887589427
1773062114528566272,0.7143292427062988,-6.392947673797607,-3.422403573989868,1.3007115125656128,-0.4033315181732178,0.7684009671211243,-0.4968739449977875,-0.4138071537017822,0.45272940397262573,0.06630140542984009,-0.26687176391369233,0.35873343888079323,-0.35053294549598835,0.8229316769848127,-0.8763387997846526,-0.6818574698617892,-2.843857346232794
1773062114538622464,0.7243852615356445,-6.488411903381348,-3.193876028060913,0.7898521423339844,-0.41058608889579773,0.8026983737945557,-0.43254414200782776,-0.5405247211456299,0.35403990745544434,0.08168357610702515,-0.2652876722794152,0.378992862163417,-0.37428911586618785,0.8036756325666137,-0.9318060522612123,-0.7593605554045718,-2.8999656371613227
1773062114548678400,0.7344412803649902,-6.677082061767578,-3.001567840576172,0.29537123441696167,-0.418628990650177,0.8313807249069214,-0.36545270681381226,-0.6025806665420532,0.29908186197280884,0.12650009989738464,-0.26056815734736666,0.39904945327214214,-0.3975338703782285,0.7841112424950651,-0.9815877134399396,-0.8531142868758658,-2.9764430406587197
1773062114558733568,0.7444963455200195,-5.990754127502441,-2.163367509841919,0.1700173169374466,-0.42636802792549133,0.853834867477417,-0.2986241579055786,-0.600121259689331,0.2587292194366455,0.09841358661651611,-0.2534420035166753,0.4177717706448287,-0.4197078367079036,0.7649047572125435,-1.0233084224285116,-0.9598082756267217,-3.070388067924689
1773062114568789504,0.7545523643493652,-7.255799770355225,-3.0720653533935547,-0.7111055254936218,-0.437160462141037,0.8701297640800476,-0.22751972079277039,-0.4619332551956177,0.20833104848861694,-0.15782573819160461,-0.24344020595914198,0.43775588081382927,-0.44114615327525775,0.7446454759856772,-1.0554655145888772,-1.0909236666396611,3.093533906557413
1773062114578844416,0.7646071910858154,-6.090669631958008,-3.1676082611083984,-0.7051956653594971,-0.44950592517852783,0.879915177822113,-0.1539277285337448,-0.37111178040504456,0.41695982217788696,0.250149667263031,-0.23276636274043894,0.45914869928395724,-0.46067190583318396,0.7230378299257236,-1.0756836423707237,-1.2408744148720965,2.9586534670250497
1773062114588900352,0.7746632099151611,-5.340270042419434,-2.665724515914917,-0.9151754975318909,-0.46014919877052307,0.8832166790962219,-0.09050372987985611,-0.46955353021621704,0.3671494722366333,-0.3330497145652771,-0.22329944912862804,0.47784589493475776,-0.47582710893164737,0.7038388920136243,-1.0826776595045362,-1.3765917892339243,2.8375238373032508
1773062114598955520,0.7847182750701904,-5.425874710083008,-2.558234930038452,-1.5548779964447021,-0.4727196991443634,0.8807027339935303,-0.02997494675219059,-0.5243657827377319,0.3119545578956604,-0.23510074615478516,-0.21179435977089997,0.49579195601177856,-0.4890836974684218,0.6856606062536723,-1.07734374544713,-1.5074715496848468,2.718385813115562
1773062114609011456,0.7947742938995361,-5.1071014404296875,-2.6515488624572754,-1.7891751527786255,-0.48766323924064636,0.8725472688674927,0.029082750901579857,-0.5307388305664062,0.19231784343719482,-0.0561060905456543,-0.19921353142183662,0.5143769564274606,-0.49995772062185506,0.6676620440174135,-1.0603924792293615,-1.630362731124345,2.6083849789259195
1773062114619066368,0.8048293590545654,-5.009664535522461,-2.4966650009155273,-1.9083561897277832,-0.5021853446960449,0.8604753613471985,0.08597853034734726,-0.5309568047523499,0.10894608497619629,-0.11449717730283737,-0.1864323889307055,0.5325320221474333,-0.5093121923303404,0.6498106320610895,-1.0362020040062858,-1.7403610463406156,2.511607700445415
1773062114629122304,0.814885139465332,-4.888519763946533,-2.2113916873931885,-2.1052749156951904,-0.5166828036308289,0.8445640802383423,0.14053620398044586,-0.5355785489082336,0.11797559261322021,-0.08323943614959717,-0.1725676567105704,0.5497658643647454,-0.5177118879672191,0.6324178375547498,-1.0057505300478993,-1.8363685908386753,2.4267964648213836
1773062114639177216,0.8249402046203613,-4.718272686004639,-2.018143653869629,-2.2693421840667725,-0.5315393805503845,0.8249884247779846,0.19198977947235107,-0.4987035393714905,0.06127256155014038,-0.07324588298797607,-0.15774376107481047,0.5661077928914832,-0.5248969984688611,0.6157288869914156,-0.9701817345177913,-1.9174100910336855,2.3551415043060264
1773062114649233408,0.834996223449707,-4.533383369445801,-1.9163718223571777,-2.3519392013549805,-0.5462090969085693,0.802370548248291,0.24053551256656647,-0.41663575172424316,0.033765316009521484,-0.03748679161071777,-0.14253848564661004,0.5817621814479911,-0.5308677061682048,0.5995123758844512,-0.9312565570037225,-1.9856153142994961,2.2956797532580464
1773062114659288320,0.8450512886047363,-4.441892623901367,-1.775903344154358,-2.3762128353118896,-0.5600770711898804,0.7773581147193909,0.2864055931568146,-0.32973921298980713,0.03382962942123413,-0.018201828002929688,-0.1272257667470948,0.5966574560218221,-0.5359129437702641,0.5836187494350037,-0.8904550623178498,-2.0434970727593105,2.2460508713195972
1773062114669344512,0.855107307434082,-4.3881072998046875,-1.5563855171203613,-2.4542276859283447,-0.5735363960266113,0.7500641942024231,0.32933202385902405,-0.2715868353843689,0.03803694248199463,-0.009065300226211548,-0.11137685969832693,0.61052943928754,-0.540296051318232,0.5682685354099211,-0.8481591379540343,-2.0920389410287905,2.204001731884394
1773062114679399936,0.8651628494262695,-4.653485298156738,-1.435978889465332,-2.361697196960449,-0.5860505700111389,0.7201041579246521,0.3714766204357147,-0.21358633041381836,0.0112496018409729,-0.04924151301383972,-0.09470485833949364,0.6236992867641789,-0.5447361786963967,0.5525330391446749,-0.8039524484741734,-2.1357446592004377,2.1652205668948965
1773062114689455872,0.8752188682556152,-4.616454601287842,-1.2510673999786377,-2.4125006198883057,-0.5976345539093018,0.6876020431518555,0.4123547375202179,-0.08534884452819824,0.07448291778564453,0.011854887008666992,-0.07712913121230885,0.6359077381099962,-0.5493621011534396,0.5365386690010838,-0.758181295352711,-2.174764462806139,2.128874439949963
1773062114699511040,0.8852739334106445,-4.415205478668213,-1.4345637559890747,-2.3616998195648193,-0.6079424023628235,0.653190016746521,0.45138585567474365,0.003175497055053711,0.03344029188156128,-0.023269951343536377,-0.05943912438502104,0.6474014606840769,-0.5536824756963992,0.5203596629083399,-0.7117897503095798,-2.209468076493423,2.0962390548042715
1773062114709566720,0.8953297138214111,-4.253807544708252,-1.0168815851211548,-2.106837272644043,-0.6163967251777649,0.6190847158432007,0.4866105616092682,0.042009949684143066,-0.011906862258911133,-0.05869293212890625,-0.042972004678104386,0.6579323934466894,-0.5571626696209707,0.5048250460987347,-0.6675766465317922,-2.239067325516328,2.0692619240969568
1773062114719622912,0.9053857326507568,-4.020891189575195,-0.5338122844696045,-1.9907143115997314,-0.6250831484794617,0.5853500366210938,0.5163688659667969,-0.037011146545410156,-0.0036696195602416992,-0.08033359050750732,-0.026070748826525894,0.6662333360662198,-0.5606403255666053,0.49105601698702456,-0.6253116909733548,-2.261238816793966,2.04469327346817
1773062114729677824,0.9154407978057861,-3.643756151199341,-0.5807124376296997,-1.946164608001709,-0.6335320472717285,0.5524356365203857,0.5417122840881348,0.09507983922958374,-0.05086392164230347,-0.00622028112411499,-0.009863030730044218,0.6734842298104715,-0.5632718057337022,0.4785881830444206,-0.5852834207364971,-2.2782246250037783,2.024379814283486
1773062114739734016,0.9254968166351318,-3.119307041168213,-0.5385321974754333,-1.8002671003341675,-0.6404927968978882,0.5215334296226501,0.5637127757072449,0.2384999394416809,-0.10531938076019287,0.05619090795516968,0.004522665443209261,0.6802279907284702,-0.5649303215210799,0.4670366564848575,-0.5486471928898312,-2.2925207875992752,2.008520197925929
1773062114749788928,0.9355518817901611,-2.4552371501922607,-0.3622482120990753,-1.6996968984603882,-0.6468233466148376,0.49417605996131897,0.5808699131011963,0.2282899022102356,-0.09618103504180908,0.048967182636260986,0.01688641715273346,0.6860832228526363,-0.5654421075077377,0.4574712793394121,-0.5168868390720487,-2.302524688463546,1.9977217462368348
1773062114759845120,0.9456079006195068,-1.8902976512908936,-0.2010936588048935,-1.6123719215393066,-0.6532799005508423,0.4705599248409271,0.593126118183136,0.17259758710861206,-0.1334017515182495,0.03631407022476196,0.027378741597267327,0.6911935496002076,-0.5646366450598904,0.4502080765529416,-0.4899252547551834,-2.3079701153251806,1.9921333595770803
1773062114769899776,0.955662727355957,-1.522074580192566,-0.10528015345335007,-1.475331425666809,-0.6595521569252014,0.45015421509742737,0.6019567847251892,0.15473049879074097,-0.14517685770988464,0.11674743890762329,0.03635252920361113,0.6956421298895922,-0.5630811819441818,0.4446347542107616,-0.46693804449527637,-2.3105702121258,1.9897247236335893
1773062114779955968,0.9657187461853027,-1.2259830236434937,-0.0023428555577993393,-1.297813892364502,-0.6653863787651062,0.4325384199619293,0.6084170341491699,0.14844918251037598,-0.1672644317150116,0.2197536826133728,0.044117524462683785,0.6993991939442039,-0.5612925128368714,0.4402784006000766,-0.4473062921458521,-2.3115004541347943,1.9888117856043686
1773062114790010880,0.975773811340332,-1.2878302335739136,0.28621983528137207,-1.103033423423767,-0.6714109778404236,0.41701334714889526,0.6126231551170349,0.12989187240600586,-0.18123456835746765,0.3015919327735901,0.05139711577404548,0.7022439583836637,-0.5596114662585281,0.43708895010640714,-0.4301568278512628,-2.310442735021562,1.9881145455702565
1773062114800067072,0.9858298301696777,-1.6394774913787842,0.4657650887966156,-0.5887655019760132,-0.6773842573165894,0.40168297290802,0.6162805557250977,0.12225419282913208,-0.17226701974868774,0.3687201142311096,0.05981367992079229,0.7033806706577452,-0.5598177551217406,0.43391490641889274,-0.41335384891357824,-2.3089965741419944,1.9820051436096124
1773062114810121984,0.995884895324707,-1.6151024103164673,0.24210774898529053,-0.3109096586704254,-0.6813399791717529,0.38897672295570374,0.6200584173202515,0.23515790700912476,-0.4647824764251709,0.1412329077720642,0.0674073380568772,0.7031966678908328,-0.5617327220866511,0.4306122188111053,-0.3995205736346299,-2.3091402394366143,1.9720626978075895
1773062114820177920,1.0059409141540527,-1.8618381023406982,0.029440751299262047,-0.21614773571491241,-0.6830715537071228,0.37617701292037964,0.6260223984718323,0.2868008613586426,-0.7150594592094421,0.07745355367660522,0.07444571650006242,0.703144200263373,-0.5644461202998009,0.4259654986698075,-0.38566675275246753,-2.312642931935765,1.9601593059686755
1773062114830232832,1.015995740890503,-1.770405650138855,0.12170303612947464,-0.08016034215688705,-0.6840108036994934,0.3635413646697998,0.6324292421340942,0.2682241201400757,-0.4313056766986847,0.11416798830032349,0.0814670243063035,0.7026586875733617,-0.5678779599744564,0.4208900727568335,-0.37206655806683114,-2.317031902552023,1.9464239145639621
1773062114840288768,1.0260517597198486,-1.3072723150253296,0.1884021759033203,-0.12615633010864258,-0.6854071617126465,0.35296836495399475,0.6368908286094666,0.2135292887687683,-0.19682523608207703,0.055903851985931396,0.08761286316540562,0.7019424112496371,-0.5707208223777095,0.4169873529813126,-0.3607417750146609,-2.3195199876671206,1.9349142343742616
1773062114850343936,1.036106824874878,-0.9729534983634949,0.18759989738464355,-0.12593147158622742,-0.6870729923248291,0.34490853548049927,0.6395066976547241,0.1564028263092041,-0.10708504915237427,-0.02639329433441162,0.09236129325127446,0.7014207142692169,-0.5725053037967194,0.41438635665946294,-0.35214132862006,-2.320353479292488,1.927106943978246
1773062114860399872,1.0461628437042236,-1.0968937873840332,0.1359335035085678,-0.09842287749052048,-0.6884927153587341,0.3376518487930298,0.6418480277061462,0.1235513687133789,-0.07550585269927979,-0.08737415075302124,0.09660341928803559,0.7009328931202868,-0.5741228874193919,0.41199965662014076,-0.34442110487188576,-2.321146649508841,1.9200517045920171
1773062114870455040,1.056217908859253,-1.5633234977722168,0.07250823825597763,-0.06612885743379593,-0.6894617080688477,0.3285238444805145,0.6455344557762146,0.057854652404785156,-0.16107389330863953,-0.14535140991210938,0.10172723433433492,0.7003091951577332,-0.5764843909906158,0.4085148473526322,-0.33474023153630117,-2.323301926687018,1.9104117794887332
1773062114880510976,1.0662739276885986,-2.073549270629883,-0.032213110476732254,-0.04481904208660126,-0.6897668838500977,0.3162921071052551,0.6512919068336487,0.016518592834472656,-0.22849306464195251,-0.1404733657836914,0.1083136444713976,0.6994379189407596,-0.5800280602942067,0.4032645056514278,-0.3218183879338822,-2.3275123606358146,1.8966365341815021
1773062114890565888,1.0763287544250488,-2.3891401290893555,-0.04322199523448944,-0.15419289469718933,-0.6897257566452026,0.3008325397968292,0.6586185097694397,-0.006410717964172363,-0.17726686596870422,-0.05617094039916992,0.11624714500103851,0.6985585439318149,-0.584230451039192,0.39645606345394213,-0.30556550967282475,-2.3331278676934937,1.8801307776225724
1773062114900621824,1.0863847732543945,-2.400367498397827,0.06471805274486542,-0.28209224343299866,-0.690405547618866,0.28323468565940857,0.6656715273857117,-0.07793557643890381,-0.08842569589614868,0.10450071096420288,0.1251746726369431,0.6977232434581904,-0.5882329816550108,0.3892243792022691,-0.28716522815630596,-2.337957132991592,1.8633914351159853
1773062114910678016,1.0964407920837402,-2.174112319946289,0.2393292933702469,-0.4084620177745819,-0.6923696994781494,0.26534169912338257,0.6709825396537781,-0.15511852502822876,0.005028754472732544,0.2186962366104126,0.1343616425671648,0.6969688980001868,-0.5913760505265512,0.3826951338392354,-0.2685583106162085,-2.340508583636441,1.8486309578196891
1773062114920732928,1.1064958572387695,-1.7377655506134033,0.3815050721168518,-0.5911831259727478,-0.6957617998123169,0.2486569881439209,0.673858642578125,-0.19422239065170288,0.1265566647052765,0.2705231308937073,0.1431124266868452,0.6964491025622835,-0.5932014545995854,0.377610356987152,-0.25129344183165436,-2.3402037206934314,1.8374855885360464
1773062114930789120,1.1165518760681152,-1.2070841789245605,0.44075077772140503,-0.9034807085990906,-0.7004018425941467,0.23337723314762115,0.6745163798332214,-0.17275184392929077,0.29453107714653015,0.2079908847808838,0.15095655394044896,0.6967890627010528,-0.5930794207371249,0.3741041889219193,-0.23554938986085372,-2.337369797810034,1.8318141007114874
1773062114940844032,1.1266069412231445,-0.5744060277938843,0.40527746081352234,-1.2286453247070312,-0.7057286500930786,0.2198030650615692,0.6735237240791321,-0.11830717325210571,0.5134275555610657,0.07017463445663452,0.1573681619912679,0.6984451325271637,-0.5907082563229579,0.37212034582699133,-0.22161259678284848,-2.332849169179505,1.8327112091765865
1773062114950899712,1.1366627216339111,-0.05463992431759834,0.26134243607521057,-1.6240211725234985,-0.7110736966133118,0.20768196880817413,0.6717454791069031,-0.06535440683364868,0.5620170831680298,-0.0735553503036499,0.1620506634440839,0.7018021795468041,-0.5859577145540654,0.3713040902505436,-0.2092046679363821,-2.327761540376166,1.8406588187124635
1773062114960954880,1.1467177867889404,-0.12022825330495834,0.1135236844420433,-1.959028720855713,-0.7158988118171692,0.19442135095596313,0.6705889701843262,-0.041776418685913086,0.49069827795028687,-0.1495928168296814,0.16609379663238916,0.7067204213312395,-0.579517662543147,0.3702951102784826,-0.19566751690265236,-2.323526520088653,1.8529844732143324
1773062114971010816,1.1567738056182861,-0.6100646257400513,0.09927413612604141,-2.0903255939483643,-0.7204605937004089,0.17735685408115387,0.6704333424568176,-0.014066934585571289,0.4159964323043823,-0.11782115697860718,0.17145170344469027,0.7121041906140113,-0.5728213567175189,0.36795049453814566,-0.17830006980126528,-2.320242326483036,1.8645532700885767
1773062114981065984,1.1668288707733154,-1.0664417743682861,-0.06671962141990662,-2.0358498096466064,-0.7241332530975342,0.1565057933330536,0.6716673374176025,0.02999567985534668,0.19438530504703522,-0.11844468116760254,0.1784093248707178,0.7172714690084395,-0.5668821027847346,0.36378078588850254,-0.15715185385446998,-2.3186237819621636,1.8726527051462432
1773062114991121920,1.1768848896026611,-1.246717095375061,-0.2475394457578659,-1.8150849342346191,-0.725860595703125,0.13448740541934967,0.6745659112930298,0.10466015338897705,-0.005550667643547058,-0.16437315940856934,0.1857189999385907,0.7219391417191927,-0.562215990139846,0.3580857255286197,-0.13489615550429365,-2.319582944987383,1.8771487026577065
1773062115001176832,1.1869397163391113,-1.0267325639724731,-0.3492301106452942,-1.695622444152832,-0.725934624671936,0.1138710230588913,0.6782717704772949,0.16328197717666626,0.0042320117354393005,-0.16888755559921265,0.1921776809730628,0.7263093060522657,-0.5582209978219832,0.35203969722824974,-0.11411855987310128,-2.3222645948190452,1.8806270941490049
1773062115011232768,1.196995735168457,-0.49108099937438965,-0.2648634612560272,-1.5426878929138184,-0.7255409955978394,0.09669127315282822,0.6813523173332214,0.17215055227279663,0.1364477574825287,-0.15596169233322144,0.19700174088568234,0.7306637133212347,-0.5539013401190392,0.3471514621660397,-0.09684257497900335,-2.3247961080980386,1.886221578690386
1773062115021287936,1.2070508003234863,0.21361273527145386,-0.2450610101222992,-1.3425554037094116,-0.7251245975494385,0.08522534370422363,0.6833235621452332,0.18407845497131348,0.27042651176452637,-0.17842543125152588,0.199325810742291,0.7349494123799205,-0.5491002909327077,0.3443943869421981,-0.08532885022708102,-2.3265243725569795,1.895128327793203
1773062115031343872,1.217106819152832,0.733563244342804,-0.2300594300031662,-1.1517562866210938,-0.7245050668716431,0.07961763441562653,0.6846557855606079,0.20659124851226807,0.20164762437343597,-0.1894165277481079,0.19893937595346897,0.7393095031497077,-0.5438284153439212,0.3436499157713098,-0.07970199232674505,-2.327923283565643,1.9075199109914263
1773062115041399040,1.2271618843078613,0.5189402103424072,-0.12091989070177078,-0.8724404573440552,-0.7240320444107056,0.07671047002077103,0.685487687587738,0.1727166771888733,0.030253633856773376,-0.08436757326126099,0.19774914798157736,0.7430654964945153,-0.5390709647705347,0.34373174778793686,-0.0767859058246621,-2.3288555510833495,1.9194174675209397
1773062115051454976,1.237217903137207,0.30645182728767395,-0.08516307175159454,-0.5914790630340576,-0.7239229083061218,0.07416630536317825,0.6858826875686646,0.13018816709518433,-0.007927902042865753,0.07211291790008545,0.19725903220597293,0.7455848542677204,-0.5357654096464252,0.3437259986883748,-0.07423446999060236,-2.329218428452032,1.9273534558380307
1773062115061509888,1.2472727298736572,0.23443809151649475,-0.13103656470775604,-0.44914987683296204,-0.7235156297683716,0.07230546325445175,0.6865109205245972,0.0823870301246643,-0.053720273077487946,0.07252234220504761,0.19681994461200655,0.7474307840708526,-0.5334816578708083,0.3435207495970014,-0.07236861879246796,-2.329956528381324,1.9329037345995645
1773062115071565824,1.257328748703003,0.1344245821237564,-0.08818879723548889,-0.3753334879875183,-0.7230285406112671,0.07057806104421616,0.6872033476829529,0.013983190059661865,-0.01680608093738556,0.07321840524673462,0.19654113333488213,0.7489041304082901,-0.5317370383127942,0.34317620033399837,-0.07063678604588844,-2.330796188251638,1.9370795949563964
1773062115081621760,1.2673847675323486,0.117133729159832,0.01099158450961113,-0.2754140794277191,-0.7229770421981812,0.06902412325143814,0.6874152421951294,-0.05737262964248657,0.007346123456954956,0.11888962984085083,0.19653416972978027,0.7499860251698216,-0.5303098936193463,0.3430257401658174,-0.0690790528146574,-2.3309857050308422,1.9403001253733239
1773062115091676928,1.277439832687378,0.05114086717367172,0.14281247556209564,-0.028280451893806458,-0.7236109375953674,0.06845419108867645,0.6868051886558533,-0.10890865325927734,-0.07474081963300705,0.14337974786758423,0.19670094172228747,0.7503464979772119,-0.5295117896623529,0.34337471352642124,-0.06850776813544002,-2.330104739067332,1.9419629927962871
1773062115101732864,1.2874958515167236,0.030466748401522636,0.26006612181663513,0.08436833322048187,-0.7249628901481628,0.06899908930063248,0.6853229999542236,-0.1346408724784851,-0.19706611335277557,0.23107397556304932,0.19702321036147008,0.7499341816573274,-0.5293961021186694,0.34426771460151434,-0.06905395929826603,-2.3280942029690754,1.941967979429236
1773062115111788032,1.297550916671753,0.07537496834993362,0.3626987040042877,0.13948872685432434,-0.726967453956604,0.070184625685215,0.6830755472183228,-0.13057643175125122,-0.2295321524143219,0.21057063341140747,0.19743952802144277,0.7491544346349289,-0.529438757965962,0.3456585067264789,-0.07024237327560434,-2.3250764434994213,1.941549830288179
1773062115121843968,1.3076069355010986,0.2165864259004593,0.4701506197452545,0.05141159147024155,-0.7298175096511841,0.07201307266950607,0.6798387169837952,-0.06330382823944092,-0.04407423734664917,0.1704115867614746,0.19783774224744066,0.7482430528840448,-0.529199094080197,0.34776562265428784,-0.07207546004245742,-2.320754707901545,1.9418080244064835
1773062115131898880,1.3176617622375488,0.24305550754070282,0.5358158946037292,-0.029355410486459732,-0.7333043813705444,0.07356376200914383,0.6759089231491089,0.05981200933456421,0.15251044929027557,0.12905317544937134,0.19831992756794714,0.7476054592838839,-0.528242867764183,0.3503065623523921,-0.07363027716758555,-2.3154882553731233,1.9436174167479838
1773062115141954816,1.3277177810668945,0.11098242551088333,0.3398136496543884,-0.03347345441579819,-0.7363821268081665,0.07466569542884827,0.6724329590797424,0.24408799409866333,0.20583662390708923,0.08569985628128052,0.1988587965428505,0.7470485403670021,-0.52738501891117,0.3524749746592583,-0.0747352460385424,-2.3108334597381313,1.945139215533298
1773062115152009984,1.3377728462219238,-0.07836223393678665,0.07659967243671417,-0.3110309839248657,-0.7378708720207214,0.07359956204891205,0.6709170341491699,0.42033547163009644,0.16472747921943665,0.03603792190551758,0.19961609789300225,0.7471262403777084,-0.5265556926783946,0.35312163135835845,-0.07366617027258734,-2.3087043854893943,1.9463415072134103
1773062115162065920,1.3478288650512695,-0.21543486416339874,-0.10593711584806442,-0.5688268542289734,-0.7380720973014832,0.06915420293807983,0.6711686849594116,0.4030195474624634,0.11764387786388397,-0.010417342185974121,0.2009775183407417,0.748190222324013,-0.5251625900762733,0.35217001474964904,-0.06920944429325154,-2.3087553533498424,1.948198649276196
1773062115172121088,1.3578839302062988,-0.1492476910352707,-0.1133778989315033,-0.7477957606315613,-0.7377259731292725,0.06294599920511246,0.6721594333648682,0.24151015281677246,0.03576310724020004,-0.07319092750549316,0.2025637415312717,0.749944757422354,-0.5231277006813637,0.3505542054679571,-0.06298764064706214,-2.309723112325592,1.9512558360463188
1773062115182177024,1.3679399490356445,-0.09797731041908264,-0.10307572782039642,-0.8514292240142822,-0.7374768853187561,0.05627414956688881,0.6730237007141113,0.05269300937652588,-0.1671292632818222,-0.1380353569984436,0.20408419611150355,0.7521452246084941,-0.5203743019706858,0.3490526477728748,-0.05630389253736474,-2.310530989384968,1.9559653426851569
1773062115192231936,1.3779947757720947,-0.3075333535671234,-0.15563690662384033,-0.8048388957977295,-0.7370808720588684,0.048757750540971756,0.6740433573722839,-0.022852540016174316,-0.25585004687309265,-0.10066384077072144,0.20596601806823792,0.754336639506004,-0.5176851375459384,0.347212189069063,-0.04877709134720666,-2.3115523325534895,1.9601728174731525
1773062115202287872,1.3880507946014404,-0.47925639152526855,-0.2227669358253479,-0.7782107591629028,-0.7361117601394653,0.04021395370364189,0.6756641268730164,0.005582034587860107,-0.1823953539133072,-0.020955383777618408,0.2083449823768783,0.7563075975838336,-0.5155879080703087,0.34461605282191277,-0.040224799985287815,-2.3134038891910897,1.9625736937230627
1773062115212343040,1.3981058597564697,-0.4547699987888336,-0.25327157974243164,-0.832323431968689,-0.7347222566604614,0.030986683443188667,0.677659809589386,0.006633937358856201,0.023395635187625885,0.012006819248199463,0.21094288156400798,0.7582860079605743,-0.5136460243706603,0.341574486733307,-0.03099164405074605,-2.315814892726261,1.964407356228005
1773062115222398976,1.4081618785858154,-0.19300606846809387,-0.12382647395133972,-0.8931220769882202,-0.7336748838424683,0.022328903898596764,0.6791338920593262,-0.09432810544967651,0.1835426688194275,0.009052813053131104,0.21319746578146814,0.7605010407067067,-0.5110823037156947,0.3390869642830136,-0.022330760399638043,-2.317609011185052,1.9679335872446613
1773062115232454144,1.4182169437408447,-0.03718140721321106,-0.09202059358358383,-0.8370618224143982,-0.7331564426422119,0.015242689289152622,0.679889440536499,-0.17425328493118286,0.18840108811855316,-0.09209030866622925,0.21480502047896907,0.7627819424048405,-0.5080437290758127,0.33751176438797265,-0.01524327956310579,-2.3185157484336054,1.9731078935132553
1773062115242509824,1.4282727241516113,-0.028726134449243546,-0.24652788043022156,-0.895720899105072,-0.7321500778198242,0.008756231516599655,0.6810867786407471,-0.12015998363494873,0.10766833275556564,-0.13161790370941162,0.2159544023106356,0.7651895125006102,-0.5050033628381533,0.33588718802654605,-0.008756343218661167,-2.3200780191658548,1.978699764952879
1773062115252564992,1.4383277893066406,0.008328687399625778,-0.4043414294719696,-0.9975141882896423,-0.7299236059188843,0.001565435784868896,0.6835269927978516,-0.07244455814361572,-0.003457526210695505,-0.12069129943847656,0.21679357729448667,0.7681739908031495,-0.5016694347277587,0.33352222347747457,-0.0015654363799599482,-2.3233812033245953,1.9852142383709763
1773062115262620928,1.4483838081359863,0.07055264711380005,-0.3578202724456787,-0.9148422479629517,-0.7271901369094849,-0.005220172926783562,0.6864161491394043,-0.08932286500930786,0.05992294102907181,-0.07403522729873657,0.21728216619954374,0.771262595674927,-0.4983594052773672,0.3310292115284219,0.005220196729137843,-2.3273585677568653,1.991998939794423
1773062115272676864,1.458439826965332,0.20963753759860992,-0.18178331851959229,-0.785129964351654,-0.7252339124679565,-0.010550596751272678,0.6884214282035828,-0.12635892629623413,0.10301888734102249,0.06720894575119019,0.217488900628883,0.7740217162852393,-0.49507685455613687,0.32937478720981617,0.010550792781579247,-2.330159727087747,1.9989786576914887
1773062115282732032,1.4684948921203613,0.2252146303653717,-0.03532518073916435,-0.48253336548805237,-0.7244170308113098,-0.013612628914415836,0.6892276406288147,-0.11792916059494019,0.06068599596619606,0.21093416213989258,0.21739462634553225,0.7760201062979901,-0.4923480737335371,0.3288248600133841,0.013613049690728858,-2.3313069576828074,2.005018562615249
1773062115292787968,1.478550910949707,0.270313560962677,0.10518229007720947,-0.19822683930397034,-0.7247380018234253,-0.014393012970685959,0.6888743042945862,0.003943264484405518,0.02138153836131096,0.2806538939476013,0.21714012843033323,0.7770283070646707,-0.49057534719435225,0.3292613882467957,0.014393510052598937,-2.3308296778969635,2.009113178538786
1773062115302842880,1.4886057376861572,0.2440851628780365,-0.013518791645765305,-0.1171940490603447,-0.7250316143035889,-0.013643542304635048,0.6885802745819092,0.15561944246292114,0.04556494578719139,0.21739500761032104,0.21646353759562953,0.7776083919535552,-0.48950517055637177,0.3299292876634533,0.013643965631975473,-2.3304142273407003,2.012075105045932
1773062115312898816,1.498661756515503,0.22920826077461243,-0.046779219061136246,-0.08355338871479034,-0.7247865200042725,-0.012705184519290924,0.6888562440872192,0.24619466066360474,0.14524303376674652,0.12472707033157349,0.2156130076812054,0.7781604259606878,-0.4887683255002575,0.33027696158553255,0.012705526709099371,-2.3307831509898937,2.014478153312465
1773062115322953984,1.5087168216705322,0.23754316568374634,-0.12259488552808762,-0.05470895767211914,-0.7243120074272156,-0.011702614836394787,0.6893730759620667,0.23073595762252808,0.15254124999046326,0.003726959228515625,0.214704741344557,0.7786877214159647,-0.4881925626664335,0.33047746029646197,0.011702882269341937,-2.3314847478956424,2.016584710084872
1773062115333009920,1.518772840499878,0.2734564244747162,-0.1735992282629013,-0.0834662988781929,-0.72316974401474,-0.010315965861082077,0.6905929446220398,0.17708837985992432,0.04525860771536827,-0.048976361751556396,0.21336441009417823,0.7794031147248798,-0.4876753687441906,0.33042247639480904,0.010316148541400028,-2.333155953267599,2.018969221752527
1773062115343065088,1.5288279056549072,0.17353275418281555,-0.04901361092925072,-0.028684014454483986,-0.722311794757843,-0.009238815866410732,0.6915056705474854,0.05643355846405029,-0.0431293286383152,0.06304138898849487,0.21228426023717628,0.7800247407345056,-0.4871490963830221,0.3304277239373034,0.009238947271135828,-2.334408636502567,2.0211242368011013
1773062115353121024,1.538883924484253,0.10581682622432709,0.07550808042287827,0.11379776895046234,-0.7224679589271545,-0.007969305850565434,0.6913585066795349,-0.04367583990097046,-0.008327098563313484,0.20071613788604736,0.21173971311472808,0.7800104209857539,-0.48709648975114855,0.33088830087526144,0.007969390177214332,-2.3341942840004046,2.0217460080429204
1773062115363175936,1.5489387512207031,0.08894489705562592,0.13250930607318878,0.16796645522117615,-0.7231530547142029,-0.006235940381884575,0.690659761428833,-0.04521852731704712,0.06673704087734222,0.2900989055633545,0.21133930422548197,0.7796171515692475,-0.4873674091564331,0.33167128781665456,0.006235980697057416,-2.3332158334835054,2.021529874591203
1773062115373231872,1.5589947700500488,0.12446720898151398,0.25904861092567444,0.3667650520801544,-0.7245593070983887,-0.0037148534320294857,0.689202606678009,-0.045826494693756104,0.18254785239696503,0.25792568922042847,0.21104768274113822,0.7787325102332253,-0.4880337857443071,0.33295290148959567,0.0037148620870872946,-2.3311907527751843,2.020353641596238
1773062115383287040,1.5690498352050781,0.33467215299606323,0.21669568121433258,0.5338049530982971,-0.7262946367263794,0.0012331646867096424,0.687382698059082,-0.01717478036880493,0.27441686391830444,0.029826343059539795,0.20997405475025216,0.7774483410697253,-0.4891476468835865,0.3349920293232321,-0.0012331649824430936,-2.3286761063548895,2.0189379661860176
1773062115393342976,1.5791058540344238,0.4388483166694641,0.15413255989551544,0.5601799488067627,-0.7275574207305908,0.008011071011424065,0.686000406742096,0.031405508518218994,0.2175137996673584,-0.10918742418289185,0.20796338571095402,0.7761703513460538,-0.4904689368827484,0.3372701865163138,-0.008011157027614605,-2.326804076025663,2.017945746994043
1773062115403398144,1.5891609191894531,0.7208077907562256,0.08258860558271408,0.520110547542572,-0.7282761931419373,0.015882134437561035,0.6850996613502502,0.033101022243499756,0.03689800947904587,-0.23278343677520752,0.20509320971352943,0.7752557656974495,-0.49145531941652876,0.33968654799147646,-0.015882802984317268,-2.325655467703953,2.0184720785107952
1773062115413454080,1.5992169380187988,0.542024552822113,0.07448899745941162,0.5085040330886841,-0.728699266910553,0.02435882017016411,0.6844005584716797,0.01829582452774048,-0.1792812943458557,-0.2327098846435547,0.201746440892008,0.7745376301184073,-0.4922313954860181,0.34219601099168645,-0.02436122914992345,-2.3248561787858715,2.0198820614350512
1773062115423508992,1.609271764755249,0.11559895426034927,0.1428408920764923,0.5515372157096863,-0.7292856574058533,0.030329331755638123,0.6835368871688843,0.02410072088241577,-0.18397009372711182,0.05125010013580322,0.19990920998267156,0.7733568059187569,-0.4936473394724127,0.3439010007365725,-0.03033398365714655,-2.323824686533397,2.018499727579719
1773062115433564928,1.6193277835845947,0.13150058686733246,0.18902446329593658,0.47030606865882874,-0.7302492260932922,0.03488391265273094,0.6822900772094727,0.023202478885650635,-0.052965592592954636,0.09424513578414917,0.19901077700745212,0.7718716707422275,-0.4953374145779063,0.3453256938993502,-0.034890989759354785,-2.3222550928476653,2.0156582426072873
1773062115443620864,1.6293838024139404,0.2500855624675751,0.30815908312797546,0.34081414341926575,-0.7317917943000793,0.03916611894965172,0.680402398109436,-0.028737008571624756,-0.01708664745092392,0.055971741676330566,0.1981814596287047,0.7706245058325004,-0.4963255566132559,0.34716436950725216,-0.03917613937180469,-2.3198207751092763,2.014292020013171
1773062115453676032,1.6394388675689697,0.2886549234390259,0.3793088495731354,0.21580015122890472,-0.7340736985206604,0.043094880878925323,0.677700936794281,-0.0202597975730896,0.01548362523317337,0.09456157684326172,0.19749398144609856,0.7696049878336482,-0.4965467088699593,0.3494933929101304,-0.04310823190517228,-2.316285277052514,2.014484847226149
1773062115463731968,1.6494948863983154,0.2824505567550659,0.3313935399055481,0.12033489346504211,-0.7364150285720825,0.04632945731282234,0.6749414801597595,0.047313034534454346,-0.02318187803030014,0.07705718278884888,0.19695710004064346,0.7688420621483428,-0.4963392359913955,0.3517627042774653,-0.04634604764708272,-2.3126656860817443,2.015479886762176
1773062115473786880,1.6595497131347656,0.17948129773139954,0.3290506601333618,0.04264653101563454,-0.7385958433151245,0.04851870238780975,0.6724004149436951,0.08440577983856201,-0.11478763818740845,0.04453384876251221,0.19673523847290736,0.768276139042224,-0.4959354532991393,0.35368784393230274,-0.048537759779649955,-2.3093149012970016,2.0166125125020766
1773062115483842816,1.6696057319641113,0.059061143547296524,0.383883535861969,-0.1272149384021759,-0.7409788966178894,0.04911157488822937,0.6697301268577576,0.06217634677886963,-0.14675256609916687,0.03830820322036743,0.19715801079416695,0.7678983873896226,-0.49517383074675825,0.35533603708581685,-0.04913134015072415,-2.3057316996266284,2.0179324698668952
1773062115493897984,1.6796607971191406,-0.11756791919469833,0.45193687081336975,-0.15041016042232513,-0.7438960075378418,0.047797221690416336,0.6665836572647095,0.0008236169815063477,-0.11125853657722473,0.08800911903381348,0.19862308581732924,0.7674405724776892,-0.49429423275281176,0.35673089756812976,-0.047815439371315625,-2.3014364579423883,2.0185467676161717
1773062115503953920,1.6897168159484863,-0.14627254009246826,0.47699907422065735,-0.1854003667831421,-0.747085690498352,0.04561599716544151,0.6631608009338379,-0.006240725517272949,-0.07129654288291931,0.11045980453491211,0.20060768919464514,0.7668894426689296,-0.4934176534531243,0.3580170188530866,-0.04563183135923283,-2.2967537932478477,2.018661187249482
1773062115514009088,1.6997718811035156,-0.28202173113822937,0.5367904305458069,-0.2655998766422272,-0.750504732131958,0.042499665170907974,0.6594970226287842,-0.019056975841522217,-0.06070339307188988,0.08244627714157104,0.2030632805807934,0.7663457025873143,-0.49240510457950987,0.3591890155657083,-0.04251246907228112,-2.2917395353278294,2.018610427547511
1773062115524065024,1.7098278999328613,-0.25934651494026184,0.6694355607032776,-0.2897273302078247,-0.7546154856681824,0.038566216826438904,0.6550326943397522,-0.062492549419403076,0.031166452914476395,0.13846999406814575,0.20613122104435488,0.7656496461065548,-0.4912198653226604,0.36054609562408,-0.038575782849424194,-2.285667922542059,2.018334794452316
1773062115534119936,1.7198827266693115,-0.3202294707298279,0.6894658207893372,-0.41773876547813416,-0.7592757940292358,0.03433743491768837,0.6498622894287109,-0.10617208480834961,0.03197728097438812,0.1340274214744568,0.20940685082854132,0.7649830028223022,-0.4896244962924296,0.36223963560294486,-0.034344186350622606,-2.2787042797464867,2.0187128569326505
1773062115544175872,1.7299387454986572,-0.36371728777885437,0.7471203207969666,-0.4483981430530548,-0.764180064201355,0.028441686183214188,0.6443755030632019,-0.2659865617752075,-0.1388085037469864,0.24852299690246582,0.21350370580035166,0.7643121721839161,-0.48786746302087414,0.3636322108808846,-0.028445522040800145,-2.271343808488208,2.018590378762272
1773062115554231040,1.7399938106536865,-0.5447802543640137,0.9164215922355652,0.207485631108284,-0.7696809768676758,0.024889647960662842,0.6379433274269104,-0.6026792526245117,-0.28198498487472534,0.007854342460632324,0.21730558297192135,0.762691277688307,-0.48710745765234476,0.3657958703159798,-0.024892217917502856,-2.262877655088196,2.0165552587817874
1773062115564286976,1.7500498294830322,0.20924748480319977,0.8080474138259888,0.20829203724861145,-0.7751598358154297,0.026168664917349815,0.6312229633331299,-0.4925403594970703,-0.15524275600910187,-0.22742962837219238,0.21945653447853203,0.7602446654060605,-0.48748284904640454,0.36908989178795887,-0.026171652387837162,-2.25420415531708,2.0136785173225182
1773062115574341888,1.7601048946380615,-0.36819717288017273,0.9817465543746948,0.26609528064727783,-0.7805201411247253,0.027228953316807747,0.6245371103286743,-0.2280246615409851,-0.1767803579568863,-0.14039111137390137,0.2215228823741285,0.7580246150741884,-0.4875112568584152,0.3723694011362269,-0.027232320030092926,-2.245631767341629,2.0116136959643933
1773062115584398080,1.7701609134674072,-0.3444838523864746,1.0394121408462524,-0.053541578352451324,-0.7869614958763123,0.02574816718697548,0.6164644956588745,0.13956165313720703,0.3468409478664398,0.2621517777442932,0.22530111537613873,0.7553673997406211,-0.4874959993692147,0.3755091352317086,-0.02575101282809914,-2.235300654992829,2.0078968888674456
1773062115594452736,1.7802157402038574,-0.14960817992687225,0.7987346649169922,-0.030814414843916893,-0.7925742864608765,0.023937784135341644,0.6093057990074158,0.27170008420944214,0.13808003067970276,0.27076029777526855,0.2284115264745498,0.7536086911605432,-0.4865458383945734,0.3783853211792075,-0.02394007035153454,-2.2262012104841955,2.0068038993393302
1773062115604508928,1.7902717590332031,0.019224777817726135,0.8354159593582153,0.01243958342820406,-0.7974370121955872,0.023739242926239967,0.6029350161552429,0.15669000148773193,0.09877357631921768,0.13356095552444458,0.23058365197881694,0.7519213670371417,-0.4858824619331275,0.38126586230092546,-0.02374147230733057,-2.2181843542104946,2.0060248441511277
1773062115614564864,1.8003277778625488,0.04807433858513832,0.9729503393173218,-0.1507962942123413,-0.8029303550720215,0.02330421470105648,0.5956175923347473,0.0017064213752746582,0.12186789512634277,0.015588581562042236,0.23284679347543852,0.7503776033675719,-0.4845020572998402,0.38467354964898476,-0.023306324590457828,-2.209031848354502,2.0066618256967
1773062115624620032,1.8103828430175781,-0.20344552397727966,0.9211710095405579,-0.141386017203331,-0.8086027503013611,0.02153589390218258,0.5879607796669006,-0.009131014347076416,0.04758640378713608,0.03386533260345459,0.23575844229104742,0.7488356605021339,-0.4829343003017096,0.3878628535497009,-0.021537558933353882,-2.1995004308286075,2.006979235259283
1773062115634675968,1.8204388618469238,-0.3329055607318878,0.8287090063095093,-0.17986361682415009,-0.8137686848640442,0.018688682466745377,0.5808880925178528,0.09247058629989624,-0.008266931399703026,0.06466543674468994,0.23919561002422293,0.7471783468050256,-0.4818387378936187,0.39030926084676987,-0.01868977040790893,-2.1907404148244924,2.00568257063659
1773062115644731136,1.8304939270019531,-0.37466901540756226,0.8600365519523621,-0.28723880648612976,-0.8186461329460144,0.014814869500696659,0.5741070508956909,0.08526301383972168,-0.009840510785579681,0.0745134949684143,0.24294970231217042,0.745678550291723,-0.4806423063009138,0.3923287944181044,-0.01481541150920497,-2.1823864737409377,2.0042007394132826
1773062115654787072,1.8405499458312988,-0.24383234977722168,0.9075275659561157,-0.38868147134780884,-0.8238008618354797,0.010256725363433361,0.5667863488197327,0.0023897886276245117,0.13802820444107056,0.11166507005691528,0.24694397705826002,0.7443248146455118,-0.4789298044078331,0.3944939126771322,-0.010256904817437537,-2.1734324841743393,2.0034834888043496
1773062115664841984,1.850604772567749,-0.09356322139501572,0.9280493259429932,-0.4663698673248291,-0.8289922475814819,0.005637824535369873,0.5592318177223206,-0.026781678199768066,0.23453550040721893,0.06352519989013672,0.2506506126224712,0.7433474303700225,-0.4764981562651246,0.3969362706812338,-0.005637854508418855,-2.1642658710710654,2.0045218480444906
1773062115674897920,1.8606607913970947,0.07476526498794556,0.9471150636672974,-0.4216257333755493,-0.8342351317405701,0.0018432416254654527,0.5514057278633118,-0.0022822022438049316,0.19378970563411713,0.08403122425079346,0.2538478399237643,0.742493840334023,-0.47371486145054303,0.3998229605058417,-0.0018432426743066864,-2.1548458197647955,2.0067904391391473
1773062115684952576,1.8707153797149658,-0.057863082736730576,0.9440881013870239,-0.49393507838249207,-0.8394362330436707,-0.0018259799107909203,0.5434550046920776,0.06320643424987793,-0.00044759269803762436,0.08278089761734009,0.2568800462774451,0.7417294277771695,-0.4707068630353015,0.4028462609780743,0.001825980899204169,-2.1453449303011305,2.0096433656909265
1773062115695008512,1.8807713985443115,-0.36515194177627563,0.892672598361969,-0.611103355884552,-0.8443952798843384,-0.007571660913527012,0.5356671214103699,0.11816853284835815,-0.06850866228342056,0.11745482683181763,0.26093427125671836,0.7408755210170046,-0.46790707879965004,0.40506757082867223,0.0075717331203428145,-2.136112111251287,2.010824282499783
1773062115705063680,1.8908264636993408,-0.38992252945899963,0.8514977097511292,-0.7386245727539062,-0.8489477634429932,-0.015608771704137325,0.5282464027404785,0.1437321901321411,0.0150594562292099,0.12724071741104126,0.2658864172795259,0.740182276329752,-0.4650305224151335,0.4064249947307146,0.015609405803325427,-2.127406021148098,2.011033505880605
1773062115715119616,1.9008824825286865,-0.10564428567886353,0.951414942741394,-0.752131998538971,-0.8534671664237976,-0.023228060454130173,0.5206291675567627,0.05581378936767578,0.1627086102962494,0.045441508293151855,0.2704053488540844,0.7397249653493847,-0.4616509033394305,0.4081256117498035,0.023230149204838894,-2.1185484639694123,2.012670488581537
1773062115725174784,1.9109375476837158,0.039739008992910385,0.9998565316200256,-0.7966978549957275,-0.8583620190620422,-0.030019719153642654,0.5121651887893677,-0.07071495056152344,0.18236349523067474,0.07603049278259277,0.2743325660015881,0.7394891939932007,-0.4574257487956726,0.41068109800555297,0.0300242294030887,-2.1087691097966714,2.0166196368342324
1773062115735230720,1.9209935665130615,0.15293407440185547,1.0012305974960327,-0.9122121930122375,-0.8631982803344727,-0.036941055208444595,0.5035112500190735,-0.027868986129760742,0.22279313206672668,0.07261466979980469,0.27809402816097023,0.7394492545960729,-0.4527366007579488,0.41341012323198956,0.03694946288787508,-2.098852550027118,2.021594082831328
1773062115745285632,1.9310483932495117,0.3025643229484558,0.9209925532341003,-1.0533801317214966,-0.8676364421844482,-0.04418306052684784,0.4952320456504822,0.011664211750030518,0.16768769919872284,0.07100638747215271,0.2813616687167237,0.7400207292543673,-0.44719721335891427,0.4161965477772984,0.04419744970301394,-2.0894555716697436,2.0287708533158213
1773062115755341568,1.9411044120788574,0.14214611053466797,0.902084469795227,-1.1205459833145142,-0.8715983033180237,-0.052502576261758804,0.48740148544311523,-0.0007926225662231445,0.222042977809906,0.13572174310684204,0.2847828567525186,0.7408794438886611,-0.4413597160411446,0.41856669363279925,0.052526725693253576,-2.080678696816477,2.036240541479533
1773062115765396480,1.9511594772338867,-0.1174314022064209,0.9089961647987366,-0.932868480682373,-0.8753607273101807,-0.062081921845674515,0.47946828603744507,-0.010137557983398438,0.35608822107315063,-0.012793421745300293,0.2891691137958483,0.7412824311452778,-0.43615880783316,0.4202942132944977,0.06212186967251997,-2.071901177853552,2.041112073371822
1773062115775452672,1.9612154960632324,0.6089344024658203,0.5960512161254883,-0.5072702169418335,-0.8785673379898071,-0.06679484248161316,0.4729250967502594,0.10276460647583008,0.18288370966911316,-0.49176961183547974,0.29130410240747373,0.7415117305094494,-0.431998725227491,0.4227049199350113,0.06684461313178837,-2.064605666556497,2.0466091296419093
1773062115785507584,1.9712705612182617,0.16878630220890045,0.47245073318481445,-0.5556926131248474,-0.8805016875267029,-0.06948848068714142,0.46892276406288147,0.33927232027053833,-0.4003601670265198,-0.4886675477027893,0.2918192982252327,0.7423354738001956,-0.42825158421050474,0.4247119737914597,0.06954452725454194,-2.060153838190766,2.053308448190713
1773062115795563776,1.9813265800476074,-0.42330509424209595,0.6203857660293579,-0.4261947572231293,-0.882820725440979,-0.07439601421356201,0.4637810289859772,0.382851243019104,-0.366918683052063,0.12577283382415771,0.29461868714994294,0.7419120581754116,-0.4259777150841407,0.4258043114019188,0.07446481676786985,-2.0545098332504756,2.054175248518612
1773062115805619712,1.9913825988769531,-0.6793302297592163,0.6864553689956665,-0.5495172739028931,-0.885583221912384,-0.08125639706850052,0.45731791853904724,0.2986081838607788,-0.1783413589000702,0.3053315579891205,0.2991637183729062,0.7406689676080404,-0.42434471509333194,0.4264294527435814,0.08134607959615696,-2.0474801372469424,2.0514898878895367
1773062115815674624,2.0014374256134033,-0.5249236822128296,0.6392865180969238,-0.4482721984386444,-0.8881736993789673,-0.08876536041498184,0.4508531391620636,0.14752721786499023,0.25394171476364136,0.14542990922927856,0.3040999150485378,0.7393321907658276,-0.42286460906279116,0.4267280140190657,0.0888823464241383,-2.040519903622465,2.0479250564140874
1773062115825730560,2.011493444442749,0.011242253705859184,0.7585503458976746,-0.5052710175514221,-0.8908430933952332,-0.0940193459391594,0.444476455450058,-0.0022081732749938965,0.4501594305038452,-0.051120102405548096,0.3074555243183973,0.7384716931673913,-0.4205921881863523,0.4280572332209094,0.09415841652368806,-2.033594868842607,2.047869127572715
1773062115835785728,2.0215485095977783,-0.022949673235416412,0.7567830085754395,-0.5781669616699219,-0.8937512636184692,-0.09876157343387604,0.43755555152893066,-0.06230342388153076,0.09737302362918854,-0.12992310523986816,0.31015360970698913,0.7379861572011082,-0.4173178674593079,0.43014760826346454,0.0989228357216685,-2.0260667484782577,2.0505464992232385
1773062115845841664,2.031604528427124,-0.179654061794281,0.6878231167793274,-0.6453020572662354,-0.8962825536727905,-0.10479386895895004,0.43092426657676697,0.1021847128868103,-0.02612651139497757,-0.02507108449935913,0.3134050912574726,0.7375405820526253,-0.41412077990371476,0.431642284929081,0.10498662501870136,-2.0189587022496185,2.0522998782177786
1773062115855896832,2.0416595935821533,-0.22059354186058044,0.6238043308258057,-0.6131196618080139,-0.8983622193336487,-0.11137472093105316,0.42490097880363464,0.13401901721954346,-0.05314553529024124,-0.008931189775466919,0.3168603889040362,0.7371395666500661,-0.4111882108187938,0.432607170554247,0.11160627225702192,-2.012589412914955,2.0532270094115144
1773062115865952768,2.051715612411499,-0.20748600363731384,0.6188625693321228,-0.608331024646759,-0.9002892374992371,-0.11771083623170853,0.41907426714897156,0.06545042991638184,0.03258207440376282,0.008415907621383667,0.3202326344000167,0.736689046697635,-0.4084438629277052,0.4334903067517465,0.11798437690837266,-2.00645557552874,2.053841788142859
1773062115876007680,2.061770439147949,-0.18014584481716156,0.5885918140411377,-0.6589449048042297,-0.9020799398422241,-0.12427736073732376,0.413287878036499,0.03913438320159912,0.13540101051330566,0.013897180557250977,0.32360163555971305,0.7363271500360795,-0.40554440379614526,0.4343247985379139,0.12459950900210892,-2.0004070366731996,2.0546999764702925
1773062115886063616,2.071826457977295,-0.07181831449270248,0.5203946232795715,-0.747982382774353,-0.9034834504127502,-0.13110220432281494,0.4080808460712433,0.019129812717437744,0.12524285912513733,-0.014007329940795898,0.32670023289551614,0.7363302954401681,-0.4023159507975706,0.4350018279621676,0.131480704354075,-1.9950422706617597,2.056518551032073
1773062115896118528,2.081881523132324,-0.09783925861120224,0.5669317841529846,-0.8505159020423889,-0.9046115875244141,-0.138718843460083,0.4030320942401886,-0.013280808925628662,0.10015988349914551,0.0338270366191864,0.32984916320329943,0.7366204793814617,-0.398630555022383,0.435526634173364,0.13916763941050772,-1.9899272472028482,2.0590925909549855
1773062115906174720,2.09193754196167,-0.036319706588983536,0.5244945883750916,-0.9737318158149719,-0.9055324792861938,-0.14732927083969116,0.39787575602531433,-0.025268912315368652,0.18767349421977997,0.10622882843017578,0.3332351266957303,0.7370984456475137,-0.3944917785583886,0.4359088493737287,0.1478675336962944,-1.9847863219017632,2.062138686786385
1773062115916229632,2.101992607116699,0.023923359811306,0.44166818261146545,-1.124792218208313,-0.9057734608650208,-0.15690603852272034,0.39364346861839294,-0.0447729229927063,0.25415027141571045,0.04002660512924194,0.3364421884431915,0.7381657083986907,-0.3897859874181644,0.4358726916897164,0.15755710162082714,-1.98076480239689,2.066486260936894
1773062115926285568,2.112048387527466,0.13978871703147888,0.5958359241485596,-0.7710714340209961,-0.9063988327980042,-0.16532044112682343,0.38872969150543213,-0.09856051206588745,0.34905147552490234,-0.06791356205940247,0.33936798980391386,0.7389155839606477,-0.3851864611997779,0.43642260046901166,0.1660829118539726,-1.9759425947838594,2.0709039359354144
1773062115936340480,2.122103452682495,0.42303043603897095,0.40621069073677063,-0.7753415107727051,-0.9071153998374939,-0.17107661068439484,0.38454392552375793,-0.013325035572052002,0.1115368902683258,-0.2654796242713928,0.3408920547523202,0.7397770711104154,-0.380791084133368,0.4376305675264995,0.17192229008289744,-1.9717514347127256,2.0768477283935867
1773062115946396672,2.132159471511841,0.1333400309085846,0.2394840270280838,-0.7108054161071777,-0.906980574131012,-0.17688117921352386,0.3822293281555176,0.18227964639663696,-0.17539851367473602,-0.3547635078430176,0.3420864048933599,0.7410274253643748,-0.37681960682232385,0.43802078806844263,0.17781675177799972,-1.9696397421125431,2.0825293945837773
1773062115956451584,2.14221453666687,0.12028928101062775,0.3327053487300873,-0.5784826278686523,-0.9069581627845764,-0.18221230804920197,0.3797709047794342,0.20981448888778687,-0.02472740411758423,-0.11367279291152954,0.34359235127461324,0.7417851739158329,-0.3736846326441173,0.4382453647706457,0.1832359584237615,-1.9673445403836922,2.0861690890483873
1773062115966507776,2.152270555496216,0.015264859423041344,0.44782501459121704,-0.5984227657318115,-0.9073179364204407,-0.1873393952846527,0.3764016330242157,0.08099347352981567,0.038352593779563904,0.08711457252502441,0.34534311626172315,0.7421749251048866,-0.3706442920875275,0.4387907915812237,0.18845288721558615,-1.964039241514259,2.0892004087676606
1773062115976563712,2.1623265743255615,0.08456290513277054,0.3840445280075073,-0.4878894090652466,-0.9079020619392395,-0.192123681306839,0.3725619912147522,0.007557213306427002,0.18804959952831268,0.08951985836029053,0.3471741813919833,0.7423093705243499,-0.3677741042436216,0.43953286627459237,0.19332568748426587,-1.960197271613554,2.0917371411018006
1773062115986618624,2.1723814010620117,0.09118698537349701,0.4432375431060791,-0.4285541772842407,-0.9085419774055481,-0.19585664570331573,0.3690412640571594,-0.041500627994537354,0.1817575842142105,-0.006690889596939087,0.3485374384431782,0.7424188995655623,-0.36515039860860976,0.4404553777415959,0.19713094239216994,-1.9566280730740493,2.094462592799007
1773062115996674560,2.1824374198913574,0.00927887111902237,0.4200928509235382,-0.5025556683540344,-0.90923672914505,-0.1998784989118576,0.365153044462204,-0.038623809814453125,0.07504639029502869,-0.010416805744171143,0.3501790727025913,0.7423733854699753,-0.3625717508352845,0.44135919432464943,0.2012339126330954,-1.9526846339836161,2.096661794999373
1773062116006729728,2.1924924850463867,0.1076352670788765,0.4342576861381531,-0.4808000326156616,-0.9097918272018433,-0.20422688126564026,0.3613450825214386,-0.02134525775909424,0.032107770442962646,0.010603159666061401,0.35187133025942935,0.7424102114891746,-0.35986055108332693,0.44216968588174005,0.20567388052358854,-1.9488635821218248,2.0990158606650424
1773062116016785664,2.2025485038757324,0.1544399857521057,0.4811049699783325,-0.5296412706375122,-0.9104018807411194,-0.20842549204826355,0.3573894500732422,-0.020292699337005615,0.07553668320178986,0.014329910278320312,0.3533265543373709,0.7425536678678161,-0.3568035597957817,0.44324440353182,0.20996482315700643,-1.9448745065631179,2.10230455780996
1773062116026840576,2.2126035690307617,0.17103441059589386,0.43806031346321106,-0.4501208961009979,-0.9110103249549866,-0.21232618391513824,0.35352152585983276,-0.015060663223266602,0.12403889000415802,-0.039755165576934814,0.3546350474023119,0.7426894749448074,-0.3537981204477131,0.44437947446242854,0.21395481270904781,-1.9409625090190072,2.105683975324873
1773062116036896768,2.2226595878601074,0.17851097881793976,0.45044031739234924,-0.4300539195537567,-0.9116300940513611,-0.2156701236963272,0.34988096356391907,-0.00453794002532959,0.08679445087909698,-0.08704835176467896,0.35569612219856367,0.7428107700245092,-0.3509595916832089,0.44557792077479,0.21737805921797224,-1.9372570970558776,2.1091001316137103
1773062116046951424,2.2327144145965576,0.08863834291696548,0.5547909736633301,-0.3424665629863739,-0.9125200510025024,-0.21883395314216614,0.34557005763053894,-0.011658906936645508,0.06992346048355103,-0.047215014696121216,0.35698622373986144,0.7426055698357366,-0.34831307885321944,0.4469627853466687,0.2206192937795746,-1.9328056571449599,2.1117562677320545
1773062116057007616,2.2427704334259033,0.2671910226345062,0.5655505657196045,-0.3102703392505646,-0.9137879014015198,-0.22115416824817657,0.34070873260498047,-0.01112353801727295,0.12290281057357788,-0.07235243916511536,0.35809374023590357,0.7421528431627352,-0.34577958357198935,0.44879227099699487,0.22299778178760304,-1.9276835177638938,2.11439304201804
1773062116067062528,2.2528254985809326,0.3319622874259949,0.567009687423706,-0.3946307599544525,-0.9148303866386414,-0.22332218289375305,0.33647090196609497,-0.009287655353546143,0.08977729082107544,-0.1651909351348877,0.3586034509034909,0.742147292151065,-0.34271393452697635,0.45074176963524487,0.22522141370229043,-1.9232361928741057,2.1188899362415934
1773062116077118720,2.2628815174102783,0.1449042111635208,0.5625860691070557,-0.3166212737560272,-0.9159494042396545,-0.22593799233436584,0.3316456079483032,-0.01750701665878296,0.06286732852458954,-0.06360971927642822,0.3596247065795813,0.7418400807992851,-0.3398471647442561,0.4526005939994058,0.22790581289794312,-1.918190736747028,2.1222136718324767
1773062116087173632,2.2729365825653076,0.11627975106239319,0.48007574677467346,-0.3040277063846588,-0.9169853925704956,-0.22824999690055847,0.32716917991638184,-0.017966389656066895,-0.024603381752967834,-0.07462096214294434,0.3606540382959996,0.7414359092359186,-0.33742759860563826,0.45425109939090147,0.23027984917747438,-1.9135053182133295,2.124720147691612
1773062116097229824,2.2829926013946533,0.04195895418524742,0.49338069558143616,-0.3192608058452606,-0.9178606271743774,-0.23085196316242218,0.3228616416454315,-0.0016037225723266602,-0.03375077247619629,-0.08210840821266174,0.36191318245397214,0.740974687465952,-0.3352422028316684,0.4556184338159498,0.23295320297782565,-1.9090333660363281,2.1264654437781814
1773062116107284480,2.2930474281311035,0.07094000279903412,0.5198879241943359,-0.35713309049606323,-0.9186716079711914,-0.2338201403617859,0.31838759779930115,-0.008376121520996094,0.03534908592700958,-0.012174248695373535,0.36332147915691293,0.74050774922174,-0.3329295367648859,0.4569504544865465,0.23600488748410237,-1.904415690603576,2.128187564087251
1773062116117340672,2.303103446960449,0.07530186325311661,0.5634947419166565,-0.3370710015296936,-0.9195974469184875,-0.2367897927761078,0.3134821951389313,-0.041736721992492676,0.05458459258079529,-0.012090563774108887,0.36476678487840963,0.7399520932257335,-0.33047239406376905,0.4584802017949718,0.2390603379466094,-1.899333001606981,2.130051375060108
1773062116127395584,2.3131585121154785,0.1287379264831543,0.5944233536720276,-0.3216691315174103,-0.9206044673919678,-0.2395491600036621,0.30838897824287415,-0.05081582069396973,0.07965230941772461,-0.05468106269836426,0.366116209497687,0.7393539873117483,-0.327948430989225,0.4601787414109518,0.24190147058358746,-1.8940329398296456,2.132130778612736
1773062116137451776,2.323214530944824,0.08951398730278015,0.574103057384491,-0.31271350383758545,-0.9216217398643494,-0.24215301871299744,0.30327466130256653,-0.03263247013092041,0.05492760241031647,-0.10173651576042175,0.3673967251700282,0.7387328545872763,-0.3254398556178078,0.4619333565308388,0.24458429550245453,-1.8887016426617402,2.1342550870685684
1773062116147507712,2.33327054977417,0.02517814189195633,0.5194504857063293,-0.30851343274116516,-0.9225353002548218,-0.24481405317783356,0.29831936955451965,-0.004405498504638672,0.04394741356372833,-0.11170437932014465,0.368757902909388,0.7380819746923001,-0.3231016563841117,0.46352759911211316,0.2473279041384802,-1.8835523776840641,2.1359460631047287
1773062116157562624,2.343325614929199,-0.07052191346883774,0.5072134733200073,-0.17509044706821442,-0.9234547019004822,-0.24715691804885864,0.29350435733795166,-0.003272533416748047,-0.02957645058631897,-0.15518346428871155,0.3702494746228521,0.7372370235403193,-0.3213001011147076,0.46493343677364646,0.24974504358906155,-1.8785323239539904,2.1364786757570693
1773062116167618560,2.353381395339966,-0.23126286268234253,0.43038445711135864,-0.11602392792701721,-0.9244948029518127,-0.24890382587909698,0.2887149155139923,0.019557058811187744,-0.08602657914161682,-0.21007108688354492,0.3719076348601206,0.7360672340551864,-0.32025378718389436,0.46618374545657393,0.2515482989712451,-1.873494238955879,2.1354041626430775
1773062116177673472,2.363436460494995,-0.2683735191822052,0.34932637214660645,-0.1169753298163414,-0.9253074526786804,-0.2507031261920929,0.2845240533351898,0.060210466384887695,-0.05895864963531494,-0.1992732584476471,0.3737295018090128,0.7348803655936575,-0.31970747636922386,0.4669734507304904,0.25340652205112396,-1.8691116710315419,2.133242123701581
1773062116187729664,2.373492479324341,-0.2850193381309509,0.3579137325286865,-0.11195208132266998,-0.9260246753692627,-0.25255241990089417,0.28052693605422974,0.03378230333328247,0.020069539546966553,-0.1395205557346344,0.37558066616200386,0.7337156795361371,-0.31925659689228264,0.46762763888542735,0.25531729450766216,-1.8649452458640121,2.1308717562940083
1773062116197784576,2.38354754447937,-0.20553812384605408,0.43769732117652893,-0.08322932571172714,-0.926891028881073,-0.25416284799575806,0.2761775851249695,-0.04982399940490723,0.12913241982460022,-0.043038636445999146,0.3773880386953609,0.7324500530351143,-0.3187565180042902,0.46849695609105024,0.25698204187101514,-1.8603816451600892,2.128603887741281
1773062116207840768,2.393603563308716,-0.05688100680708885,0.4472213089466095,-0.05715751275420189,-0.9279447197914124,-0.2551315128803253,0.27171048521995544,-0.11093473434448242,0.10725858807563782,-0.04024994373321533,0.37871697593054626,0.7312711843139676,-0.3179586399903985,0.4698065811594143,0.2579837013294754,-1.85564281148578,2.127557743665536
1773062116217895424,2.403658390045166,-0.06252764165401459,0.47938141226768494,-0.06379379332065582,-0.9290326237678528,-0.2558702528476715,0.26726236939430237,-0.09937942028045654,0.06385362148284912,-0.05011448264122009,0.3798096618200692,0.7301725266566498,-0.3169846351576327,0.4712892660223476,0.2587478120262398,-1.8509106655277983,2.1271709502640315
1773062116227951616,2.4137144088745117,-0.0832129493355751,0.5232468843460083,-0.041118040680885315,-0.9302424788475037,-0.2565407454967499,0.26236671209335327,-0.08237671852111816,0.056330084800720215,-0.00847560167312622,0.3809997415698091,0.7289185851466036,-0.31600799257471335,0.4729228936908094,0.25944147263830164,-1.845696828418438,2.1265856600786637
1773062116238006528,2.423769474029541,-0.05587639659643173,0.5148237943649292,-0.013766045682132244,-0.9315181374549866,-0.25701847672462463,0.2573237121105194,-0.06877177953720093,0.06918278336524963,-0.0317072868347168,0.3821613333471372,0.7275927431125334,-0.31507245343456564,0.47464818467827846,0.259935779747314,-1.8403161100240062,2.1259457787009004
1773062116248062720,2.4338254928588867,-0.05635283514857292,0.4813409745693207,0.017309047281742096,-0.9328201413154602,-0.25708699226379395,0.25249314308166504,-0.05674278736114502,0.07790306210517883,-0.09349659085273743,0.3831211911258516,0.7262880785878306,-0.3142486238438865,0.4764153291430881,0.26000665624555486,-1.8351392319089332,2.125431192239053
1773062116258117632,2.443880558013916,-0.12421061098575592,0.44604167342185974,0.046329133212566376,-0.9340618848800659,-0.25702008605003357,0.24792946875095367,-0.03590875864028931,0.05659592151641846,-0.11691750586032867,0.38409809016257795,0.7249612410057561,-0.3136812565678996,0.47802084015464036,0.25993744681040626,-1.8302452109601117,2.1244627959761173
1773062116268173568,2.4539365768432617,-0.2112022340297699,0.397379606962204,0.07990014553070068,-0.9352735877037048,-0.2568427622318268,0.24350693821907043,-0.031248867511749268,0.02257445454597473,-0.11948341131210327,0.38522864461258205,0.7235146216040098,-0.3134965122171676,0.47942217059059294,0.25975394327209794,-1.8255006735958084,2.122599845379639
1773062116278228480,2.463991403579712,-0.26181119680404663,0.3775880038738251,0.13469469547271729,-0.9364789128303528,-0.2563968002796173,0.23930712044239044,-0.04417294263839722,0.02228119969367981,-0.11972403526306152,0.3864361081244258,0.72195892027087,-0.3137337722219543,0.48063872177998024,0.2592925264154278,-1.8209815671016847,2.1199008254629983
1773062116288284416,2.4740474224090576,-0.2989657521247864,0.37283453345298767,0.17540882527828217,-0.9377765655517578,-0.2556006610393524,0.2350391298532486,-0.05642503499984741,0.043411970138549805,-0.1035846620798111,0.38766771951044776,0.720259224643621,-0.31423910215617407,0.48186531242077646,0.258468945961988,-1.816372039618114,2.1166887004117005
1773062116298339584,2.484102487564087,-0.3047798275947571,0.34250608086586,0.2423674315214157,-0.9391430020332336,-0.25436878204345703,0.23088306188583374,-0.06009405851364136,0.040989845991134644,-0.07469415664672852,0.38884591617677067,0.7184638741003366,-0.3150415683426459,0.48307072248508887,0.2571949487791694,-1.8118600429184024,2.1130530237247154
1773062116308395520,2.4941585063934326,-0.279345840215683,0.33614832162857056,0.282484769821167,-0.9406071901321411,-0.2524970471858978,0.22694402933120728,-0.05576133728027344,0.06344059109687805,-0.05625912547111511,0.38976882791208944,0.7166511675138806,-0.31604290399967705,0.4843638601891955,0.25526005856931194,-1.807545538277593,2.109492638780331
1773062116318451712,2.5042145252227783,-0.26155322790145874,0.38480260968208313,0.2997739613056183,-0.9421260356903076,-0.2504130005836487,0.22291700541973114,-0.06289404630661011,0.16722208261489868,-0.03195321559906006,0.39062983381588123,0.7147928340672397,-0.3170642041230762,0.4857467449435898,0.2531068250577746,-1.8031340463857939,2.105988791061782
1773062116328506624,2.5142695903778076,-0.15698394179344177,0.42558732628822327,0.34097814559936523,-0.943840742111206,-0.24783079326152802,0.2185053527355194,-0.09300923347473145,0.21986143290996552,-0.020278453826904297,0.3912504702701306,0.7128647176689271,-0.3179254141022382,0.48751453320848054,0.2504405528407049,-1.7982951330438335,2.1031075817365714
1773062116338562816,2.5243256092071533,-0.15649111568927765,0.422482430934906,0.380699098110199,-0.9456718564033508,-0.2447226643562317,0.2140456736087799,-0.08972853422164917,0.13160927593708038,-0.08570396900177002,0.39158646328106783,0.7109350687869948,-0.31873839878981247,0.48952751276416334,0.247233652176954,-1.7933881618388836,2.1007605620271317
1773062116348617472,2.5343804359436035,-0.20813299715518951,0.37690243124961853,0.4036765694618225,-0.9474897980690002,-0.24136921763420105,0.20977181196212769,-0.04111200571060181,0.04894058406352997,-0.10793468356132507,0.3919148477903017,0.7089521412791528,-0.3198011315071439,0.49144374046587774,0.2437765329892442,-1.7886791533102817,2.09802021341943
1773062116358673664,2.544436454772949,-0.24951496720314026,0.31269025802612305,0.3832496702671051,-0.9491731524467468,-0.23802775144577026,0.20594486594200134,-0.009353578090667725,0.0027676820755004883,-0.12676700949668884,0.392279099819874,0.7070135461675738,-0.32109854953155387,0.49309709874897156,0.2403347294484815,-1.7844574660135255,2.094866640276556
1773062116368728576,2.5544915199279785,-0.3179672658443451,0.23758165538311005,0.36092305183410645,-0.9506177306175232,-0.2351074516773224,0.20260962843894958,-0.0011798739433288574,0.001953139901161194,-0.09987220168113708,0.392837276016288,0.7051618088285603,-0.32257036168988407,0.4943421296885448,0.2373291144580305,-1.780788929347621,2.0911547436207565
1773062116378784768,2.564547538757324,-0.2708101272583008,0.14271248877048492,0.36649563908576965,-0.9518566131591797,-0.23222559690475464,0.20010021328926086,-0.01771724224090576,0.011049523949623108,-0.07091930508613586,0.39329879186629524,0.7035065192262203,-0.3242355367096743,0.4952432645402765,0.23436521055641346,-1.7780001380891899,2.0873383664984804
1773062116388839680,2.5746026039123535,-0.28741466999053955,0.1006569042801857,0.3850541412830353,-0.9529529809951782,-0.22917583584785461,0.19839173555374146,-0.04108095169067383,0.002674311399459839,-0.06852421164512634,0.3935089500439338,0.7020743750125175,-0.32601754795949567,0.49593843402078414,0.2312308994237396,-1.7760507792683349,2.0837913871337452
1773062116398895616,2.58465838432312,-0.3052558898925781,0.0689859688282013,0.40680116415023804,-0.9540233612060547,-0.2260056585073471,0.19687724113464355,-0.04593074321746826,0.0552750825881958,-0.03914716839790344,0.3937424642130322,0.70061024959362,-0.3279998425800094,0.49651602093328645,0.22797528316546298,-1.7743047283401656,2.0798787241061816
1773062116408950528,2.5947134494781494,-0.20322567224502563,0.05580652132630348,0.43127191066741943,-0.9550979137420654,-0.22243335843086243,0.19573265314102173,-0.048716723918914795,0.06740410625934601,-0.0888754278421402,0.39367217654421355,0.6992583189177377,-0.3300062592549641,0.49714772638590354,0.22430965602854833,-1.7729322035561408,2.0764399714351254
1773062116419006464,2.604769468307495,-0.18365339934825897,0.08811882138252258,0.43599069118499756,-0.9562034010887146,-0.21864716708660126,0.1945977658033371,-0.05391305685043335,0.03828832507133484,-0.1538415253162384,0.3933841255919673,0.697974036569844,-0.3318600969825063,0.4979457468791149,0.22042787418871174,-1.771565407337188,2.0736129523848708
1773062116429061632,2.6148245334625244,-0.1775137484073639,0.0854220986366272,0.4220602214336395,-0.9573137164115906,-0.21487826108932495,0.1933332085609436,-0.03028082847595215,0.01903170347213745,-0.16385328769683838,0.39309648099729666,0.6966727917150739,-0.333636964356224,0.49880712797834054,0.21656716992503944,-1.7700698903048941,2.0709089206363025
1773062116439117568,2.62488055229187,-0.1968228965997696,0.05224248394370079,0.4078620672225952,-0.9583374857902527,-0.21123702824115753,0.19227106869220734,0.008050680160522461,-0.03772537410259247,-0.1815899759531021,0.3928092954350708,0.6954410621002434,-0.3354061163135838,0.499565122362231,0.21284037744958814,-1.7687974008711518,2.0682332836368857
1773062116449172736,2.6349356174468994,-0.30086037516593933,0.024157052859663963,0.40730413794517517,-0.9592690467834473,-0.2077702283859253,0.191400945186615,0.02466827630996704,-0.06003676354885101,-0.15867091715335846,0.3927052948011041,0.6941706569971616,-0.3373834214600211,0.5000820159667161,0.20929488302563842,-1.7677379152934085,2.064918870696706
1773062116459228416,2.644991397857666,-0.3838669955730438,0.0279407799243927,0.40698692202568054,-0.9601542949676514,-0.20451456308364868,0.19046686589717865,0.014704465866088867,-0.04246419668197632,-0.11244869232177734,0.39291918049655505,0.6927456805013179,-0.3396128012495962,0.500380973459806,0.20596776151599003,-1.766625151107679,2.0606537510914706
1773062116469284608,2.6550474166870117,-0.44863665103912354,0.02739962562918663,0.4110375940799713,-0.9610576629638672,-0.20134776830673218,0.18928162753582,0.0021494626998901367,-0.02870906889438629,-0.08102044463157654,0.39341526481331246,0.6911186950506458,-0.3420464342574016,0.5005833870571232,0.20273366994025133,-1.7652588070327502,2.055562254065241
1773062116479339520,2.665102481842041,-0.4155285358428955,-0.013409581035375595,0.4028027057647705,-0.961883008480072,-0.19823314249515533,0.18837492167949677,0.00799483060836792,-0.023416101932525635,-0.0751088410615921,0.39389761981910987,0.689550806771992,-0.3445390384804283,0.500656918669069,0.1995549539036836,-1.7641884709345583,2.050405413078556
1773062116489395712,2.6751585006713867,-0.35031357407569885,-0.06897111237049103,0.37711411714553833,-0.9625818729400635,-0.19518296420574188,0.1879890114068985,0.008541345596313477,-0.03020462393760681,-0.0774543285369873,0.3941857468604773,0.6882033236127924,-0.34694479484135904,0.5006227527298575,0.1964440004614788,-1.7636653673054319,2.0457407090192006
1773062116499450624,2.685213565826416,-0.32063549757003784,-0.1062294989824295,0.3595603108406067,-0.9631328582763672,-0.1922377198934555,0.18820124864578247,-0.0044727325439453125,-0.044685497879981995,-0.06274354457855225,0.39423478085178026,0.6871329754940667,-0.34921182313997207,0.5004780763287711,0.19344188273934104,-1.7637700064752284,2.041734720069717
1773062116509506816,2.6952695846557617,-0.36102738976478577,-0.18384014070034027,0.3604647219181061,-0.9635477066040039,-0.1894255429506302,0.1889289915561676,-0.0006247758865356445,-0.0649079829454422,-0.03194651007652283,0.39426911276056553,0.6861823466292996,-0.35159391889718855,0.5000875243268434,0.19057706630569382,-1.764416391146926,2.0375783085402692
1773062116519561472,2.705324411392212,-0.3751581311225891,-0.294998437166214,0.35620591044425964,-0.9637724757194519,-0.18663181364536285,0.19055400788784027,0.02618110179901123,-0.09165790677070618,-0.04171982407569885,0.39419370552886385,0.6854236138105376,-0.35421953149876123,0.499333744153963,0.18773260359117028,-1.7659955406491352,2.0332192214821028
1773062116529617664,2.7153804302215576,-0.3700791895389557,-0.3632339537143707,0.3544327914714813,-0.9638036489486694,-0.1838693469762802,0.19306586682796478,0.040097713470458984,-0.0960531234741211,-0.06530407071113586,0.39398877671335153,0.6848699392433645,-0.3570519573393327,0.4982367150267873,0.18492147765659023,-1.7684962937250093,2.0287472087754344
1773062116539672576,2.725435495376587,-0.37802156805992126,-0.39420410990715027,0.322363942861557,-0.9636819362640381,-0.18132038414478302,0.19606222212314606,0.03361278772354126,-0.058593571186065674,-0.062242597341537476,0.39374619267912186,0.6844686584125518,-0.35990799314255595,0.49692348596866653,0.1823289284034267,-1.7715081103766452,2.0243056414543372
1773062116549728512,2.7354915142059326,-0.29770517349243164,-0.4361291825771332,0.3065032362937927,-0.9634314775466919,-0.17893904447555542,0.19945134222507477,0.013525962829589844,-0.03492818772792816,-0.053211063146591187,0.3933832516218942,0.68425006748845,-0.36266722397173806,0.49550381881836575,0.1799079847713605,-1.7749344342596025,2.020230957133522
1773062116559783680,2.745546579360962,-0.2784707248210907,-0.426718145608902,0.29760032892227173,-0.9630975723266602,-0.17658083140850067,0.20313145220279694,-0.014151573181152344,-0.06238707900047302,-0.05415987968444824,0.39280232509587215,0.6842201288154744,-0.36525133922635133,0.4941059073837562,0.17751160116747478,-1.7786644418671347,2.0168117523770017
1773062116569839616,2.7556025981903076,-0.3060954213142395,-0.4765099287033081,0.2912673354148865,-0.9626933336257935,-0.17434631288051605,0.20694200694561005,-0.017744898796081543,-0.05453553795814514,0.00018084049224853516,0.39227162093165513,0.6842010452412894,-0.36788575663197765,0.4925972051710297,0.1752418768398595,-1.7825356859099235,2.013211217721131
1773062116579894528,2.765657424926758,-0.2878430485725403,-0.5511250495910645,0.3149518668651581,-0.9621473550796509,-0.17201420664787292,0.21138432621955872,-0.01166844367980957,-0.06999018788337708,0.019710034132003784,0.3915857382338096,0.6843161158988903,-0.37067994069475535,0.4908852823451816,0.17287399095347958,-1.7870610100658313,2.0095885615887705
1773062116589950464,2.7757134437561035,-0.36295777559280396,-0.6236754059791565,0.32781997323036194,-0.9614381790161133,-0.16959063708782196,0.21650812029838562,-0.0024137496948242188,-0.08526167273521423,0.005827665328979492,0.3907949744173291,0.6845307184451017,-0.3737268511777414,0.4889021137807679,0.17041427145223975,-1.792293451332012,2.0056945425475456
1773062116600005632,2.785768508911133,-0.43719008564949036,-0.7216763496398926,0.35630661249160767,-0.9605254530906677,-0.1672060787677765,0.22233548760414124,0.022705018520355225,-0.0921933501958847,0.012832999229431152,0.39009498549210264,0.6847401199473724,-0.3772250157541824,0.48647527900337845,0.1679951743205977,-1.7982630396360963,2.0008547461866173
1773062116610061568,2.7958245277404785,-0.4513210952281952,-0.8000912666320801,0.3863353431224823,-0.9594123959541321,-0.1646212488412857,0.2289709597826004,0.03430253267288208,-0.1284695565700531,-0.012692928314208984,0.3892643407138104,0.6850207288558194,-0.3810932718564828,0.48372283335762334,0.16537401049875458,-1.805071539809803,1.9955592344619488
1773062116620116736,2.805879592895508,-0.4454343616962433,-0.8404639959335327,0.40224266052246094,-0.9581397175788879,-0.16184775531291962,0.23616372048854828,0.030222415924072266,-0.1002066433429718,-0.009372398257255554,0.38826691064468244,0.6853720741488907,-0.38515838534213365,0.4807980977776249,0.1625628111290901,-1.812460743769699,1.9901516454447672
1773062116630172672,2.8159356117248535,-0.42592883110046387,-0.8209390640258789,0.4061940014362335,-0.9567849636077881,-0.15901218354701996,0.24347031116485596,0.010251760482788086,-0.02830471098423004,0.03784072399139404,0.3871785234210417,0.6857401923043139,-0.3892242862588306,0.47786786881203275,0.15969003178323568,-1.8199748941154992,1.9848386627449652
1773062116640228608,2.82599139213562,-0.3919427990913391,-0.776265025138855,0.4236956834793091,-0.9554534554481506,-0.15604253113269806,0.25051844120025635,-0.011724889278411865,0.011602863669395447,0.04875218868255615,0.38601874210156845,0.6860497331156744,-0.39318569079555854,0.4751108481629216,0.1566828305660095,-1.8272225631500083,1.9797617768178355
1773062116650283520,2.8360464572906494,-0.3678300082683563,-0.7447031140327454,0.4395843744277954,-0.9541858434677124,-0.15285354852676392,0.25722652673721313,-0.01572394371032715,-0.009545758366584778,0.04901745915412903,0.3847865320897115,0.6862647305817878,-0.3970566415693599,0.4725740105767577,0.15345511602149062,-1.8341138174271268,1.9748962423870569
1773062116660339712,2.846102476119995,-0.37792086601257324,-0.7166191935539246,0.4472119212150574,-0.952944815158844,-0.14957763254642487,0.2636720836162567,-0.004056036472320557,-0.04561285674571991,0.059463292360305786,0.383549531039245,0.6863929157026496,-0.40087504732652707,0.4701636221649817,0.15014108654360556,-1.8407347637601101,1.9700724787541821
1773062116670394624,2.8561575412750244,-0.42838937044143677,-0.6983044147491455,0.47474899888038635,-0.9517393708229065,-0.14624853432178497,0.2698213756084442,0.021838247776031494,-0.05066613852977753,0.0647122859954834,0.38242569431838414,0.6863471008971236,-0.4047694902924429,0.46780329183630515,0.14677495862520148,-1.8470507855126352,1.9648697805964013
1773062116680450048,2.866212844848633,-0.4640362858772278,-0.6971994638442993,0.49886298179626465,-0.9505349397659302,-0.1428031623363495,0.27584490180015564,0.05188387632369995,-0.06285476684570312,0.03139078617095947,0.3813916282516393,0.6861294975538057,-0.4088383038885698,0.4654223097188129,0.14329302394277413,-1.85323788001162,1.9591488602031863
1773062116690504960,2.876267910003662,-0.46144744753837585,-0.6801096796989441,0.5143868327140808,-0.9493216872215271,-0.13926005363464355,0.28177130222320557,0.0742606520652771,-0.09398576617240906,-0.022585511207580566,0.3803928534188475,0.6857944434729726,-0.41300319564065635,0.4630503641112599,0.13971414442304234,-1.8593270059791953,1.9531387760552121
1773062116700561152,2.886323928833008,-0.4314018487930298,-0.6411711573600769,0.5033524036407471,-0.9481350779533386,-0.13566546142101288,0.28746265172958374,0.08674591779708862,-0.09191939234733582,-0.039278388023376465,0.3793672635917345,0.6854104450134105,-0.41706575416556635,0.4608135667824554,0.13608509577035813,-1.8651748103856027,1.9473012874439026
1773062116710616064,2.896378993988037,-0.3687962591648102,-0.6018900871276855,0.49025946855545044,-0.9469913244247437,-0.13211004436016083,0.29283806681632996,0.0868840217590332,-0.0464940220117569,-0.014441519975662231,0.3782938925726807,0.6850377337060889,-0.42088281075752254,0.4587751287715272,0.13249738771740918,-1.8706992965358096,1.9419400846124337
1773062116720672256,2.906435012817383,-0.29402175545692444,-0.5704378485679626,0.4916781783103943,-0.9459041953086853,-0.12841463088989258,0.2979506850242615,0.08363020420074463,-0.004123196005821228,-0.0005417466163635254,0.3770687420878983,0.6847012470260421,-0.4244520558814057,0.45699419399898794,0.1287702034550486,-1.875948370085795,1.937227095167642
1773062116730726912,2.916489839553833,-0.25526291131973267,-0.5543097257614136,0.4821688234806061,-0.9448179602622986,-0.12462758272886276,0.3029639422893524,0.09502536058425903,-0.014624133706092834,-0.003494948148727417,0.37568350381655946,0.684442407018393,-0.4278090298834154,0.4553899472429478,0.12495247611970484,-1.881096523673102,1.9331180733193887
1773062116740783104,2.9265458583831787,-0.26441752910614014,-0.5486311316490173,0.4534861445426941,-0.9437076449394226,-0.12091629952192307,0.3078884184360504,0.10247534513473511,-0.054636068642139435,0.014773964881896973,0.3742819310199052,0.6842062253311164,-0.4310522600543344,0.45383795430347923,0.12121290617674807,-1.886162029734927,1.9292086618885644
1773062116750838016,2.936600923538208,-0.3431141972541809,-0.5192468762397766,0.4563099145889282,-0.9425905346870422,-0.11761149019002914,0.31255462765693665,0.10302156209945679,-0.06981219351291656,0.050177305936813354,0.3731622341572328,0.6838578433421119,-0.4342991656168038,0.45218640278570077,0.11788433098575431,-1.8909780520511557,1.9248194727512118
1773062116760893952,2.9466569423675537,-0.31092339754104614,-0.552697479724884,0.4205922484397888,-0.9414132833480835,-0.11448056995868683,0.3172309100627899,0.12012410163879395,-0.05814211815595627,0.021025925874710083,0.3721288432356144,0.6834822507448449,-0.4375699619715262,0.45044951145498974,0.11473211376266354,-1.8958190478595665,1.9202199092976113
1773062116770949120,2.956712007522583,-0.25372692942619324,-0.5599852204322815,0.3623198866844177,-0.940057098865509,-0.1116403192281723,0.3222258985042572,0.13002878427505493,-0.07462374120950699,-0.03911426663398743,0.37095402473677935,0.6833589647922428,-0.4406058120724051,0.44864274363615303,0.11187353224411557,-1.9010181278057903,1.916263648933007
1773062116781005056,2.9667680263519287,-0.2795434594154358,-0.5420781970024109,0.2888127565383911,-0.9386196732521057,-0.1094634011387825,0.32712501287460327,0.1257535219192505,-0.0620758980512619,-0.015799909830093384,0.3699285825021331,0.6833765833810409,-0.4433496868369921,0.4467553186354512,0.10968319029086761,-1.906149454522357,1.9126159944670942
1773062116791061248,2.9768240451812744,-0.25486287474632263,-0.5349790453910828,0.2491857260465622,-0.9371293187141418,-0.1078171357512474,0.331909716129303,0.11399394273757935,-0.04907374083995819,0.011138290166854858,0.36903905409307264,0.6834893251492383,-0.4458668050797484,0.4448092624377485,0.10802712632223224,-1.9111875316732458,1.9091780042951667
1773062116801115904,2.9868788719177246,-0.23924513161182404,-0.5596284866333008,0.20421023666858673,-0.9355434775352478,-0.10649104416370392,0.33677542209625244,0.1122862696647644,-0.0606536790728569,-0.013869017362594604,0.36814997438444713,0.6837348466886336,-0.4482124109941697,0.4428066678124659,0.10669335249206724,-1.916332756254464,1.9060546426268652
1773062116811172096,2.9969348907470703,-0.24416078627109528,-0.5738803744316101,0.15920574963092804,-0.9337983131408691,-0.10559697449207306,0.34186288714408875,0.11955869197845459,-0.06560665369033813,-0.020360201597213745,0.36727722361029125,0.6841512814296071,-0.45040921650320653,0.4406541636757536,0.1057942115045195,-1.9217408707059926,1.9031855954803403
1773062116821227008,3.0069899559020996,-0.296914666891098,-0.5704919695854187,0.14077484607696533,-0.931968092918396,-0.10519194602966309,0.3469444215297699,0.11734700202941895,-0.0495627224445343,0.015207678079605103,0.3666095208734537,0.684574914695213,-0.45258081909521014,0.4383210655812851,0.10538691914062813,-1.9271720523189992,1.9000428865756707
1773062116831283200,3.0170459747314453,-0.26022323966026306,-0.5911562442779541,0.13391827046871185,-0.9300702810287476,-0.1048433780670166,0.35210421681404114,0.11058175563812256,-0.037322789430618286,0.00037384033203125,0.36592532505220093,0.6850217649230687,-0.4547496979893496,0.43594338742617184,0.10503640820610123,-1.9327002401484652,1.896914798230973
1773062116841338112,3.0271010398864746,-0.29741567373275757,-0.5966485738754272,0.12796562910079956,-0.9280822277069092,-0.10462702810764313,0.3573746085166931,0.10270380973815918,-0.047182656824588776,-0.04089212417602539,0.3652331425502994,0.6855187474165376,-0.45689315276993997,0.4334944645431435,0.10481886285336625,-1.9383642508561272,1.8938345729045454
1773062116851394304,3.0371570587158203,-0.27971577644348145,-0.593907356262207,0.12338978797197342,-0.9260585904121399,-0.10450652986764908,0.36262086033821106,0.10644799470901489,-0.02465911954641342,-0.03188657760620117,0.36459662896932,0.6859836785362488,-0.4590607971816798,0.4309975348917474,0.10469770060357028,-1.944018229122185,1.8906066237388888
1773062116861448960,3.0472118854522705,-0.2362375110387802,-0.5908891558647156,0.12607364356517792,-0.9240150451660156,-0.10429535806179047,0.36785706877708435,0.10092544555664062,0.008470147848129272,-0.03794682025909424,0.36384775679205106,0.686502758152006,-0.46113175536041584,0.4285864262630372,0.10448536574937205,-1.949669940138885,1.8877193461383515
1773062116871504896,3.057267904281616,-0.19013287127017975,-0.583604097366333,0.13819502294063568,-0.9219632148742676,-0.10386188328266144,0.3730907738208771,0.08649861812591553,0.05994706600904465,-0.0255565345287323,0.3629325825779986,0.6870705397250394,-0.4631192749937077,0.4263034492864343,0.1040495257626712,-1.9553219954579502,1.8852255393763564
1773062116881560064,3.0673229694366455,-0.1277966946363449,-0.5965589880943298,0.13560259342193604,-0.9198768138885498,-0.10318266600370407,0.3783918023109436,0.07354795932769775,0.0566585510969162,-0.012547075748443604,0.36181547539490144,0.6877136264152395,-0.465022439581297,0.42413888944675326,0.10336663778527554,-1.9610491732836592,1.8831801791863276
1773062116891616000,3.077378988265991,-0.14820769429206848,-0.585425078868866,0.13078466057777405,-0.9177415370941162,-0.10245008766651154,0.38373780250549316,0.05551302433013916,0.011294052004814148,0.012807667255401611,0.3605760296537594,0.6884452310240519,-0.4668105272295637,0.42203804718119553,0.10263016097320432,-1.9668360189913767,1.8815273144077849
1773062116901671168,3.0874340534210205,-0.2344386875629425,-0.6030657291412354,0.15344904363155365,-0.9155939221382141,-0.10193680971860886,0.38896894454956055,0.04550725221633911,0.01880689710378647,0.06476640701293945,0.3595892861440624,0.6889974205530883,-0.46879316178483843,0.4197750809505805,0.1021141764601239,-1.9725203783807492,1.879094778688769
1773062116911727104,3.097490072250366,-0.19426889717578888,-0.6486684083938599,0.13514940440654755,-0.9132716059684753,-0.1014268547296524,0.3945215940475464,0.05575835704803467,0.023698605597019196,0.025949537754058838,0.3585397997573092,0.6895829476431767,-0.4708886918501689,0.4173587271440157,0.1016015670497663,-1.9785702448318165,1.8765144551889983
1773062116921782016,3.1075448989868164,-0.1983647644519806,-0.6632729768753052,0.1001274362206459,-0.9107699394226074,-0.10110452771186829,0.40034517645835876,0.04339921474456787,-0.0223238468170166,-0.026214897632598877,0.35740284348131757,0.690325561765865,-0.4728881559905628,0.4148381654723482,0.10127757492252325,-1.9849410895422626,1.8742431310477832
1773062116931837952,3.117600917816162,-0.2179853320121765,-0.6652591824531555,0.07890310883522034,-0.908158004283905,-0.10115285962820053,0.4062230885028839,0.03170841932296753,-0.019376300275325775,0.0017054080963134766,0.35636128701360625,0.6911257856993369,-0.47482279599342636,0.4121833397377661,0.10132615406200926,-1.9914063406755513,1.8719491158545924
1773062116941894144,3.127656936645508,-0.28077608346939087,-0.6573882102966309,0.08746640384197235,-0.9055219888687134,-0.10145813971757889,0.4119904637336731,0.019932448863983154,0.02116641402244568,0.028729140758514404,0.35548369619229925,0.6918563018511428,-0.4767914530210497,0.409433860643835,0.1016330156335849,-1.9977803100371023,1.869331180797818
1773062116951949056,3.137712001800537,-0.24078047275543213,-0.6778689622879028,0.12592485547065735,-0.9028459191322327,-0.10158344358205795,0.4177917540073395,0.012282013893127441,0.030858971178531647,-0.0051178038120269775,0.35458568308912364,0.6924879762202959,-0.47891155880853553,0.4066608896371634,0.1017589692491804,-2.004202247595711,1.8664157109705877
1773062116962005248,3.147768020629883,-0.22498463094234467,-0.6854377388954163,0.1359446793794632,-0.900088906288147,-0.10135356336832047,0.4237542152404785,0.008822917938232422,-0.021433934569358826,-0.07010120153427124,0.3534613829614708,0.6931577251338756,-0.48105038035332015,0.4039653907461757,0.10152790014720438,-2.0108052943528416,1.8637679334349413
1773062116972059904,3.157822847366333,-0.25055229663848877,-0.66611248254776,0.13666559755802155,-0.8973149657249451,-0.10114412009716034,0.4296458959579468,0.0035924911499023438,0.007714591920375824,-0.013050466775894165,0.352368147612929,0.6937816768908571,-0.4832079620720097,0.40126512603468634,0.101317372802159,-2.017350970107741,1.8610141457822504
1773062116982116096,3.1678788661956787,-0.23477034270763397,-0.6307164430618286,0.17319722473621368,-0.8946548104286194,-0.10084225982427597,0.4352279603481293,-0.019575417041778564,0.07529906928539276,0.053709328174591064,0.3513482912157294,0.6942726223021081,-0.48538593076704245,0.3986732135546961,0.10101396173271225,-2.0235661823659155,1.858086032031663
1773062116992171008,3.177933931350708,-0.15754187107086182,-0.6156972646713257,0.203263521194458,-0.8921034336090088,-0.09997347742319107,0.4406324326992035,-0.04676997661590576,0.08784271776676178,0.024684369564056396,0.35011803326379337,0.6947068957790132,-0.4875433791424551,0.3963599556491464,0.10014076741550879,-2.0295723522005518,1.8554704964360684
1773062117002226944,3.1879899501800537,-0.1739332675933838,-0.5832188129425049,0.2334621250629425,-0.8896685838699341,-0.09875230491161346,0.44580066204071045,-0.06425011157989502,0.06974531710147858,0.0213472843170166,0.3487949965488189,0.6950673666527626,-0.48967508590899467,0.3942611600281133,0.09891351887509307,-2.035312539500873,1.853009725909149
1773062117012282112,3.198045015335083,-0.1571343094110489,-0.5991865992546082,0.26736390590667725,-0.8872678279876709,-0.09728746861219406,0.4508785605430603,-0.0561223030090332,0.06747175008058548,0.04234671592712402,0.34744486486240106,0.695316580514035,-0.49190866692025903,0.3922281835069422,0.09744159086610554,-2.040954692814548,1.8503482879696678
1773062117022338048,3.2081010341644287,-0.12378960102796555,-0.6105843782424927,0.2948665916919708,-0.8847677707672119,-0.09539249539375305,0.456164687871933,-0.048810720443725586,0.039789460599422455,-0.001269698143005371,0.34585807496916726,0.6955751376559772,-0.4942242131713568,0.39025613330011066,0.09553776532986871,-2.0468266336416114,1.8478225412258331
1773062117032392960,3.218155860900879,-0.14393454790115356,-0.5920543670654297,0.33459508419036865,-0.8822996020317078,-0.09321703761816025,0.46136581897735596,-0.05678743124008179,0.04013168066740036,-0.0008707642555236816,0.34422229335609295,0.6957272169599319,-0.4966352267990603,0.3883661238630089,0.09335257124569217,-2.0526057628130068,1.8451332874807282
1773062117042448896,3.2282118797302246,-0.16488893330097198,-0.5739603042602539,0.34623196721076965,-0.8798950910568237,-0.09090111404657364,0.4663924276828766,-0.05169987678527832,0.05156393349170685,0.017173945903778076,0.34262358504564766,0.6957531259168733,-0.4991230306163439,0.38653971100261375,0.09102677057221989,-2.058197527310706,1.8421964442155032
1773062117052504064,3.238266944885254,-0.17088264226913452,-0.6066934466362,0.3642471730709076,-0.8774644136428833,-0.08857770264148712,0.4713919162750244,-0.0567549467086792,0.04394574463367462,0.006055593490600586,0.3410796192559218,0.6956830547405909,-0.5017180952620914,0.384667129138117,0.0886939453218623,-2.0637751379245355,1.8389263756070622
1773062117062560000,3.2483229637145996,-0.08785499632358551,-0.6575919985771179,0.40595361590385437,-0.8747820854187012,-0.08581888675689697,0.4768560230731964,-0.06721937656402588,0.03428995609283447,-0.009006202220916748,0.3391839885284572,0.6957242447113658,-0.5043766380548381,0.38278751429005664,0.08592458103504169,-2.0698806255249664,1.8359772567360608
1773062117072615168,3.258378028869629,-0.10345632582902908,-0.7146174311637878,0.47128069400787354,-0.8718453049659729,-0.08241796493530273,0.48279741406440735,-0.05776602029800415,0.05080173909664154,0.045034706592559814,0.33692362680810317,0.6957684088921231,-0.5072524361349183,0.38089877756886575,0.08251155921448286,-2.0765255314410536,1.8330284777722607
1773062117082671104,3.2684340476989746,-0.10768649727106094,-0.7518380284309387,0.5496382713317871,-0.8686550855636597,-0.07846647500991821,0.48916375637054443,-0.05256366729736328,0.07475859671831131,0.08415466547012329,0.33443360296538277,0.6956894139872707,-0.5104881192955234,0.3789092711908911,0.07854721548466866,-2.083662499042353,1.829575964385662
1773062117092727296,3.2784900665283203,-0.09863121807575226,-0.7393731474876404,0.6078656315803528,-0.8654007315635681,-0.07393823564052582,0.4955950677394867,-0.08389419317245483,0.05686366558074951,0.04867058992385864,0.3317782232832386,0.6954400118134261,-0.5139656850821449,0.37699547001660466,0.07400576762898219,-2.0908830470802395,1.8257650831869654
1773062117102781952,3.2885448932647705,-0.054748982191085815,-0.752461314201355,0.6485769152641296,-0.8621121644973755,-0.06885652244091034,0.5020174384117126,-0.09047877788543701,0.038338951766490936,0.021572589874267578,0.3289212094864861,0.6950925202108508,-0.5175472018327858,0.3752361361493807,0.06891104739706981,-2.0981076914398926,1.821929067703462
1773062117112838144,3.298600912094116,-0.04099908098578453,-0.76179438829422,0.6861472129821777,-0.8586910367012024,-0.06331831216812134,0.5085673332214355,-0.08387500047683716,0.05517011135816574,0.03090721368789673,0.32583655788272287,0.6947112195071813,-0.5212101189324361,0.3735598187100514,0.06336069579482012,-2.105504343070823,1.8181432556552566
1773062117122893056,3.3086559772491455,-0.023582039400935173,-0.7376540303230286,0.7510088086128235,-0.8552682399749756,-0.05729407072067261,0.5150081515312195,-0.10084736347198486,0.0850803554058075,0.07208889722824097,0.3226376052023681,0.6941651871631896,-0.5250131232540685,0.3720226224233077,0.05732546144134494,-2.112802409743416,1.814118288061392
1773062117132948992,3.318711996078491,-0.0404752679169178,-0.7360244393348694,0.794988751411438,-0.8518642783164978,-0.05080101639032364,0.5212932825088501,-0.11343735456466675,0.05232687294483185,0.05068248510360718,0.3193480207585468,0.69343875029943,-0.5289511662005777,0.37063494021104615,0.050822893278354785,-2.1199519575709824,1.8098268339509997
1773062117143004160,3.3287670612335205,-0.053546663373708725,-0.7492154836654663,0.8339617848396301,-0.8483332395553589,-0.044065944850444794,0.5276256799697876,-0.10708051919937134,-0.004197586327791214,0.007347404956817627,0.31600437129814785,0.6925701839883576,-0.5330660311999071,0.3692267406374003,0.04408021839283632,-2.127203489270149,1.805124152536917
1773062117153059840,3.338822841644287,-0.11616690456867218,-0.7475060224533081,0.8313779830932617,-0.8446825742721558,-0.03740277886390686,0.5339593291282654,-0.10055369138717651,-0.03620562702417374,-0.010369181632995605,0.3127374104094111,0.6915731245063694,-0.5373139350605108,0.3677168713368259,0.037411504256427724,-2.134514974068406,1.7999332523264129
1773062117163115008,3.3488779067993164,-0.16185133159160614,-0.7250166535377502,0.8277708888053894,-0.8409891128540039,-0.03113456256687641,0.540155291557312,-0.09828078746795654,-0.017327340319752693,0.03325468301773071,0.3096956785685357,0.690466533752622,-0.5416028286093217,0.3660749352269943,0.03113959489545822,-2.1417293990722315,1.7942689694128626
1773062117173170944,3.358933925628662,-0.1259673684835434,-0.7601120471954346,0.8307844996452332,-0.8371742963790894,-0.024945519864559174,0.5463671088218689,-0.09469527006149292,-0.004305576905608177,0.024036943912506104,0.3066619080823808,0.6893280228077006,-0.5459033264093915,0.3643829910083303,0.024948107684243832,-2.149019900978765,1.788474697735873
1773062117183226112,3.3689889907836914,-0.08757713437080383,-0.7911323308944702,0.8235825300216675,-0.8330662250518799,-0.018557609990239143,0.5528619289398193,-0.10040545463562012,-0.042324963957071304,-0.037008047103881836,0.30336766322844166,0.6883032626671987,-0.5501541530624262,0.3626804339007713,0.018558676211070563,-2.1567055230937684,1.7830190009353875
1773062117193282048,3.379045009613037,-0.07971015572547913,-0.8013426065444946,0.7911548018455505,-0.8287467360496521,-0.012227562256157398,0.5594900846481323,-0.10383981466293335,-0.07729573547840118,-0.0331687331199646,0.29995640121811923,0.68738414457586,-0.5542996240435079,0.36094466683553317,0.012227866985507149,-2.1646173070706447,1.7778438839189958
1773062117203337216,3.3891000747680664,-0.1656118780374527,-0.8024498224258423,0.8082420229911804,-0.8242669105529785,-0.006331199314445257,0.5661662817001343,-0.09724199771881104,-0.0450756698846817,0.030345618724822998,0.2967002678387136,0.6864284271137014,-0.5584793297483445,0.35900683865071786,0.006331241401514721,-2.1726574522074302,1.7723009918332258
1773062117213392896,3.399155855178833,-0.1290421485900879,-0.8379606604576111,0.8334866166114807,-0.8195981979370117,-0.00041856145253404975,0.5729383826255798,-0.09714972972869873,-0.011391737498342991,0.038587987422943115,0.293439055486023,0.6853603005266677,-0.5628058799090746,0.3569653511000604,0.0004185614747035895,-2.1808830045549494,1.76632589305921
1773062117223448064,3.4092109203338623,-0.08096563816070557,-0.8523576855659485,0.865842342376709,-0.8146606683731079,0.005965265445411205,0.5799070596694946,-0.11083054542541504,-0.048094771802425385,-0.040539443492889404,0.28986713382046664,0.6843097937172045,-0.5671627941617632,0.35499781237193423,-0.005965300651151392,-2.1894236717237887,1.760542930250914
1773062117233504000,3.419266939163208,-0.0715087503194809,-0.8336055874824524,0.8794792890548706,-0.8096193671226501,0.012668161652982235,0.5868184566497803,-0.11368989944458008,-0.05279875919222832,-0.06051236391067505,0.286142818649093,0.6832106810171082,-0.571517622073866,0.3531473098996652,-0.012668500456937291,-2.1979785512087093,1.7548277587552232
1773062117243560192,3.4293229579925537,-0.11008996516466141,-0.7715173363685608,0.9118280410766602,-0.8047038316726685,0.019400184974074364,0.5933592915534973,-0.12213021516799927,-0.03360611945390701,-0.035345494747161865,0.28254428673044313,0.6819279904621959,-0.5758939752112426,0.35141008321871786,-0.019401401313094747,-2.2061609527879047,1.748797811088588
1773062117253615104,3.439378023147583,-0.12195861339569092,-0.7126082181930542,0.943526566028595,-0.8000388145446777,0.026191577315330505,0.5993763208389282,-0.12833642959594727,-0.012565473094582558,-0.03522837162017822,0.2791499239312321,0.6803721918816727,-0.5803290921167934,0.3498388024290475,-0.026194573474151335,-2.2137750381357746,1.7422811155669526
1773062117263671040,3.4494340419769287,-0.1290046125650406,-0.6436401605606079,0.9369562268257141,-0.795640766620636,0.03301578015089035,0.6048687100410461,-0.13043057918548584,-0.03841741010546684,-0.07035326957702637,0.27592489670489395,0.6786269766977265,-0.5847219747754914,0.3484698312986703,-0.03302177996015198,-2.22081155530695,1.7355618025278845
1773062117273725952,3.459488868713379,-0.18100735545158386,-0.5631477236747742,0.9189924001693726,-0.7916254997253418,0.039485346525907516,0.6097294688224792,-0.1299443244934082,-0.06716478615999222,-0.06280875205993652,0.27304745711203726,0.6767307192154138,-0.588982392532031,0.34724684191611893,-0.03949561486357389,-2.2271160432930532,1.7286635107730781
1773062117283781888,3.4695448875427246,-0.2576933801174164,-0.48419928550720215,0.8920212388038635,-0.7880062460899353,0.04532137140631676,0.6139967441558838,-0.12231779098510742,-0.06874361634254456,-0.037138283252716064,0.27065156594296946,0.6746623106093527,-0.593151866606519,0.346048132792916,-0.04533689968038439,-2.2327110523547646,1.7213557169028493
1773062117293837056,3.479599952697754,-0.2852661609649658,-0.43275579810142517,0.8750827312469482,-0.7847439050674438,0.05062749236822128,0.6177491545677185,-0.11500585079193115,-0.08314399421215057,-0.05270087718963623,0.268673366390211,0.6724321109186492,-0.5972517303288237,0.3448769327529627,-0.050649144422301944,-2.2376825200407335,1.7136746359693986
1773062117303892992,3.4896559715270996,-0.29606419801712036,-0.3864993453025818,0.8147794604301453,-0.7817468047142029,0.05549755319952965,0.6211215257644653,-0.10166078805923462,-0.12049999833106995,-0.10392487049102783,0.26695136788075546,0.6701994074634344,-0.6011601465019113,0.34376767266396546,-0.05552607987158023,-2.242193170756215,1.706103630003464
1773062117313948160,3.499711036682129,-0.3383741080760956,-0.355618417263031,0.7505725026130676,-0.7789676785469055,0.059626463800668716,0.6242226958274841,-0.08063614368438721,-0.12134826928377151,-0.09860318899154663,0.26554778266438067,0.6680517455379134,-0.6048290685682364,0.34259744075783416,-0.05966185096624661,-2.246357497297048,1.6987040570097525
1773062117324004096,3.5097670555114746,-0.37078407406806946,-0.33247295022010803,0.6897745728492737,-0.7763703465461731,0.0630648285150528,0.6271138787269592,-0.055157244205474854,-0.1188357025384903,-0.06839805841445923,0.26444257205010674,0.6659659204438803,-0.6083143280404866,0.34134023467177277,-0.06310670745532042,-2.250245605142791,1.6913752739420045
1773062117334059008,3.519821882247925,-0.43413376808166504,-0.2908112704753876,0.6482953429222107,-0.7739508748054504,0.06569807976484299,0.6298285126686096,-0.03978508710861206,-0.11974471062421799,-0.057044029235839844,0.2636901963653112,0.6639250013247467,-0.6116517423442978,0.33993126851171107,-0.0657454308315165,-2.2538855731095015,1.683981189120759
1773062117344114944,3.5298779010772705,-0.46273547410964966,-0.23834003508090973,0.605707049369812,-0.7718600034713745,0.06771613657474518,0.6321766376495361,-0.036856114864349365,-0.08871223032474518,-0.03815174102783203,0.26331363311835587,0.661835884679123,-0.6148671308985273,0.33849342141323785,-0.06776799391261085,-2.2570338296323667,1.6764438422858423
1773062117354170112,3.5399329662323,-0.46564018726348877,-0.20732353627681732,0.5641118884086609,-0.7700365781784058,0.0693044513463974,0.6342239379882812,-0.03881633281707764,-0.0844564437866211,-0.062339961528778076,0.2631602075040777,0.6598006313031639,-0.617879519248094,0.3370972666562625,-0.06936005174045919,-2.2597796561698438,1.6691337053299866
1773062117364226048,3.5499889850616455,-0.5043362975120544,-0.17963235080242157,0.5304169058799744,-0.7684186100959778,0.07047715038061142,0.6360551118850708,-0.023436367511749268,-0.10537399351596832,-0.07851415872573853,0.26322582664014516,0.6577792383342836,-0.6207689075950593,0.33568539725456087,-0.07053562164237312,-2.262227865540764,1.661864707593717
1773062117374281216,3.560044050216675,-0.5627785921096802,-0.16479001939296722,0.5186254978179932,-0.7669517993927002,0.07106621563434601,0.6377575993537903,-0.0003821849822998047,-0.1126311719417572,-0.06784176826477051,0.26358505468202337,0.6557240277843657,-0.6236223216515835,0.33413198326594934,-0.07112617409815164,-2.264480328361334,1.654340826777972
1773062117384337152,3.5701000690460205,-0.5322545170783997,-0.15103000402450562,0.5128089785575867,-0.7655513882637024,0.07152201235294342,0.639386773109436,0.011629998683929443,-0.08220315724611282,-0.07121056318283081,0.26402267266671875,0.6536399378502072,-0.6264568674008794,0.33256363122116406,-0.071583132609385,-2.266633878277724,1.6467511509434445
1773062117394393088,3.580155849456787,-0.5468736886978149,-0.12087209522724152,0.5185720920562744,-0.764285147190094,0.07201225310564041,0.6408452987670898,0.004992425441741943,-0.05704338848590851,-0.07668203115463257,0.2644840136962748,0.6515487614750279,-0.6292112922833655,0.33109761768259943,-0.07207464214754516,-2.2685700429322986,1.6393104955613558
1773062117404448000,3.5902109146118164,-0.5439507365226746,-0.09588261693716049,0.5491675138473511,-0.7631998062133789,0.07261913269758224,0.6420689821243286,0.0013284683227539062,-0.04242200404405594,-0.07323658466339111,0.26503204460738466,0.6493021469919543,-0.6320136115064136,0.3297325210986515,-0.07268311038338741,-2.2702094080673385,1.6316279765747708
1773062117414503936,3.600266933441162,-0.5478596687316895,-0.06228683516383171,0.5548608303070068,-0.7622808814048767,0.07332417368888855,0.6430796980857849,0.004056453704833984,-0.05411335080862045,-0.10511577129364014,0.26564810311789855,0.646941244116823,-0.6348282172266723,0.3284680728460767,-0.07339003678725485,-2.2715780528248946,1.6238122971073807
1773062117424559104,3.6103219985961914,-0.6005831360816956,-0.0004907224792987108,0.5641823410987854,-0.7616706490516663,0.07392039149999619,0.6437342762947083,-0.0013145804405212402,-0.055777691304683685,-0.09966683387756348,0.26647335391920757,0.6444527665812273,-0.6376109855247357,0.3272993861615079,-0.07398787370013352,-2.272474334119087,1.6158231948978292
1773062117434615040,3.620378017425537,-0.6099593043327332,0.03420254588127136,0.6076597571372986,-0.7613581418991089,0.07443951070308685,0.6440442204475403,-0.005243539810180664,-0.04726361483335495,-0.08574026823043823,0.2675551074831719,0.6417136145172808,-0.6404886700287008,0.3261783088969853,-0.07450843217803539,-2.272913988661469,1.6072829301529303
1773062117444669952,3.6304328441619873,-0.5894914865493774,0.06152283400297165,0.6322171092033386,-0.7611982226371765,0.07531795650720596,0.6441308856010437,-0.0017108321189880371,-0.05419979244470596,-0.1189691424369812,0.2686148246059018,0.6388306184284274,-0.6433979317026234,0.3252393912612913,-0.0753893471895843,-2.2730839754197776,1.5986494728705327
1773062117454725888,3.640488862991333,-0.5902236104011536,0.08463907241821289,0.6650964617729187,-0.7611815333366394,0.07645627111196518,0.6440165042877197,-0.001284956932067871,-0.05019591003656387,-0.11337679624557495,0.2696880308664086,0.6358075428533896,-0.6463412502970585,0.3244382422484792,-0.07653095472059332,-2.2730071530088103,1.5898761370348249
1773062117464781056,3.6505439281463623,-0.5686490535736084,0.101629838347435,0.7135894298553467,-0.761239767074585,0.07791175693273544,0.6437733769416809,-0.00350034236907959,-0.03811683505773544,-0.10332220792770386,0.2707382037681358,0.6326246910344657,-0.6493632934857467,0.32375028370344816,-0.07799079592754872,-2.2727832915146315,1.5808836509037445
1773062117474836992,3.660599946975708,-0.5651310086250305,0.1248139813542366,0.7563115954399109,-0.7613905668258667,0.07989156991243362,0.6433520317077637,-0.0128251314163208,-0.024197004735469818,-0.12142515182495117,0.2717060325445602,0.6292573942499697,-0.6524654274769698,0.32326435589145114,-0.07997680409259088,-2.272362824712546,1.571728731307977
1773062117484892160,3.6706550121307373,-0.5523368120193481,0.14859610795974731,0.8033059239387512,-0.7616464495658875,0.08223132789134979,0.642754316329956,-0.0184745192527771,-0.006974995136260986,-0.13779515027999878,0.27266327522033756,0.6257030024481656,-0.6556469432425703,0.3229205844228564,-0.08232428597623176,-2.2717390307932317,1.5623314611299781
1773062117494948096,3.680711030960083,-0.5266218185424805,0.1723829209804535,0.8363187313079834,-0.7619888782501221,0.0850754976272583,0.6419773101806641,-0.022373735904693604,-0.020668163895606995,-0.16343122720718384,0.2735329929837802,0.6219959905825638,-0.6588699707418564,0.32278625950649353,-0.08517845970597325,-2.2709213969139723,1.5528703415217258
1773062117505003008,3.690765857696533,-0.6198278069496155,0.19247975945472717,0.8828964829444885,-0.7624161839485168,0.08796267211437225,0.6410804390907288,-0.02257215976715088,-0.03158146142959595,-0.12684398889541626,0.2745249006418819,0.6180693547181489,-0.6622163426215838,0.3226389156039645,-0.08807649994074122,-2.2699564205552916,1.5428957664836906
1773062117515058944,3.700821876525879,-0.6937427520751953,0.1761963963508606,0.9239166378974915,-0.7628021836280823,0.09068804979324341,0.6402406692504883,-0.0005795955657958984,-0.023701980710029602,-0.08811682462692261,0.27571332379448765,0.6138241155300065,-0.6658380391407702,0.32227583888954137,-0.09081282130772346,-2.269061588250548,1.531909848123869
1773062117525115136,3.7108778953552246,-0.821983814239502,0.13089048862457275,0.9226759076118469,-0.762908399105072,0.09278871864080429,0.6398130655288696,0.014678537845611572,-0.04747011512517929,-0.1071898341178894,0.27707748687765754,0.6094531866292457,-0.6696815330576479,0.32143654325169907,-0.09292238590671131,-2.268664077971139,1.5200650714486554
1773062117535170048,3.720932960510254,-1.092238187789917,0.009769124910235405,0.9045009016990662,-0.7625288367271423,0.09394010901451111,0.6400976181030273,0.02325582504272461,0.008598953485488892,-0.12515932321548462,0.2786715516392803,0.6048965328282926,-0.6739057705382605,0.3198333039147259,-0.09407882527419402,-2.269128031471938,1.5068565236261355
1773062117545225984,3.7309889793395996,-0.7581440210342407,0.0532040148973465,1.0902504920959473,-0.76164311170578,0.09511696547269821,0.640978217124939,6.151199340820312e-05,0.11109031736850739,-0.22307032346725464,0.2800888321147214,0.6002032014188919,-0.6784137606832401,0.31790141695848395,-0.09526097554217983,-2.2703776408949006,1.492975729197164
1773062117555281152,3.741044044494629,-0.558783233165741,0.15203286707401276,1.0808165073394775,-0.7613269686698914,0.09972720593214035,0.6406526565551758,-0.06820178031921387,-0.010524339973926544,-0.224026620388031,0.2805355842923974,0.5953701467405598,-0.6825398928082899,0.3177632800026697,-0.09989325682108577,-2.2703318561140287,1.481107848291391
1773062117565337088,3.7511000633239746,-0.8610745072364807,0.14500387012958527,1.0948089361190796,-0.7612056732177734,0.10328945517539978,0.6402320861816406,-0.018426835536956787,-0.003023959696292877,-0.0610390305519104,0.2815005087228127,0.5904058640068592,-0.6866854930870759,0.31724025389735233,-0.10347400650603773,-2.2700869137655353,1.4685128701231236
1773062117575392000,3.761154890060425,-0.78572678565979,0.07634758949279785,1.1628564596176147,-0.7607520818710327,0.1065480187535286,0.640237033367157,0.044687747955322266,0.05975750833749771,-0.05021029710769653,0.28257939647940733,0.5851051933604654,-0.6912093919251661,0.31627562154785643,-0.10675064952608156,-2.2703843178428054,1.454632177567894
1773062117585447936,3.7712109088897705,-0.7614452838897705,0.028789667412638664,1.1814922094345093,-0.7598018050193787,0.1106562688946724,0.6406689286231995,0.01645451784133911,-0.0417323112487793,-0.10893064737319946,0.28310731889468166,0.5798563440455253,-0.6957737257503284,0.3154613376410072,-0.11088335162599514,-2.2713324851960537,1.4411377832327787
1773062117595503104,3.7812659740448,-0.8369136452674866,0.05218740552663803,1.2263579368591309,-0.7586700320243835,0.11467521637678146,0.6413028836250305,-0.02264094352722168,0.0010321661829948425,-0.03554421663284302,0.283652292722072,0.5744382324996457,-0.700479952400495,0.3144677171861215,-0.11492805648134873,-2.2725547718228016,1.4270960054037443
1773062117605559040,3.7913219928741455,-0.8885452747344971,-0.005959082394838333,1.3138387203216553,-0.7573863863945007,0.11869864910840988,0.6420878767967224,-0.039336204528808594,0.02995249629020691,0.012346446514129639,0.284259557813393,0.5686946286723689,-0.7054292039614579,0.3132932481268872,-0.11897915958763713,-2.2739931440382444,1.4121472380933666
1773062117615614208,3.801377058029175,-0.7837112545967102,-0.22327116131782532,1.490048885345459,-0.7550210356712341,0.12387396395206451,0.643893301486969,-0.002242147922515869,0.08631585538387299,-0.04066765308380127,0.2841214727338453,0.5626188972805436,-0.7109195590613939,0.3119749484123676,-0.12419297662297438,-2.2769223972002863,1.3963120286820454
1773062117625669888,3.8114328384399414,-0.6078588366508484,-0.3465818166732788,1.578839659690857,-0.7511272430419922,0.13107112050056458,0.6470149159431458,0.014509201049804688,0.15213198959827423,-0.08504903316497803,0.2825723016501236,0.5566021013965669,-0.7167297766741305,0.31087853069804955,-0.13144934977672162,-2.2818669204310456,1.3809322519749785
1773062117635725056,3.8214879035949707,-0.5735248327255249,-0.4034823775291443,1.662736177444458,-0.7464668154716492,0.13945667445659637,0.6506453156471252,-0.03655320405960083,0.16959482431411743,-0.03451061248779297,0.2803157585614522,0.5504816044384909,-0.722698175104368,0.31000078582515606,-0.1399126990838387,-2.2877162990158912,1.365630170451604
1773062117645780992,3.8315439224243164,-0.5826676487922668,-0.46506914496421814,1.732083797454834,-0.7411337494850159,0.14839747548103333,0.6547513008117676,-0.0740365982055664,0.17806433141231537,0.030429422855377197,0.277658937844544,0.5441441260734697,-0.7288915104024786,0.30907921761423934,-0.14894760822448308,-2.294389673771579,1.3498211273640346
1773062117655837184,3.841599941253662,-0.7912932634353638,-0.5297743678092957,1.7313591241836548,-0.7351899147033691,0.15670467913150787,0.6594995856285095,-0.10650020837783813,0.11555787920951843,0.05937248468399048,0.27499260420821064,0.5376368029833046,-0.7353206583269705,0.3076188390689299,-0.1573532272757639,-2.3019773185817654,1.3330173725610572
1773062117665892096,3.8516550064086914,-0.8253955841064453,-0.5881401896476746,1.887176275253296,-0.728588879108429,0.1645786017179489,0.6648848652839661,-0.12715446949005127,0.06949123740196228,0.023011744022369385,0.27235116590946695,0.5306322617289356,-0.7422074067610753,0.3055852219877634,-0.16533077041706715,-2.3105103329897783,1.3144462453292787
1773062117675948032,3.861711025238037,-0.8801712393760681,-0.6753848195075989,1.912338376045227,-0.7211170196533203,0.1728065311908722,0.6709161400794983,-0.10078245401382446,-0.009674817323684692,-0.01910632848739624,0.26930812979525065,0.5232871062064398,-0.749418895213141,0.30334001546895034,-0.17367836280930066,-2.320147115428595,1.2949004560541366
1773062117686003968,3.8717668056488037,-0.879672110080719,-0.7451025247573853,1.9068734645843506,-0.7128439545631409,0.18061363697052002,0.6776666045188904,-0.09956443309783936,-0.11715233325958252,-0.07618051767349243,0.26597496886449407,0.5159801446858093,-0.7567019269229786,0.3007057476130582,-0.18161030747727044,-2.330901766264541,1.275028257751223
1773062117696059904,3.8818228244781494,-1.0086904764175415,-0.750508725643158,1.8756492137908936,-0.7041533589363098,0.18770000338554382,0.6847897171974182,-0.12442946434020996,-0.16763466596603394,-0.1465817093849182,0.2626467365041786,0.5086242189425725,-0.7640001734360748,0.2976942903064369,-0.1888199976188398,-2.3422541207120218,1.2546727694791024
1773062117706114816,3.8918776512145996,-1.0825750827789307,-0.7054133415222168,1.7392094135284424,-0.6956719756126404,0.19315625727176666,0.6919043064117432,-0.11107563972473145,-0.15438365936279297,0.0014094710350036621,0.25983651140405634,0.5013152746697621,-0.771125896354012,0.29416486373701395,-0.19437797799957068,-2.3534791873488867,1.23393711341435
1773062117716170752,3.9019336700439453,-1.0896892547607422,-0.6813692450523376,1.6607526540756226,-0.687531054019928,0.19722841680049896,0.6988577246665955,-0.07702583074569702,-0.09720705449581146,0.14716589450836182,0.2574186369427961,0.49431354691160717,-0.7778708003390824,0.290356351294311,-0.1985299969406379,-2.364364232758363,1.2136940024680716
1773062117726225920,3.9119887351989746,-0.9377579092979431,-0.7164003849029541,1.6158698797225952,-0.6792832016944885,0.20135198533535004,0.7057134509086609,-0.0561903715133667,-0.05274665355682373,0.17098015546798706,0.25478135647581096,0.48758143939755694,-0.7842965426214255,0.2867571607671135,-0.20273797286692014,-2.3752754267586873,1.1943713036957349
1773062117736281856,3.9220447540283203,-0.9151103496551514,-0.7413851022720337,1.5390360355377197,-0.670857310295105,0.2056024670600891,0.712515652179718,-0.061289966106414795,-0.13231448829174042,0.19271212816238403,0.2518453626287159,0.48121434504630756,-0.7903736915226279,0.2834011799921583,-0.20707929109056228,-2.3862989722450068,1.176188170233926
1773062117746337024,3.9320998191833496,-1.0542908906936646,-0.7669583559036255,1.4761215448379517,-0.6622934937477112,0.2085694819688797,0.7196295857429504,-0.06713783740997314,-0.20644846558570862,0.21115678548812866,0.24908274920091583,0.47503927281049796,-0.7963369065573388,0.27954101285151134,-0.21011203758581498,-2.3976607658058033,1.157956013600812
1773062117756392704,3.942155599594116,-1.1788359880447388,-0.7289627194404602,1.4446887969970703,-0.6536845564842224,0.21017363667488098,0.7269963026046753,-0.04068189859390259,-0.27111726999282837,0.1324549913406372,0.24661882491440823,0.46884723736243406,-0.8022969660066968,0.27510184578408775,-0.21175256639852807,-2.409242936118699,1.1391720775679632
1773062117766447872,3.9522106647491455,-1.2698156833648682,-0.7616419792175293,1.4133220911026,-0.6451616287231445,0.2105167955160141,0.7344717383384705,-0.015848994255065918,-0.3086308240890503,0.10988843441009521,0.24449423640656842,0.46257602539457215,-0.8082445737493793,0.270160263948109,-0.2121035668676381,-2.4208389828561283,1.119824034926053
1773062117776503808,3.962266683578491,-1.2850109338760376,-0.7468111515045166,1.3490467071533203,-0.6365998983383179,0.20985104143619537,0.7420936226844788,-0.0051084160804748535,-0.22082212567329407,0.1772330403327942,0.2425182298674545,0.45637432315011633,-0.8141064364483533,0.26483590203916363,-0.21142260375789218,-2.432562837130429,1.1003754784408792
1773062117786559744,3.972322702407837,-1.096517562866211,-0.6354634761810303,1.32401704788208,-0.6286872625350952,0.20932073891162872,0.7489573359489441,-0.02501446008682251,-0.10362313687801361,0.1714528203010559,0.24069757462352187,0.45035681081892587,-0.8195470748174548,0.2599730620569789,-0.21088026046748204,-2.443274938235932,1.0819719447653344
1773062117796614912,3.982377767562866,-0.9795520901679993,-0.6076805591583252,1.3754067420959473,-0.6210606694221497,0.21007584035396576,0.7550840973854065,-0.025866270065307617,-0.06984755396842957,0.13117694854736328,0.23863938691103342,0.4443429336581271,-0.8246826063866093,0.2559477385503142,-0.21165253595168465,-2.45327883428637,1.0645232816889005
1773062117806670848,3.992433786392212,-0.965283215045929,-0.48098596930503845,1.3642867803573608,-0.6140095591545105,0.21118511259555817,0.7605220675468445,0.008998453617095947,-0.07457315921783447,0.12451845407485962,0.2367742474553356,0.4381940360480394,-0.8296065412826255,0.25234326180510497,-0.21278726206052104,-2.462384393842898,1.047322016016056
1773062117816725760,4.002488613128662,-0.9526411890983582,-0.41301649808883667,1.388097882270813,-0.6076620817184448,0.2123056799173355,0.7652928233146667,0.0110740065574646,-0.1315561681985855,0.13314467668533325,0.23526786005085495,0.4318620736146756,-0.834350980030705,0.24900324599766077,-0.21393381827993221,-2.4705052959003413,1.0301165087265183
1773062117826781696,4.012544631958008,-0.9321078062057495,-0.36728501319885254,1.3896558284759521,-0.6016936898231506,0.2134750485420227,0.7696710228919983,0.04198598861694336,-0.13267973065376282,0.16091692447662354,0.23393703974815602,0.4253979851172818,-0.8389708291374927,0.24584152610893456,-0.2151306283410092,-2.4780765167026586,1.0129026382285973
1773062117836836864,4.022599697113037,-0.7755166292190552,-0.2564690113067627,1.4119664430618286,-0.5961472988128662,0.2151964008808136,0.7734980583190918,0.057359397411346436,-0.06961226463317871,0.09256041049957275,0.23268360477229097,0.418826908991,-0.8434056323577199,0.24312424444770742,-0.21689294172437895,-2.4849646529448584,0.9959719693801767
