time,seconds_elapsed,rotationRateX,rotationRateY,rotationRateZ,gravityX,gravityY,gravityZ,accelerationX,accelerationY,accelerationZ,quaternionW,quaternionX,quaternionY,quaternionZ,pitch,roll,yaw
1773063598691892224,0.035456180572509766,-0.04320172965526581,-0.053068626672029495,-0.025664236396551132,0.050102390348911285,0.23238959908485413,-0.9713314771652222,-0.004326019436120987,0.001161426305770874,0.016344904899597168,0.09573408643088846,0.013829535382047798,0.11892438678245827,-0.9881804723553689,-0.23453382416128513,0.051535471369481486,-2.9423645335904336
1773063598701927680,0.045491695404052734,-0.06458184868097305,-0.08968283236026764,0.00038440851494669914,0.04934938997030258,0.23290957510471344,-0.9712454676628113,0.01676693931221962,-0.01087893545627594,0.02901524305343628,0.09572050405257722,0.013428502584147869,0.11915090593616044,-0.9881601044873956,-0.2350684743431649,0.050766762009953136,-2.9424646977746383
1773063598711965440,0.05552959442138672,-0.09377147257328033,-0.11110197007656097,0.022168133407831192,0.048395268619060516,0.23370912671089172,-0.9711014032363892,0.030156981199979782,-0.004308491945266724,0.00671541690826416,0.09583803149463976,0.012897222342939739,0.11951133311561311,-0.9881121913677616,-0.23589071044421622,0.049794246017734425,-2.942313834790731
1773063598722002432,0.0655665397644043,-0.11139653623104095,-0.11395155638456345,0.0314769484102726,0.047367095947265625,0.23468270897865295,-0.970917284488678,0.026561737060546875,0.005582183599472046,0.014267504215240479,0.0960617450303357,0.012307335723672676,0.1199578493808935,-0.9880438948018531,-0.23689215259915186,0.04874727410591908,-2.9419513237351307
1773063598732039424,0.07560348510742188,-0.11836882680654526,-0.10534994304180145,0.02525114268064499,0.046366188675165176,0.2358161062002182,-0.9706909656524658,0.018453147262334824,-0.0011817067861557007,0.01770329475402832,0.09627784588478683,0.011723975704476714,0.12048679784778062,-0.9879656305034522,-0.2380582789878483,0.04772989115757982,-2.941595631369741
1773063598742077696,0.08564162254333496,-0.11953049898147583,-0.06855597347021103,0.016246195882558823,0.04555042088031769,0.23695561289787292,-0.970452070236206,-0.0018492527306079865,-0.009065598249435425,0.017388105392456055,0.0964522007699988,0.01123794466544665,0.1210275933203959,-0.9878881768694927,-0.2392310110425703,0.04690289803950664,-2.941301895685509
1773063598752114432,0.09567856788635254,-0.11580775678157806,-0.03638791665434837,0.007505434565246105,0.045116256922483444,0.23810429871082306,-0.9701911211013794,-0.010890796780586243,-0.012670964002609253,0.01337355375289917,0.09654553440737249,0.010952499629120606,0.12159140366198096,-0.9878129814133197,-0.24041355119719016,0.04646896443892092,-2.9411242701252895
1773063598762152704,0.10571670532226562,-0.10594233870506287,-0.044826675206422806,-0.0019967237021774054,0.044753123074769974,0.2391640841960907,-0.9699472784996033,-0.0032186955213546753,-0.0023019015789031982,0.0057291388511657715,0.0965933446432907,0.010712513371950682,0.12211310509369909,-0.9877465575223464,-0.24150485895761373,0.046107048439972584,-2.9410335557084455
1773063598772189696,0.1157536506652832,-0.10912925750017166,-0.045981425791978836,-0.014381488785147667,0.04429948702454567,0.24018967151641846,-0.9697146415710449,-0.0060304440557956696,-0.005433201789855957,-0.007061481475830078,0.09657448377024991,0.010437017636327737,0.12261218931708984,-0.9876896011722865,-0.24256123570084967,0.04565127237066526,-2.9410911084158093
1773063598782227456,0.1257915496826172,-0.11511311680078506,-0.02415894903242588,0.001889094477519393,0.043876588344573975,0.24127012491226196,-0.9694656133651733,-0.013999883085489273,-0.014814436435699463,-0.00784456729888916,0.09658209964177689,0.010170919366870415,0.1231411569381844,-0.987625835421212,-0.2436744211041952,0.04522766617845376,-2.941089432606788
1773063598792264448,0.13582849502563477,-0.10264752805233002,-0.0031994718592613935,0.004268229007720947,0.0438014417886734,0.24237458407878876,-0.9691934585571289,-0.0093013234436512,-0.011539638042449951,0.005158483982086182,0.09660012538404672,0.010076674830296495,0.12370013315401378,-0.9875551266026125,-0.24481267051807964,0.04516297011209686,-2.941021208522407
1773063598802301696,0.14586567878723145,-0.05885156989097595,-0.05258539691567421,0.008146057836711407,0.043548405170440674,0.24314343929290771,-0.9690122604370117,-0.0014646761119365692,0.0030418485403060913,0.008273184299468994,0.09664313750642037,0.009906554326294049,0.12407947604969909,-0.9875051175613452,-0.24560522756858594,0.04491080637149344,-2.9409381044256837
1773063598812339456,0.15590357780456543,-0.07168423384428024,-0.07338641583919525,0.004515770357102156,0.042922090739011765,0.24371464550495148,-0.968896746635437,-0.001723356544971466,0.008421570062637329,0.007303118705749512,0.09672543091028206,0.009553967656847729,0.12433969859793184,-0.9874677135998894,-0.24619416178893053,0.044271019883410104,-2.940831395523877
1773063598822376448,0.165940523147583,-0.08055922389030457,-0.03534315899014473,-0.0179477259516716,0.04233530908823013,0.2445039302110672,-0.9687236547470093,0.0036699362099170685,-0.0006837397813796997,0.020466208457946777,0.09673008132018433,0.00922018385516819,0.12471227806333236,-0.9874235032412011,-0.24700806240397583,0.04367436287028262,-2.940869208623742
1773063598832414720,0.1759786605834961,-0.0031178260687738657,-0.02092653699219227,0.006284774746745825,0.042114000767469406,0.24495409429073334,-0.9686195850372314,-0.013412218540906906,-0.003911003470420837,0.035041093826293945,0.09672998177545804,0.009086996873788342,0.12493051368351442,-0.9873971396354754,-0.24747234339711557,0.04345100565112747,-2.940881713784731
1773063598842451456,0.18601560592651367,0.06448864936828613,0.018398232758045197,0.008307978510856628,0.04209600389003754,0.24461646378040314,-0.9687057137489319,-0.019223075360059738,-0.006625130772590637,0.008180201053619385,0.09677376456897699,0.009089095490677811,0.12475794398222631,-0.9874146422290737,-0.24712412529061417,0.043428603744084485,-2.9408077790803486
1773063598852488448,0.19605255126953125,0.045790236443281174,-0.004669536836445332,0.01168406754732132,0.04227312654256821,0.2440003901720047,-0.9688533544540405,-0.0001283511519432068,0.0029936283826828003,-0.018359780311584473,0.0968031987556001,0.009204617725083906,0.1244532265425258,-0.9874491541030428,-0.24648879771396742,0.043604462865705226,-2.940747737395805
1773063598862526720,0.20609068870544434,-0.0011636868584901094,-0.04139905422925949,-0.013717162422835827,0.04203272983431816,0.24380794167518616,-0.9689122438430786,-0.0063119009137153625,-0.0008880198001861572,-0.0020807981491088867,0.09681937124425984,0.009091523278518344,0.12434316632131641,-0.9874624349872726,-0.24629035127282123,0.043354175913926214,-2.9407532719615745
1773063598872563712,0.21612763404846191,0.0005110418424010277,-0.04522322118282318,-0.02064737305045128,0.04156746342778206,0.24386239051818848,-0.9689186215400696,0.0037663988769054413,-0.014477014541625977,0.02490311861038208,0.0967593493206418,0.00886306710052856,0.12434685107042816,-0.9874699289568174,-0.24634648840667828,0.042874593786726235,-2.940933319025304
1773063598882601472,0.2261655330657959,0.018627993762493134,-0.06509386003017426,-0.02762885019183159,0.04097116366028786,0.2437717169523239,-0.9689668416976929,-0.0003217458724975586,-0.015896961092948914,0.011920332908630371,0.09667971721962187,0.008578524604376156,0.12426985170359214,-0.9874899550237405,-0.24625300592106983,0.042258176308360255,-2.9411753659204667
1773063598892638720,0.23620271682739258,0.0016099067870527506,-0.07580123841762543,-0.04769882932305336,0.040194395929574966,0.2436421811580658,-0.9690319299697876,-0.011126402765512466,-0.014561980962753296,-0.0014423131942749023,0.09653327312144337,0.008213795354141363,0.12416345991304176,-0.9875207758196619,-0.24611944032312838,0.04145515561280923,-2.941577431449132
1773063598902676480,0.24624061584472656,-0.03503599017858505,-0.07344194501638412,-0.06506504118442535,0.03927191346883774,0.24383647739887238,-0.9690209031105042,-0.014979913830757141,-0.017838552594184875,0.00506216287612915,0.09629584788546704,0.007771471824618136,0.1242141694263214,-0.9875410875935905,-0.24631976967974317,0.040505249812469044,-2.942171103081753
1773063598912713472,0.25627756118774414,-0.037588849663734436,-0.008821537718176842,-0.027918336912989616,0.03873120993375778,0.24426406621932983,-0.968934953212738,-0.01500379666686058,-0.018083035945892334,0.013658463954925537,0.09606239329681203,0.007508684749109258,0.12440312971740322,-0.9875421806040595,-0.24676070289890148,0.039951702750376336,-2.942699324319723
1773063598922750464,0.2663145065307617,0.049486927688121796,-0.02223934233188629,0.052357062697410583,0.03871434926986694,0.24422098696231842,-0.9689465165138245,-0.013354241847991943,-0.00951029360294342,0.008939802646636963,0.09612668732437414,0.007494245709688594,0.12438082029269693,-0.9875388257475435,-0.2467162700860801,0.039933854162848,-2.9425727877641923
1773063598932788736,0.2763526439666748,0.11593013256788254,-0.04769490286707878,0.10883844643831253,0.0385383702814579,0.24331121146678925,-0.9691823720932007,0.014012906700372696,0.014775946736335754,-0.015085816383361816,0.09655143739282379,0.007397380687327968,0.12391166044373694,-0.9875570381077385,-0.2457781970512438,0.03974285718567498,-2.941766843159048
1773063598942825472,0.2863895893096924,0.10824265331029892,-0.03892005234956741,0.1289336085319519,0.038409776985645294,0.24213561415672302,-0.9694818258285522,0.03840296342968941,0.024603277444839478,-0.037018418312072754,0.09717439990557723,0.007313106833609998,0.12331098296166777,-0.9875718097582978,-0.24456635590874123,0.03959816313008339,-2.94056242130309
1773063598952863488,0.29642748832702637,0.06146054342389107,-0.04476609081029892,0.11995940655469894,0.03834224119782448,0.24124060571193695,-0.9697076082229614,0.030673261731863022,0.007676020264625549,-0.013370394706726074,0.09783379964494601,0.007241645817024841,0.12285664169772882,-0.9875638956458648,-0.2436440164142542,0.03951941479167313,-2.939266543634624
1773063598962900736,0.30646467208862305,0.023058561608195305,-0.07112365961074829,0.08096619695425034,0.03796816244721413,0.2407771795988083,-0.969837486743927,0.008555885404348373,-0.009240314364433289,0.009754478931427002,0.0983671960994582,0.0070110576029554185,0.12260545062890395,-0.9875437647274371,-0.24316650940436635,0.03912901074759194,-2.938250137525567
1773063598972938496,0.31650257110595703,-0.051469024270772934,-0.05007270351052284,0.05751733481884003,0.037524498999118805,0.24087388813495636,-0.9698307514190674,-0.010150231420993805,-0.01713426411151886,0.011868715286254883,0.09873691863271312,0.006737884092173483,0.12263452266747066,-0.987505140367844,-0.24326614873768235,0.03867251221256747,-2.9375548399891684
1773063598982975488,0.3265395164489746,-0.13395005464553833,-0.03221221640706062,0.04425772279500961,0.03725099191069603,0.24178533256053925,-0.9696144461631775,-0.015720847994089127,-0.01789313554763794,0.022348880767822266,0.09902385072976103,0.006519003162287072,0.12308642142735665,-0.9874216756192333,-0.24420534869156363,0.038399470212387536,-2.9369777928814544
1773063598993012736,0.3365767002105713,-0.12859433889389038,-0.04674721509218216,0.021900752559304237,0.03696683421730995,0.24309882521629333,-0.9692968726158142,-0.00429777055978775,-0.012919992208480835,0.02692931890487671,0.09922500891601085,0.006284807412612826,0.12374193880671013,-0.9873210607989349,-0.24555923794285986,0.03811931063521149,-2.936562331985016
1773063599003050496,0.3466145992279053,-0.09234579652547836,-0.03933670371770859,0.005397143308073282,0.03655428811907768,0.24416285753250122,-0.9690450429916382,0.004690226167440414,-0.01920253038406372,0.0035756826400756836,0.09931078362585825,0.006013150702487079,0.1242631295681938,-0.9872485709853271,-0.24665632368560628,0.03770409184850638,-2.9364059086321923
1773063599013087488,0.35665154457092285,-0.09830115735530853,-0.010958325117826462,0.003099367953836918,0.03635874763131142,0.24505986273288727,-0.9688259363174438,-0.0037812404334545135,-0.014911562204360962,-0.013031303882598877,0.09936311910529731,0.005862886724919978,0.12471028012012828,-0.9871879395404826,-0.24758143421593276,0.037511064113896736,-2.9362950745795513
1773063599023125760,0.36668968200683594,-0.08186706155538559,0.0055133262649178505,-0.021034996956586838,0.036319609731435776,0.24593473970890045,-0.9686056971549988,-0.013263579457998276,-0.007851853966712952,-0.0021126866340637207,0.09931674322622239,0.005804608726796865,0.12515374384874658,-0.9871368004457153,-0.24848393663103496,0.037479237345067286,-2.936364541270645
1773063599033162496,0.3767266273498535,-0.057628292590379715,-0.003299074014648795,-0.01672280579805374,0.03634042665362358,0.24661658704280853,-0.9684315323829651,-0.00814218819141388,0.0004995018243789673,0.0015583634376525879,0.09919764690577451,0.0057954865074975395,0.12550157165504117,-0.9871047087559152,-0.24918744953077596,0.037507434400775835,-2.936580047449047
1773063599043199488,0.3867635726928711,-0.035725925117731094,0.005607335828244686,-0.020061077550053596,0.03627053275704384,0.24707379937171936,-0.9683176279067993,0.011886205524206161,0.01438555121421814,0.0031534433364868164,0.09912010505498177,0.0057470739235611756,0.12573053236904347,-0.9870836026535584,-0.2496592547229661,0.0374397644665497,-2.9367308243692434
1773063599053237760,0.3968017101287842,-0.025066621601581573,0.021532505750656128,-0.03331190347671509,0.036317866295576096,0.247339129447937,-0.9682480692863464,0.013883549720048904,0.01688206195831299,0.0021225810050964355,0.09897775994268866,0.005775478533140317,0.1258673834295658,-0.9870802444611578,-0.249933088539049,0.03749126645345665,-2.9370039945732374
1773063599063274496,0.40683865547180176,-0.022183483466506004,0.02709292061626911,-0.038770586252212524,0.0364922471344471,0.24762043356895447,-0.968169629573822,-0.0038384422659873962,0.008574634790420532,0.0029749274253845215,0.09877485179480863,0.005874556517824841,0.12601854158013961,-0.9870807167850025,-0.2502234203222578,0.03767416427264437,-2.9373826010062523
1773063599073312512,0.41687655448913574,0.008133940398693085,0.02159988321363926,-0.036796651780605316,0.03669038414955139,0.24768699705600739,-0.9681451320648193,0.0009377859532833099,-0.0024324804544448853,-0.012354135513305664,0.09856662488181625,0.005997136351360812,0.12606139274960995,-0.9870953739607962,-0.25029213328086997,0.037879479279372415,-2.9377761363533526
1773063599083349504,0.4269134998321533,0.030359618365764618,0.012745939195156097,-0.03526666387915611,0.03670335188508034,0.24749374389648438,-0.9681940674781799,0.010370012372732162,-0.003292083740234375,-0.013602197170257568,0.09836727792816638,0.006038838269680074,0.12596233353898362,-0.9871276104898012,-0.25009266913823347,0.03789094232775863,-2.938184886775038
1773063599093387520,0.4369516372680664,0.03857240825891495,-0.00952967256307602,0.0005825476255267859,0.03671726584434509,0.24716544151306152,-0.9682773947715759,0.013407852500677109,-0.0035588741302490234,-0.014037668704986572,0.0982755487780096,0.006074051441048108,0.12579513062721542,-0.9871578855347218,-0.24975384471033527,0.03790203438264284,-2.9383801010708224
1773063599103424512,0.446988582611084,0.051198720932006836,-0.030154256150126457,0.01454843021929264,0.036517925560474396,0.24670544266700745,-0.9684022068977356,0.021480727940797806,0.004194825887680054,-0.012280166149139404,0.09833016141389125,0.0059903030579896,0.12555079801381927,-0.9871840784715176,-0.24927913785132527,0.03769159992099526,-2.938311294596628
1773063599113461504,0.45702552795410156,0.01400061883032322,-0.026914387941360474,0.026336513459682465,0.0362902507185936,0.24636581540107727,-0.9684972167015076,0.016993436962366104,0.007586196064949036,0.0017766952514648438,0.09845470130920753,0.0058774297984120925,0.12536680558350788,-0.9871956961054724,-0.24892869898631723,0.03745315726191216,-2.938100324678475
1773063599123499520,0.46706366539001465,-0.016601232811808586,-0.04590938612818718,0.005663991905748844,0.03601543977856636,0.24638506770133972,-0.9685025811195374,0.003443785011768341,0.0054764896631240845,0.01621687412261963,0.0985646211068435,0.005724701371754208,0.12536318519301817,-0.9871860732698186,-0.24894856577139426,0.037169598798141516,-2.9379130104929363
1773063599133536512,0.4771006107330322,-0.045494046062231064,-0.044365815818309784,-0.009665429592132568,0.03555493429303169,0.2466810643672943,-0.968444287776947,-0.0066853053867816925,-0.0065992772579193115,0.013854444026947021,0.09856866224793864,0.005478322297239939,0.1254904522107529,-0.9871709156667436,-0.24925398516082045,0.03669697096878341,-2.937955338995403
1773063599143574528,0.4871385097503662,-0.07827116549015045,-0.01913263089954853,-0.008687783032655716,0.03523275628685951,0.2473064512014389,-0.9682965278625488,-0.00994894653558731,-0.015998467803001404,0.007359027862548828,0.0985348720801014,0.005289469049215022,0.12579251039797293,-0.9871368761289122,-0.2498993708793447,0.03637028529603441,-2.9380453239295785
1773063599153611776,0.4971756935119629,-0.07851919531822205,-0.014050520956516266,-0.012182116508483887,0.03504393994808197,0.2480790764093399,-0.9681057333946228,0.007299203425645828,-0.008714452385902405,0.00022548437118530273,0.09849086890341027,0.005161358113550101,0.12617645920696252,-0.9870929002181965,-0.25069684491483585,0.036182663663302174,-2.938133693590609
1773063599163648512,0.5072126388549805,-0.08581652492284775,0.002170792780816555,-0.008434249088168144,0.03496773540973663,0.24887654185295105,-0.9679037928581238,0.005910560488700867,-0.01349446177482605,-0.005423843860626221,0.09844990430413474,0.005088097655068214,0.12657891281417938,-0.987045867496193,-0.25152012429998144,0.03611157925165815,-2.938200333651865
1773063599173686528,0.5172505378723145,-0.09501912444829941,0.004143263213336468,-0.01939142681658268,0.03497985750436783,0.24974343180656433,-0.967680037021637,0.0005273446440696716,-0.014788597822189331,-0.0019397139549255371,0.09839107634656535,0.005057946349081437,0.12702127708634148,-0.9869950793444217,-0.2524152874287328,0.036132431961454735,-2.9382891405831053
1773063599183723520,0.527287483215332,-0.10996078699827194,0.02495240606367588,-0.027469860389828682,0.03506648540496826,0.2507370412349701,-0.9674199223518372,-0.006654620170593262,-0.010151714086532593,0.008023560047149658,0.09826138226829814,0.0050679676347243595,0.12753180860134436,-0.9869420790995804,-0.2534415475160339,0.03623156686229566,-2.9385072855864083
1773063599193761536,0.5373256206512451,-0.11673582345247269,0.033494893461465836,-0.03426637873053551,0.03527894616127014,0.2518818974494934,-0.9671147465705872,-0.012390758842229843,-0.011876404285430908,0.017133057117462158,0.09809166423322173,0.005138810518566946,0.1281258293861027,-0.9868816172837839,-0.2546243648389548,0.036462386500528375,-2.938784431909015
1773063599203798528,0.5473625659942627,-0.10237472504377365,0.035596929490566254,-0.045250054448843,0.03552527725696564,0.25294575095176697,-0.9668279886245728,-0.006777722388505936,-0.009400248527526855,0.01664799451828003,0.0978670542162786,0.005238079401374499,0.12868005464193136,-0.9868312833985843,-0.2557237989105681,0.03672763051032725,-2.939170674661936
1773063599213836544,0.5574007034301758,-0.0738116130232811,0.014031180180609226,-0.03538437560200691,0.035656895488500595,0.25384482741355896,-0.966587483882904,-0.0016145408153533936,0.00108376145362854,0.012211263179779053,0.09764906637242493,0.005287448204744614,0.1291444693976431,-0.9867920143682988,-0.25665323026896153,0.03687274661971589,-2.9395643206742452
1773063599223873536,0.5674376487731934,-0.0241287462413311,0.0041282158344984055,-0.012846840545535088,0.03566066175699234,0.25429844856262207,-0.966468095779419,0.017104223370552063,0.005100935697555542,0.005606949329376221,0.09753059030342902,0.005282117073615657,0.12937558314548012,-0.986773506797911,-0.2571222471916059,0.03688118575941459,-2.9397885724387707
1773063599233910528,0.5774745941162109,-0.009135903790593147,0.013473647646605968,-0.0024553202092647552,0.035781532526016235,0.2544355094432831,-0.9664275646209717,0.015976272523403168,0.005986243486404419,-0.0014984607696533203,0.09748757963627529,0.0053415398145288204,0.1294514545960649,-0.9867674832350196,-0.2572639529844515,0.03700763292131571,-2.939854689774064
1773063599243948544,0.5875124931335449,-0.0023017001803964376,-0.00022192439064383507,0.01094011403620243,0.035867903381586075,0.2545137107372284,-0.9664037823677063,0.005590222775936127,0.009280234575271606,0.005054295063018799,0.09749736170584103,0.0053796754556666646,0.12949582082655095,-0.9867604716126234,-0.25734481666496234,0.037097793603673726,-2.9398204661522254
1773063599253985536,0.5975496768951416,0.017277415841817856,-0.013077269308269024,0.014373194426298141,0.03582405671477318,0.25444039702415466,-0.9664247035980225,0.013065099716186523,-0.0003357827663421631,0.003762960433959961,0.09756285089672011,0.00535275564221988,0.1294565190341917,-0.9867592920957389,-0.2572690005316129,0.037051682745203915,-2.939696172618079
1773063599264023552,0.6075875759124756,0.03606867790222168,-0.023116588592529297,0.011892993003129959,0.03566141054034233,0.25417274236679077,-0.9665011763572693,0.008863739669322968,-0.0068277716636657715,0.0009707808494567871,0.09762369822781526,0.005276589460386027,0.1293119558859551,-0.9867726016103903,-0.25699226647299683,0.03688070138544338,-2.939603978989242
1773063599274060544,0.6176245212554932,0.036808375269174576,-0.0033744415268301964,0.030842581763863564,0.03558347746729851,0.2537882924079895,-0.9666050672531128,-0.0038604550063610077,-0.010349571704864502,0.002066493034362793,0.09773391866342553,0.005242346788753844,0.1291123354148944,-0.98678801053009,-0.25659478178691214,0.03679622618692151,-2.9394041673296254
1773063599284098560,0.6276626586914062,0.03810187429189682,-0.0015978463925421238,0.029696891084313393,0.03566260263323784,0.25340795516967773,-0.9667019248008728,0.005169916898012161,-0.0019888877868652344,0.016994893550872803,0.09788919644901624,0.005280847743692691,0.12892306349601831,-0.9867971976924488,-0.2562015888333405,0.03687427957556132,-2.9390916588306912
1773063599294135552,0.6376996040344238,0.023598873987793922,-0.01160587277263403,0.02182818204164505,0.03566905856132507,0.25309014320373535,-0.9667849540710449,0.00310351699590683,0.00019049644470214844,0.020968914031982422,0.09802200416588876,0.0052827363333750295,0.1287618916440999,-0.9868050957921657,-0.25587305206331273,0.036877786572860095,-2.9388324182517507
1773063599304172544,0.6477365493774414,-0.00667141517624259,-0.012530788779258728,0.01924970932304859,0.035600241273641586,0.2529974579811096,-0.9668117165565491,-0.008546411991119385,-0.003226369619369507,0.025649666786193848,0.0981272532089095,0.005239149772860295,0.12871165604719859,-0.9868013527749268,-0.25577726777377957,0.036805683103765724,-2.9386314858612783
1773063599314210560,0.6577746868133545,-0.013800076209008694,0.0007037903415039182,0.016314372420310974,0.03556855395436287,0.2530994117259979,-0.9667862057685852,-0.01106293499469757,0.0001201927661895752,0.025074779987335205,0.0982271771107492,0.005205075566146909,0.1287625957531728,-0.9867849451930476,-0.25588265408761035,0.036773919728809806,-2.9384297878082886
1773063599324247552,0.6678116321563721,0.011457343585789204,-0.00240252073854208,0.00544441444799304,0.03560627996921539,0.25314173102378845,-0.9667737483978271,-0.005729570984840393,0.00555574893951416,0.011924505233764648,0.09827801696781611,0.005215231556549904,0.12878639657350932,-0.9867767002810985,-0.2559264022020687,0.036813365829139306,-2.938320205073214
1773063599334285568,0.677849531173706,0.040150463581085205,-0.0088112847879529,-0.01749086193740368,0.03551650792360306,0.25288811326026917,-0.9668434262275696,-0.007516629993915558,-0.00018730759620666504,-0.00968855619430542,0.09826162194447674,0.005185136760419552,0.1286522792700683,-0.9867960282656613,-0.2556642430164989,0.03671798856161616,-2.938374157837756
1773063599344322560,0.6878867149353027,0.06069302186369896,-0.016647636890411377,-0.011891033500432968,0.03533373028039932,0.2524156868457794,-0.9669735431671143,-0.02012072503566742,-0.005253821611404419,-0.014563322067260742,0.09817869342598486,0.0051280807071523915,0.12840141630013385,-0.9868373110256237,-0.2551759656817634,0.03652428303054215,-2.9385828232942917
1773063599354359552,0.6979236602783203,0.09004189819097519,0.007233062759041786,-0.01331595703959465,0.035280946642160416,0.25166448950767517,-0.9671712517738342,-0.008013490587472916,-0.001221984624862671,-0.015281140804290771,0.09812709614755419,0.005146168395314197,0.1280151829691508,-0.9868924408363864,-0.2543997007273811,0.03646232104323127,-2.9387196711604884
1773063599364397568,0.7079615592956543,0.08535073697566986,0.03180498257279396,-0.03131706267595291,0.035391345620155334,0.2508014738559723,-0.9673913717269897,-0.00025035813450813293,0.00283011794090271,-0.013718247413635254,0.09802498748686422,0.005258218517811831,0.12758002234521912,-0.98695836037925,-0.2535080939605638,0.03656800103235485,-2.938940771405255
1773063599374434560,0.7179985046386719,0.08685626834630966,0.001525242580100894,-0.011946959421038628,0.035471536219120026,0.24999432265758514,-0.9675973653793335,-0.009974095970392227,0.006643250584602356,-0.001824021339416504,0.09788461383428972,0.005357130116826797,0.12717166332933416,-0.9870244500154367,-0.25267438978164236,0.03664298806851136,-2.9392415658333326
1773063599384472576,0.728036642074585,0.11794068664312363,0.0056036077439785,0.015698516741394997,0.03554290905594826,0.24901257455348969,-0.9678478240966797,0.009516291320323944,0.013804808259010315,-0.0029010772705078125,0.09788340211803123,0.005442382848593344,0.1266746217777079,-0.9870880554645708,-0.2516605802930977,0.036707157314264244,-2.9392674246667627
1773063599394509568,0.7380735874176025,0.12055839598178864,0.010308614000678062,0.018020261079072952,0.035626642405986786,0.24784688651561737,-0.9681439399719238,0.011370431631803513,0.01547403633594513,-0.0004534721374511719,0.09796537297591676,0.005532420902979615,0.12608500755824126,-0.987154849019018,-0.25045716047101496,0.036782313580524424,-2.9391292070745925
1773063599404547328,0.7481114864349365,0.08198757469654083,-0.001010086853057146,0.016342734917998314,0.03573507443070412,0.2468368411064148,-0.9683979153633118,-0.0037068799138069153,0.01575164496898651,0.011855006217956543,0.09805029092121141,0.0056267207773760385,0.12557614815220955,-0.9872107589962844,-0.24941473443646683,0.03688449327098611,-2.9389766491733207
1773063599414584576,0.7581486701965332,0.03380730003118515,-0.030334552749991417,0.008745934814214706,0.03561067953705788,0.24625971913337708,-0.9685494303703308,-0.005733974277973175,0.004960983991622925,0.03199547529220581,0.09812774979840433,0.005583516490528265,0.12527610017672652,-0.9872414400073388,-0.2488192247615671,0.03675047066786359,-2.93885530276482
1773063599424621568,0.7681856155395508,0.0013529558200389147,-0.030941752716898918,0.0005188980139791965,0.03532714396715164,0.2460959106683731,-0.9686014652252197,0.0008209235966205597,0.002057775855064392,0.03813576698303223,0.09817135551461574,0.005444050195599475,0.12517839033131772,-0.9872502859257489,-0.24865020766931323,0.03645616289894073,-2.938809543166003
1773063599434659584,0.7782235145568848,-0.006173092406243086,-0.015448148362338543,0.0010207707528024912,0.035115573555231094,0.2461220920085907,-0.9686024785041809,-0.004353862255811691,-0.002942785620689392,0.028294920921325684,0.09818459071218569,0.005334966240091703,0.12518101183108507,-0.9872492135270913,-0.24867722288480704,0.03623798471836204,-2.938809548588211
1773063599444696576,0.7882606983184814,0.020908592268824577,-0.006949468515813351,0.010013999417424202,0.03502940759062767,0.24609094858169556,-0.9686135649681091,0.0002794302999973297,-0.0037661343812942505,0.01222318410873413,0.09821315362747461,0.005289705039166187,0.12516089967169586,-0.987249172154612,-0.2486450987795385,0.036148728601821535,-2.9387639951002473
1773063599454734592,0.7982985973358154,0.052995555102825165,-0.004582850728183985,0.020536549389362335,0.03503122925758362,0.24571381509304047,-0.9687092304229736,0.004855241626501083,-0.0023819059133529663,-0.004435300827026367,0.09828322416308231,0.005300738208791271,0.12496917845015519,-0.9872664584375765,-0.24825600882840518,0.03614704026789631,-2.938634255241477
1773063599464771584,0.808335542678833,0.056304000318050385,-0.00031486875377595425,0.034733593463897705,0.03507569804787636,0.24516208469867706,-0.968847393989563,0.00505492091178894,0.004059717059135437,-0.0008333921432495117,0.09841232436085881,0.005334524409901126,0.12469103475864887,-0.987288530404889,-0.2476868824218035,0.03618772881989351,-2.9383850648332484
1773063599474809600,0.8183736801147461,0.06854157894849777,-0.016054682433605194,0.06649312376976013,0.035144250839948654,0.2445492446422577,-0.9689997434616089,0.003964021801948547,0.006015315651893616,0.012700974941253662,0.09866500941308563,0.005367970782999101,0.12438368949435034,-0.9873019054493518,-0.24705479588837914,0.03625269588013903,-2.9378844668444124
1773063599484846592,0.8284106254577637,0.10306040197610855,-0.08311761170625687,0.1265982687473297,0.034905094653367996,0.24368852376937866,-0.9692252278327942,0.0088418610394001,0.011636793613433838,0.02574378252029419,0.09916140265034075,0.0052292780303769704,0.12393564405424473,-0.9873092307609072,-0.24616722279545153,0.03599784061971072,-2.9369382411189564
1773063599494883584,0.8384475708007812,0.11279940605163574,-0.13525351881980896,0.1976040005683899,0.03419972211122513,0.24253016710281372,-0.9695408940315247,0.019526474177837372,0.01877659559249878,0.03753405809402466,0.10003054178548117,0.004826004652091125,0.12331372702876506,-0.9873015467828812,-0.24497304139357026,0.0352595220459755,-2.9353065631777713
1773063599504921600,0.8484857082366943,0.08004732429981232,-0.18047799170017242,0.2819678783416748,0.03323958441615105,0.2414887547492981,-0.9698341488838196,0.020929113030433655,0.027783095836639404,0.06634598970413208,0.1013016525311432,0.004240175810102669,0.12273930127081886,-0.9872462268247698,-0.2438997148532049,0.03426006038250475,-2.932888504767203
1773063599514958592,0.8585226535797119,0.05325574800372124,-0.22881968319416046,0.3933311700820923,0.03206451237201691,0.2407492846250534,-0.9700575470924377,0.011041563004255295,0.029270246624946594,0.10210710763931274,0.10309289140536156,0.0034678671928441533,0.12230780357129578,-0.9871173734863035,-0.2431377744333112,0.03304220874912152,-2.929433335388044
1773063599524996608,0.8685605525970459,0.04255729541182518,-0.26526957750320435,0.5459268093109131,0.030809694901108742,0.24011074006557465,-0.9702564477920532,-0.0043051838874816895,0.02671968936920166,0.1081501841545105,0.10556974587118019,0.002567097795450272,0.12192284315785236,-0.9869059446325253,-0.24247992842764435,0.03174351047553009,-2.924594418652881
1773063599535033344,0.8785974979400635,-0.01661490462720394,-0.3063572347164154,0.7333881855010986,0.02953074313700199,0.23977424204349518,-0.9703794121742249,-0.03284190595149994,0.018938511610031128,0.12238752841949463,0.10889300719393402,0.0015350254227430103,0.12168782251262429,-0.9865758907344603,-0.24213329735927794,0.030422772478198162,-2.918031635658503
1773063599545071616,0.8886356353759766,0.0009723458206281066,-0.49132201075553894,1.0079220533370972,0.027714896947145462,0.23971503973007202,-0.9704475998878479,-0.05159490555524826,0.013702914118766785,0.13254177570343018,0.1134240239300974,7.091415589287812e-05,0.12155732842442198,-0.9860825682576744,-0.24207232080170127,0.028551119401568684,-2.9090765823591815
1773063599555108608,0.8986725807189941,0.03533875569701195,-0.7639263868331909,1.3224945068359375,0.02441147342324257,0.23918718099594116,-0.9706665873527527,-0.06300094723701477,-0.008642137050628662,0.07364815473556519,0.11958734645660427,-0.0023080814778313227,0.12108423462702321,-0.9854096414919231,-0.2415286450885148,0.025143885101172016,-2.897006294986106
1773063599565145600,0.9087095260620117,0.03444259986281395,-0.9133574366569519,1.643417477607727,0.01969214528799057,0.23851662874221802,-0.9709387421607971,-0.06064674258232117,-0.026953518390655518,0.05408388376235962,0.12741530433201773,-0.0055830267342719285,0.12041369260611547,-0.9844972623097712,-0.24083810651351686,0.02027877269569759,-2.881726251644359
1773063599575183616,0.9187476634979248,0.028333261609077454,-0.7097878456115723,1.5136489868164062,0.015764856711030006,0.23810552060604095,-0.9711113572120667,-0.05789437144994736,-0.022407278418540955,0.06837087869644165,0.1359002593212517,-0.008551191697614357,0.11987997204703031,-0.9834057173120633,-0.24041480121992218,0.01623240475049059,-2.8649844837189304
1773063599585220608,0.9287846088409424,-0.4004005193710327,-1.1862082481384277,1.1317298412322998,0.010084130801260471,0.23854570090770721,-0.9710789322853088,-0.213132843375206,0.11236067116260529,0.08812910318374634,0.14313180415789126,-0.01229637121191763,0.11962165676595296,-0.982370988171474,-0.2408680368457511,0.010384087006857235,-2.8509713892931656
1773063599595258368,0.9388225078582764,-0.3459888994693756,-0.9901626706123352,1.3878214359283447,-0.0015261860098689795,0.244976207613945,-0.9695279002189636,-0.4171444773674011,0.2782629132270813,0.3159787058830261,0.1546853725405809,-0.019999837128395377,0.12180337319399857,-0.9802226402206256,-0.24749515748883033,-0.0015741524770094483,-2.8287571569447696
1773063599605295616,0.948859691619873,1.1015970706939697,0.05465104430913925,1.7799609899520874,-0.0011015732306987047,0.24034318327903748,-0.9706873297691345,-0.469174325466156,0.21467390656471252,0.04220527410507202,0.16266226819204618,-0.02038550296550615,0.11933462292068317,-0.9792266142574803,-0.24271938052378275,-0.001134837843918763,-2.8125112413764626
1773063599615332608,0.9588966369628906,1.3531956672668457,0.22464407980442047,1.978149652481079,0.005012627691030502,0.22807292640209198,-0.9736311435699463,-0.4987260103225708,0.18812578916549683,-0.35785073041915894,0.1720548354409808,-0.017397796405786557,0.11349776487866631,-0.9783724977683951,-0.23009799145397133,0.005148338968355366,-2.792841221730335
1773063599625370624,0.9689345359802246,1.6493929624557495,0.12135151028633118,1.8120487928390503,0.010851740837097168,0.21346062421798706,-0.9768913984298706,-0.48321807384490967,0.36042243242263794,0.1269005537033081,0.1813688727738449,-0.014217920095687755,0.10654647368992125,-0.9775229494577986,-0.21511586343892453,0.011107984949869296,-2.7734870549557895
1773063599635407616,0.9789717197418213,2.1047890186309814,0.06853889673948288,1.9203596115112305,0.015567293390631676,0.19468870759010315,-0.980741560459137,-0.5027194023132324,0.32668885588645935,0.11814695596694946,0.1905157269997883,-0.01104921173180583,0.09750458389362444,-0.976767436324884,-0.19594006938892777,0.015871649224305378,-2.75477527451322
1773063599645445632,0.9890096187591553,2.3605713844299316,0.19574664533138275,2.1640377044677734,0.02040427178144455,0.1721668392419815,-0.9848564863204956,-0.45386070013046265,0.2975749969482422,0.1211632490158081,0.200574475111408,-0.0073666045401168685,0.08670353534504541,-0.9758064255419236,-0.17302893385306167,0.020715052653671854,-2.734348251887927
1773063599655482624,0.9990465641021729,2.5286457538604736,0.2695947587490082,2.403204917907715,0.026549603790044785,0.14743046462535858,-0.9887160062789917,-0.4549401104450226,0.3085936903953552,0.24477380514144897,0.21173741751029487,-0.0026879956060999848,0.07506505534302578,-0.9744358485169774,-0.1479698378641089,0.02684615619437011,-2.71167035745021
1773063599665520640,1.009084701538086,2.7818076610565186,0.2264433205127716,2.5643115043640137,0.032301902770996094,0.12033083289861679,-0.9922081828117371,-0.4746999740600586,0.2963866889476776,0.30174797773361206,0.22380732038902085,0.002252257470248575,0.06237656897328406,-0.9726326345274175,-0.12062312693320652,0.03254407663498549,-2.6872916428563984
1773063599675557632,1.0191216468811035,3.1158387660980225,0.231218621134758,2.7088160514831543,0.0374152809381485,0.09007111191749573,-0.9952322840690613,-0.5100715160369873,0.2868820130825043,0.2850882411003113,0.2365272732969766,0.007519632607733825,0.048242251053693494,-0.97039738537073,-0.09019334719086293,0.03757682358636047,-2.661735121660175
1773063599685594624,1.029158592224121,3.506181240081787,0.2068863809108734,2.810581922531128,0.041592568159103394,0.05590797960758209,-0.99756920337677,-0.5404176712036133,0.3037264049053192,0.3034622073173523,0.2497490850908301,0.013158715213084269,0.0322836863920213,-0.9676827854668406,-0.05593714730254227,0.041669780421798024,-2.635270703711233
1773063599695632128,1.039196252822876,3.9581027030944824,0.24119243025779724,2.8704512119293213,0.044864196330308914,0.017361942678689957,-0.9988422393798828,-0.5750308036804199,0.31442517042160034,0.3328723907470703,0.26320166851152227,0.019360792104206503,0.014284718017661124,-0.9644407707968502,-0.01736281571398752,0.044886032029276414,-2.6083661283426216
1773063599705669120,1.0492331981658936,4.514364719390869,0.20628903806209564,2.8637497425079346,0.04704319313168526,-0.02639467641711235,-0.9985440969467163,-0.6068118810653687,0.28954774141311646,0.3237394094467163,0.27660133214584975,0.02626450604537287,-0.006175831858658145,-0.9606059414424782,0.02639774200454203,0.047076977107243956,-2.581493251394397
1773063599715707136,1.0592710971832275,5.031188488006592,0.17701183259487152,2.7431349754333496,0.047487568110227585,-0.07556138187646866,-0.9960097670555115,-0.6252921223640442,0.21026596426963806,0.3056105971336365,0.28940532017414233,0.03370412593039442,-0.029311435402924496,-0.9561639043038175,0.07563346834157929,0.04764173584052095,-2.5555803178932273
1773063599725744128,1.0693082809448242,5.423215389251709,0.29177650809288025,2.5937700271606445,0.04697595536708832,-0.12903976440429688,-0.9905261397361755,-0.640313982963562,0.10955429077148438,0.34039491415023804,0.3012218333834259,0.041972259451976676,-0.05454601932662946,-0.9510669870550252,0.12940058107345545,0.04738975018860713,-2.531214224844006
1773063599735782144,1.0793461799621582,5.791629791259766,0.359345018863678,2.435037851333618,0.046308234333992004,-0.18577101826667786,-0.9815012216567993,-0.6419503092765808,-0.00720687210559845,0.3734232783317566,0.3119867024446057,0.05133931646220347,-0.08132438715599354,-0.9452062904797232,0.18685647565754188,0.04714606317157127,-2.5083850413213256
1773063599745819136,1.0893831253051758,6.059803009033203,0.4101850390434265,2.2910730838775635,0.04494432732462883,-0.24488915503025055,-0.968508780002594,-0.6276164650917053,-0.14547644555568695,0.37335503101348877,0.32167893987066437,0.06144539636733708,-0.10940776360508743,-0.9384972828482384,0.24740536751868802,0.04637243056514602,-2.486939444829335
1773063599755856128,1.0994200706481934,6.101436614990234,0.3409743010997772,2.0696141719818115,0.04264745116233826,-0.30462226271629333,-0.9515179991722107,-0.6080466508865356,-0.28953972458839417,0.4203595519065857,0.33009336064808004,0.0718719507549732,-0.1381138428802109,-0.9310194962690834,0.3095418243371095,0.04479045827835501,-2.4671361290337877
1773063599765894144,1.1094582080841064,6.170084476470947,0.2734224200248718,1.9659991264343262,0.03879418969154358,-0.36328136920928955,-0.9308714270591736,-0.597937285900116,-0.44392380118370056,0.5682921409606934,0.33730340251909946,0.08200311329856495,-0.16685252256655578,-0.9228554274217791,0.3717874804929076,0.04165102827876055,-2.4485953323669047
1773063599775931136,1.119495153427124,6.38395881652832,0.33101049065589905,2.03342604637146,0.03365657478570938,-0.42186492681503296,-0.9060338139533997,-0.5436053276062012,-0.615641176700592,0.6427434086799622,0.34397449477415415,0.09226490299590709,-0.19613844824696772,-0.9136183766136936,0.43550126227402175,0.03713007894705709,-2.429644207589838
1773063599785969152,1.129533290863037,6.599846363067627,0.16241586208343506,2.3192505836486816,0.026262562721967697,-0.4806286692619324,-0.8765308856964111,-0.4221365749835968,-0.7560046315193176,0.6581928730010986,0.3509519088638353,0.10252327622038497,-0.2263261647390844,-0.9028279636528349,0.5013714635574045,0.029952974908827708,-2.407765366313719
1773063599796006144,1.1395702362060547,6.621694087982178,-0.1994093358516693,2.6040096282958984,0.013535037636756897,-0.5383197665214539,-0.842631995677948,-0.2128911167383194,-0.7902476787567139,0.6724507212638855,0.3584940579218666,0.11127339995838866,-0.2574922163493418,-0.8903920295033484,0.5684420320017217,0.016061429248930736,-2.380750291628057
1773063599806043136,1.1496071815490723,6.400813102722168,-0.7548794746398926,2.6082170009613037,-0.005159187596291304,-0.5923547148704529,-0.8056607842445374,-0.002851674798876047,-0.7065039277076721,0.6977658867835999,0.3657538971825436,0.11748145211192872,-0.28873468799198226,-0.8769575250370792,0.6339783614570134,-0.006403585027178231,-2.3492201132297184
1773063599816081152,1.1596450805664062,6.262131690979004,-1.4525386095046997,2.41422700881958,-0.029557637870311737,-0.6419011950492859,-0.7662174701690674,0.11297746002674103,-0.6040399670600891,0.6721775531768799,0.371229207911711,0.1204693966452968,-0.3199662186314967,-0.8633062849880868,0.6969751523116319,-0.03855692301627616,-2.3153721513537424
1773063599826118144,1.169682264328003,6.079967021942139,-2.047175168991089,2.3530237674713135,-0.05838003754615784,-0.6870587468147278,-0.7242528200149536,0.16835014522075653,-0.5305773615837097,0.5850163698196411,0.3747014265371914,0.12054232134033556,-0.3512024277639951,-0.8495442198432968,0.757433304481395,-0.08043335801744353,-2.2787797443721636
1773063599836156160,1.179720163345337,5.77033805847168,-2.485412836074829,2.664353847503662,-0.09218443930149078,-0.7270568609237671,-0.6803603768348694,0.18863524496555328,-0.47928768396377563,0.5032822489738464,0.3774460792015003,0.11748894075247233,-0.3821205911743322,-0.8352930942071656,0.8140254819162825,-0.13467339716417953,-2.2346451877532694
1773063599846193152,1.1897571086883545,5.1823296546936035,-2.7708513736724854,3.0886104106903076,-0.1310405433177948,-0.7600802779197693,-0.6364797353744507,0.1510600745677948,-0.4185848832130432,0.4595693349838257,0.38103482690247376,0.11128255825807545,-0.41155353728062016,-0.820397768719988,0.8634366278351686,-0.20304610179133187,-2.178182302369858
1773063599856231168,1.1997952461242676,4.615188121795654,-3.052342414855957,3.317481279373169,-0.17413969337940216,-0.785470724105835,-0.593894898891449,0.032202452421188354,-0.36771225929260254,0.36432647705078125,0.3852859049974337,0.1018867247870943,-0.4389437835194133,-0.8052963534420605,0.9034562956853802,-0.2852216938051385,-2.1099828514240917
1773063599866268160,1.2098321914672852,3.592144012451172,-2.949955701828003,3.3707902431488037,-0.21825993061065674,-0.8027344346046448,-0.5549595355987549,-0.09210382401943207,-0.3251647353172302,0.20171856880187988,0.3898630557238829,0.09025296434856662,-0.46300609432471934,-0.7908770905440459,0.9318665293324441,-0.3747084020498762,-2.035521221895011
1773063599876305152,1.2198691368103027,2.3723301887512207,-2.8896737098693848,3.4359707832336426,-0.2616223394870758,-0.8107507228851318,-0.5236763954162598,-0.1783648431301117,-0.3025915026664734,0.15642791986465454,0.39505357339958536,0.07656874041836645,-0.48197410489888876,-0.7783127639959302,0.9454333759460859,-0.46331779169533754,-1.962104411141292
1773063599886343168,1.2299072742462158,0.5813809037208557,-2.3820478916168213,3.7727417945861816,-0.30424588918685913,-0.8084661960601807,-0.5038025379180908,-0.20980742573738098,-0.36067748069763184,0.08749699592590332,0.4019646780163036,0.06065597326027252,-0.4943880859630297,-0.768326650376366,0.9415413349371836,-0.5432815391972475,-1.8959452227446187
1773063599896380160,1.2399442195892334,-1.0471783876419067,-2.6557810306549072,3.9915354251861572,-0.3481738269329071,-0.7939272522926331,-0.4984520971775055,-0.127457857131958,-0.45326507091522217,0.1877831518650055,0.4110096770733003,0.040763797972728354,-0.4991114793638995,-0.7617723366499244,0.9172412144611276,-0.6097253461323918,-1.8437693812832263
1773063599906418176,1.2499821186065674,-2.2611050605773926,-2.339449882507324,4.05674934387207,-0.39240163564682007,-0.7710376977920532,-0.5015194416046143,-0.062218666076660156,-0.5213969349861145,0.20336276292800903,0.41988088371061816,0.01753592446856515,-0.49893161543014014,-0.7579312344048652,0.8804691432967141,-0.6639325712606872,-1.807835579646989
1773063599916455168,1.260019302368164,-3.0351388454437256,-2.970179319381714,3.8756649494171143,-0.4366638958454132,-0.7407095432281494,-0.5105624794960022,0.0904267430305481,-0.3731820583343506,0.15968668460845947,0.42846954287003786,-0.008468627671157011,-0.494618071898097,-0.7561052555902043,0.8341258956750347,-0.707540110656842,-1.7861033456697946
1773063599926493184,1.270057201385498,-2.4729931354522705,-2.930858612060547,3.8242897987365723,-0.47911250591278076,-0.7084441184997559,-0.518225908279419,0.22813597321510315,-0.06352847814559937,0.04378443956375122,0.435530488530973,-0.034903131618704196,-0.48955983389144053,-0.7546032569508871,0.7872912593775675,-0.7462004881668013,-1.7723498360401868
1773063599936530176,1.2800941467285156,-0.713159441947937,-3.1527316570281982,4.055406093597412,-0.522860586643219,-0.6798480749130249,-0.5142210721969604,0.29127800464630127,0.22278636693954468,-0.4184418320655823,0.44232067561239546,-0.06014505106295578,-0.4891544118111847,-0.7493082573163939,0.7475554573626161,-0.7937285761956627,-1.749228628394475
1773063599946567168,1.2901310920715332,2.5682106018066406,-1.582255482673645,3.9557230472564697,-0.5626345276832581,-0.6620495915412903,-0.49510887265205383,0.25864893198013306,0.4168866276741028,-0.6713644862174988,0.45167501591160575,-0.07743488411572441,-0.49643669856711337,-0.7372544994835003,0.7235502036982429,-0.8491510017613436,-1.7033872655980011
1773063599956605184,1.3001692295074463,5.215066432952881,-0.2655279040336609,3.6945979595184326,-0.5918363928794861,-0.6595305800437927,-0.46341031789779663,-0.14620071649551392,0.4069060683250427,-1.548842430114746,0.4650516431477169,-0.08075990943619385,-0.5116372568241601,-0.7179360425055705,0.7201941166513846,-0.9065050098162369,-1.6292437884390543
1773063599966642176,1.3102061748504639,6.022160053253174,0.23330001533031464,3.7797279357910156,-0.6165807843208313,-0.6622595191001892,-0.42572346329689026,-0.3092462420463562,0.3445104956626892,-1.7598539590835571,0.48058510570023777,-0.07697996317983258,-0.5302945936654875,-0.6941899384453731,0.7238303343627108,-0.9665027936594325,-1.5382940655001682
1773063599976679936,1.3202440738677979,5.841496467590332,0.559160053730011,3.8978049755096436,-0.6405074000358582,-0.6624452471733093,-0.38847988843917847,-0.12057042121887207,-0.011001408100128174,-1.2807552814483643,0.4969473196222286,-0.07142066167164139,-0.5483239404144862,-0.6687924702667799,0.7240782510070813,-1.0255972644574451,-1.4433253576411096
1773063599986717184,1.3302812576293945,5.08635950088501,0.9037134051322937,4.2239766120910645,-0.6645301580429077,-0.6564074754714966,-0.35711202025413513,0.038095831871032715,-0.4304150342941284,-0.8917436003684998,0.5142391136311675,-0.06638071634984834,-0.5630609132509682,-0.6435170322056691,0.7160467539618591,-1.077685820477594,-1.353070882922742
1773063599996755200,1.3403191566467285,4.454578876495361,0.9286260604858398,4.433043003082275,-0.6897746920585632,-0.6432510614395142,-0.3323236405849457,0.30740469694137573,-0.42332297563552856,-0.6339544057846069,0.5322282487972482,-0.06339740447752863,-0.5742986540164353,-0.6187850713089658,0.6987368825002213,-1.121825953873442,-1.270926225596948
1773063600006792192,1.350356101989746,3.8839497566223145,1.1251261234283447,4.422941207885742,-0.7146673798561096,-0.6255307793617249,-0.31298843026161194,0.4810706377029419,-0.17116111516952515,-0.6005247831344604,0.5499681246792655,-0.061849498837859514,-0.5828210943209637,-0.5950036127529943,0.6758116961694749,-1.1580084357129858,-1.1978271935472096
1773063600016829184,1.3603932857513428,3.7628021240234375,0.9568781852722168,4.3293352127075195,-0.7385993003845215,-0.6050320863723755,-0.2973334789276123,0.457730770111084,0.06036961078643799,-0.5762474536895752,0.5670965004812101,-0.06111958253254863,-0.589574128618431,-0.5718988155152918,0.6498061693150406,-1.1880815553170396,-1.1318249540061238
1773063600026867200,1.3704311847686768,3.997337579727173,1.0329804420471191,4.006906509399414,-0.760647177696228,-0.5849233269691467,-0.2815679907798767,0.3884395956993103,0.16872459650039673,-0.5750756859779358,0.5829163833198713,-0.05957609189645667,-0.5963779796725646,-0.5486278198774963,0.6247855415340003,-1.216267790813796,-1.067900188050523
1773063600036904192,1.3804681301116943,4.298150539398193,1.0743293762207031,3.758758544921875,-0.7801435589790344,-0.5663224458694458,-0.26580968499183655,0.2808912992477417,0.16515368223190308,-0.5727676153182983,0.5977440163384206,-0.05612696710854017,-0.6032784829619474,-0.524982732749435,0.6020369348137129,-1.2424135462011274,-1.0040646001813618
1773063600046942208,1.3905062675476074,4.737372398376465,1.205328345298767,3.5524866580963135,-0.7976590991020203,-0.5490464568138123,-0.24957558512687683,0.29886454343795776,0.10754865407943726,-0.5231142640113831,0.6118301571001418,-0.05063038094285652,-0.610449650105483,-0.5004514426621587,0.5812228896532381,-1.2675607388692147,-0.9384733904025191
1773063600056979200,1.400543212890625,5.277472972869873,1.2996976375579834,3.3955581188201904,-0.8134739995002747,-0.5330647826194763,-0.23259851336479187,0.35683947801589966,-0.02874857187271118,-0.530203640460968,0.6253649238320977,-0.042748286592387594,-0.6179589986173568,-0.4745714236293362,0.5622188318816644,-1.2922950852025432,-0.8694774761556895
1773063600067016192,1.4105801582336426,5.861493110656738,1.5137355327606201,3.1644580364227295,-0.827700674533844,-0.5185273289680481,-0.21457211673259735,0.41720861196517944,-0.22794795036315918,-0.5409668684005737,0.638396962265831,-0.03201775036443731,-0.6258504628282798,-0.4469177763306112,0.5451277457869711,-1.3171414074920202,-0.7955037152195175
1773063600077054208,1.4206182956695557,5.5792460441589355,1.390056848526001,2.8839547634124756,-0.8401451706886292,-0.5052055716514587,-0.19729095697402954,0.4399070143699646,-0.4323098063468933,-0.6352286338806152,0.6504037563823408,-0.019621754672786835,-0.6332215316310255,-0.41907109114918356,0.5296201303374746,-1.3401458448557377,-0.7214378152579619
1773063600087091200,1.4306552410125732,4.404484272003174,1.0964670181274414,2.668555736541748,-0.8517119288444519,-0.4911928176879883,-0.18252840638160706,0.4960295557975769,-0.5793027877807617,-0.40238678455352783,0.660386730310169,-0.00939367512445143,-0.6392554723199354,-0.3938955114752493,0.513458611949355,-1.3596819975204677,-0.6573877945177684
1773063600097129216,1.4406931400299072,2.3203022480010986,1.15925931930542,2.409620523452759,-0.8620595335960388,-0.47548753023147583,-0.1753995567560196,0.5725240111351013,-0.770331621170044,0.06639081239700317,0.6689215335831817,-0.004058239493944628,-0.6420932565168237,-0.3744913991081091,0.4955181194681211,-1.3700705851424833,-0.6131347530840597
1773063600107165952,1.4507300853729248,-0.21957960724830627,1.2172077894210815,2.073394536972046,-0.8704438805580139,-0.4577386975288391,-0.18111567199230194,0.5510620474815369,-1.0636236667633057,0.5628753304481506,0.6770496028569284,-0.005528587580612905,-0.6398527919160656,-0.3635406112131894,0.4754501253904277,-1.3656506668488824,-0.5963643228936838
1773063600117204224,1.460768222808838,-2.426609992980957,0.9764707088470459,1.5285083055496216,-0.8765271306037903,-0.4393201172351837,-0.19671890139579773,0.46670645475387573,-1.4903674125671387,0.8009822368621826,0.6837661004696625,-0.01390770851315818,-0.6335985517068117,-0.3616954006403518,0.454841712464225,-1.3500245739246286,-0.6067842336381207
1773063600127241216,1.4708051681518555,-4.520757675170898,0.6081027984619141,0.9344605803489685,-0.8801602721214294,-0.4212411642074585,-0.2188011258840561,0.39090240001678467,-1.8557822704315186,0.9927726984024048,0.6881720745292329,-0.02829473183423312,-0.6243387268175292,-0.3685374920298543,0.4348133960599638,-1.327142939107055,-0.6412924942164191
1773063600137277952,1.480842113494873,-6.17020845413208,0.016986757516860962,0.525334358215332,-0.8823471665382385,-0.4023717939853668,-0.24405016005039215,0.381202757358551,-1.9671961069107056,1.129472017288208,0.6895244918642727,-0.048526534618131556,-0.6128785308010029,-0.38285911306252995,0.41410615052702476,-1.3009506534017872,-0.6967156668697115
1773063600147316224,1.4908802509307861,-6.8257880210876465,-0.5400512218475342,0.2950974106788635,-0.8846835494041443,-0.38184940814971924,-0.26744386553764343,0.428827166557312,-1.7482166290283203,1.0434142351150513,0.687457912415703,-0.07306710777930897,-0.6007822128513975,-0.40140213225730365,0.3917964999112576,-1.2772266134891708,-0.7644440647096031
1773063600157353216,1.5009171962738037,-6.221466064453125,-0.9657287001609802,-0.05949583649635315,-0.8872988820075989,-0.3623625636100769,-0.285296767950058,0.5004580020904541,-1.3275789022445679,0.6654542684555054,0.6826349396372612,-0.09770247754164288,-0.5897506600288686,-0.4203071380291331,0.37080149819295904,-1.2597024909340817,-0.8320584559253726
1773063600167390976,1.5109550952911377,-4.961978912353516,-1.2995437383651733,-0.575910210609436,-0.8894973993301392,-0.34881266951560974,-0.29516783356666565,0.49153292179107666,-0.9833101034164429,0.05279725790023804,0.6755778766221494,-0.11834245437920743,-0.5817311649636377,-0.43723956853836743,0.35630391322369803,-1.2503934047269507,-0.8903390600118373
1773063600177428224,1.5209922790527344,-3.761000394821167,-1.4047613143920898,-0.927640438079834,-0.8908855319023132,-0.3427830636501312,-0.29803138971328735,0.43203848600387573,-0.7592066526412964,-0.35441917181015015,0.667126330573505,-0.1337869487990533,-0.5771354774670601,-0.45161723736793896,0.3498778573011283,-1.2479656772901906,-0.9370568319072677
1773063600187466240,1.5310301780700684,-2.976001501083374,-1.3872294425964355,-0.9264689087867737,-0.8918353319168091,-0.34129661321640015,-0.2968948781490326,0.37976551055908203,-0.6537443399429321,-0.4578200876712799,0.6585612220326488,-0.14536002294705125,-0.5748243362398249,-0.4634055301841535,0.34829598361284453,-1.2494328784774194,-0.9739991007527572
1773063600197502976,1.541067123413086,-2.9276044368743896,-1.2029963731765747,-0.8342756032943726,-0.8926777839660645,-0.34053024649620056,-0.29523801803588867,0.32537132501602173,-0.643539547920227,-0.38643312454223633,0.650583418253173,-0.15540656557957477,-0.5729134176981098,-0.4736667949049015,0.34748080126320513,-1.251387871062586,-1.0063487791294339
1773063600207539968,1.5511040687561035,-3.4498581886291504,-1.1958140134811401,-0.8316038846969604,-0.8933319449424744,-0.33858585357666016,-0.29549556970596313,0.22939157485961914,-0.6870641708374023,-0.22595825791358948,0.6426413382173559,-0.1661512372835623,-0.5697771326387394,-0.4845202919176948,0.34541358002248873,-1.2513463150590132,-1.0412970458872108
1773063600217578240,1.5611422061920166,-4.054711818695068,-1.489977478981018,-0.762286901473999,-0.8945614099502563,-0.3347437083721161,-0.2961525619029999,0.1641843318939209,-0.7073705196380615,0.005350559949874878,0.633632566180524,-0.17907742343236757,-0.5655572369051558,-0.4965742214259099,0.3413332409123872,-1.251094103713564,-1.0817395746730416
1773063600227615232,1.5711791515350342,-4.98368501663208,-1.6938881874084473,-0.5281076431274414,-0.8970893025398254,-0.32728826999664307,-0.296838641166687,0.20392835140228271,-0.5436376333236694,0.2529238164424896,0.6232445977973662,-0.19542462538160052,-0.5598123771717948,-0.5098877467742816,0.3334323473062811,-1.2512456282962339,-1.129431153764029
1773063600237653248,1.5812172889709473,-6.22208309173584,-1.9534666538238525,0.12981151044368744,-0.9017974734306335,-0.31279778480529785,-0.29819250106811523,0.2574188709259033,-0.20305603742599487,0.4935508072376251,0.6117358627170941,-0.2168013431204857,-0.5512720974981928,-0.5242856482287978,0.31813720474314433,-1.2514495542291237,-1.186330181074319
1773063600247690240,1.5912542343139648,-7.428426742553711,-2.021108388900757,0.9618421792984009,-0.9094499349594116,-0.2869699001312256,-0.3009137213230133,0.2896684408187866,0.265271931886673,0.6278332471847534,0.5998681993915203,-0.24454247441125535,-0.5382769891206494,-0.5390871547002022,0.2910622033082513,-1.251260413656264,-1.2531793029938512
1773063600257728000,1.6012921333312988,-7.26531982421875,-2.322906494140625,1.2222126722335815,-0.9190250039100647,-0.2541673481464386,-0.30131688714027405,0.19832193851470947,0.7127091884613037,0.6248031854629517,0.5874328926316652,-0.2756631487415129,-0.5228301714225928,-0.5527937887636788,0.25698667387291213,-1.2539745941834504,-1.323379588202515
1773063600267764992,1.6113290786743164,-5.93569278717041,-2.2864878177642822,1.3323644399642944,-0.9290931224822998,-0.22223636507987976,-0.2956298887729645,-0.1335594654083252,0.8249432444572449,0.3268340826034546,0.5753210557379549,-0.3049479744763647,-0.5091088208579763,-0.5628682176266818,0.22410760077879804,-1.2627344046911229,-1.3847259960945661
1773063600277802240,1.621366262435913,-3.9294159412384033,-1.4306445121765137,1.2971704006195068,-0.9374654293060303,-0.1952848583459854,-0.28813591599464417,-0.4990885257720947,0.8061399459838867,-0.029109537601470947,0.5663397403129509,-0.32796446985181243,-0.4983686804963258,-0.5686186854468404,0.19654789659025984,-1.2726043485602354,-1.4293877848281924
1773063600287840000,1.631404161453247,-1.6325851678848267,-0.16508451104164124,1.106406569480896,-0.9419816136360168,-0.17583827674388885,-0.2859220504760742,-0.7826123833656311,0.8772390484809875,-0.3514527976512909,0.5632295027263735,-0.34106308971523325,-0.49062708790402604,-0.5707306820322668,0.17675724753330974,-1.2761018498077945,-1.452803636681036
1773063600297876992,1.6414411067962646,0.06739211082458496,0.5310384035110474,0.571148157119751,-0.9426162242889404,-0.16566306352615356,-0.2898801863193512,-0.9244339466094971,0.9951918721199036,-0.7534395456314087,0.5651748346501383,-0.3443521298164598,-0.48629365996582224,-0.5705414425557737,0.16643032006883293,-1.272448178534684,-1.4571773216077313
1773063600307915264,1.6514792442321777,1.7049802541732788,0.23930425941944122,-0.535868227481842,-0.941765308380127,-0.16756197810173035,-0.291549414396286,-0.8655619621276855,1.0579886436462402,-0.8980715274810791,0.5674725341468336,-0.3412708981464129,-0.4876058506107449,-0.5689900015840972,0.16835616717044383,-1.270576096554036,-1.4492131257756813
1773063600317952256,1.6615161895751953,4.60377311706543,-0.04376567155122757,-1.1933010816574097,-0.9396499991416931,-0.18534179031848907,-0.2875869572162628,-0.6475997567176819,0.7903985381126404,-0.7821457386016846,0.5704373688720125,-0.3296751697418128,-0.4975146264088997,-0.5642646867636882,0.18641967411579227,-1.273791466829224,-1.421835402937859
1773063600327988992,1.671553134918213,6.782278060913086,0.9209924340248108,-0.7569730877876282,-0.9359422326087952,-0.21200507879257202,-0.281186580657959,-0.33578622341156006,0.620238721370697,-1.0124382972717285,0.5781029661538255,-0.30870362161137344,-0.5139151511301306,-0.5535252641121261,0.21362622421505725,-1.278943661079907,-1.3682163463739587
1773063600338027264,1.681591272354126,6.911077499389648,-0.07819781452417374,0.5811792016029358,-0.9347386360168457,-0.2319292575120926,-0.26920732855796814,0.0749363899230957,0.8612322807312012,-0.929050087928772,0.589224743552978,-0.2871616688141553,-0.5319158834138119,-0.5361136978627035,0.23406055697835768,-1.2903821515717886,-1.2999619038759813
1773063600348064256,1.6916282176971436,6.175899028778076,0.5772711038589478,0.9691607356071472,-0.9361361265182495,-0.24136213958263397,-0.2557215988636017,0.573297381401062,1.001997470855713,0.2676234245300293,0.6012683812261694,-0.26916509721702997,-0.5474389011278684,-0.5160786556617829,0.24376924470111042,-1.3041349367615218,-1.2321094729106228
1773063600358102016,1.7016661167144775,4.355792999267578,0.8452157378196716,0.9339208006858826,-0.9364345669746399,-0.2460286021232605,-0.2501199543476105,0.6499204039573669,0.6698567867279053,1.0361155271530151,0.6128602320182545,-0.25352152550639534,-0.5573749698291994,-0.4994619014711012,0.24858077171464635,-1.3097911304102967,-1.1763002301817969
1773063600368139264,1.7117033004760742,2.4705865383148193,0.09605707228183746,0.9163615107536316,-0.9376528859138489,-0.24562443792819977,-0.24591796100139618,0.5560153722763062,0.16441719233989716,1.312827706336975,0.6206797697675539,-0.24456563574594328,-0.5632305668723873,-0.4875608292678458,0.24816381376428379,-1.3143034467360737,-1.1398380264081036
1773063600378177280,1.7217411994934082,0.8318338394165039,0.2301710546016693,0.5127307772636414,-0.9390972256660461,-0.24269339442253113,-0.24330340325832367,0.5009716153144836,-0.24383312463760376,1.2826709747314453,0.624878649099655,-0.24119101650522407,-0.565840253436035,-0.4808102796606232,0.24514128462780763,-1.3172881187294978,-1.1215571156487194
1773063600388214016,1.7317781448364258,-0.7458449006080627,-0.04268176481127739,0.007505168206989765,-0.9394112229347229,-0.2405279576778412,-0.244239941239357,0.36159127950668335,-0.643322229385376,1.1017380952835083,0.6259260969869973,-0.24135424700153107,-0.5653566620089386,-0.47993402695676124,0.24290973810658958,-1.3164352180025505,-1.120078865932923
1773063600398251008,1.7418150901794434,-3.047595500946045,0.3651234209537506,-0.02754189819097519,-0.9389595985412598,-0.23640254139900208,-0.24993737041950226,0.30591821670532227,-0.9343585968017578,1.1350996494293213,0.6237026835912115,-0.2469443434476279,-0.5604014714778542,-0.4857608885548984,0.2386617635184259,-1.3106432798922698,-1.1396014631250018
1773063600408289280,1.7518532276153564,-3.965404748916626,0.45198190212249756,0.8442907333374023,-0.9385694265365601,-0.22379864752292633,-0.26268139481544495,0.34018081426620483,-1.0304127931594849,1.038835048675537,0.6213840717983921,-0.25795434222690117,-0.5496533980128864,-0.49519942301125364,0.22571024873567097,-1.2979042479025407,-1.1742100586251643
1773063600418326016,1.761890172958374,-4.786139965057373,-0.06386321783065796,1.818435788154602,-0.9409154057502747,-0.19917136430740356,-0.27387750148773193,0.44810235500335693,-0.8990036249160767,0.4136023223400116,0.6195847494120259,-0.27468772757568516,-0.536290871267003,-0.5030442007919311,0.2005122785028373,-1.2875470458451228,-1.2132265978421053
1773063600428364032,1.771928071975708,-5.91402006149292,-0.5565978288650513,1.6953517198562622,-0.94523024559021,-0.1667758822441101,-0.2805807888507843,0.5202272534370422,-0.6269863247871399,0.5231955647468567,0.6157032007790413,-0.2970536954312168,-0.5210265853807128,-0.5110772852853106,0.16755884631738344,-1.2822424460024162,-1.2604427615741076
1773063600438401280,1.7819652557373047,-6.310636520385742,-0.5810558795928955,0.47405916452407837,-0.9486334919929504,-0.13855452835559845,-0.28442415595054626,0.3289893865585327,-0.44466686248779297,0.8131107091903687,0.6075326055169836,-0.32044274612828594,-0.5050785748777067,-0.522605179868637,0.13900171347998147,-1.2794999693874316,-1.3172693373202395
1773063600448439040,1.7920031547546387,-5.8666534423828125,-0.647666335105896,-0.6703589558601379,-0.9501699805259705,-0.12236831337213516,-0.28671056032180786,0.042211055755615234,-0.42481184005737305,0.5981882810592651,0.5954794637467772,-0.34018435057244434,-0.4908353413741858,-0.537363409197377,0.12267578244820278,-1.2777379272219018,-1.3771107397475255
1773063600458476032,1.8020401000976562,-5.156966686248779,-0.7523362636566162,-0.922227680683136,-0.9511749148368835,-0.11464598029851913,-0.2865704298019409,0.0003997683525085449,-0.45522400736808777,0.4102886915206909,0.5818253261678662,-0.3562935610915641,-0.4793429660126487,-0.5520548437770814,0.11489862020874303,-1.278165194628532,-1.4328722281635458
1773063600468513280,1.812077283859253,-4.604193687438965,-0.8799443244934082,-0.5801121592521667,-0.9526560306549072,-0.1080360934138298,-0.28420907258987427,0.16260164976119995,-0.4690055847167969,0.4411914646625519,0.5688251380337731,-0.3708285103846419,-0.46944827578529735,-0.5643957828966282,0.10824737122757248,-1.2808692771594719,-1.482276108505555
1773063600478551040,1.822115182876587,-3.952057123184204,-1.1307463645935059,-0.1939319372177124,-0.9550480246543884,-0.09948904812335968,-0.279258131980896,0.2792210578918457,-0.4627820551395416,0.5294259786605835,0.5573320409168044,-0.38488040080372615,-0.4606929735280661,-0.5735939493716625,0.09965390598672462,-1.2863245112530695,-1.524838097383865
1773063600488588032,1.8321521282196045,-3.204176425933838,-1.5832020044326782,-0.11956183612346649,-0.9586746096611023,-0.09086798131465912,-0.26960307359695435,0.28863078355789185,-0.4080485999584198,0.48191389441490173,0.5467847271982144,-0.39844981547822084,-0.454352508623273,-0.5795065676098105,0.09099349445602493,-1.2966522153342048,-1.5599313983169416
1773063600498626304,1.8421902656555176,-2.3472390174865723,-1.7655259370803833,-0.37209171056747437,-0.9629486799240112,-0.0857895165681839,-0.2556757628917694,0.20548713207244873,-0.3109695315361023,0.4241328239440918,0.536589960299639,-0.4104418488630624,-0.4513309288603595,-0.5830172846639164,0.08589509740417929,-1.3112709586682176,-1.5876024042666657
1773063600508663296,1.8522272109985352,-1.3031691312789917,-1.6568477153778076,-0.748629629611969,-0.9667623043060303,-0.08661855012178421,-0.24055776000022888,0.0857502818107605,-0.2055414915084839,0.37124931812286377,0.5272245343130816,-0.4191351467251483,-0.45171544731360463,-0.5850754259970766,0.08672723099826402,-1.3269207907491858,-1.6069149475434783
1773063600518701056,1.8622651100158691,-0.5313313603401184,-1.4197951555252075,-1.216159462928772,-0.9694910049438477,-0.09399965405464172,-0.2263878434896469,-0.014990806579589844,-0.13099119067192078,0.33521348237991333,0.5187526539993097,-0.42395448810029335,-0.4550479908618606,-0.586591628601543,0.09413863481017157,-1.341394909209991,-1.6186808511924182
1773063600528738304,1.8723022937774658,0.19047555327415466,-1.4125125408172607,-1.4733942747116089,-0.9712520837783813,-0.10691310465335846,-0.21269451081752777,-0.10119664669036865,-0.11990878731012344,0.34454572200775146,0.5112646197969486,-0.4253205890479228,-0.46125388263483774,-0.5873292999494492,0.10711783309073944,-1.3552095848739585,-1.6228244900978377
1773063600538775296,1.8823392391204834,0.5978276133537292,-1.435227632522583,-1.6318953037261963,-0.9724013805389404,-0.12294910848140717,-0.1982903778553009,-0.09577488899230957,-0.15535593032836914,0.3654046654701233,0.504274589744725,-0.4248003067946387,-0.46946726359105306,-0.5872412736498291,0.1232609927003621,-1.369636083394235,-1.6218206477242192
1773063600548813056,1.8923771381378174,0.7498999834060669,-1.5112783908843994,-1.7607346773147583,-0.9729869961738586,-0.14077278971672058,-0.18297408521175385,-0.09882098436355591,-0.2328997403383255,0.47278428077697754,0.4972141605268413,-0.42342198309939055,-0.47877633844195155,-0.5867411885299244,0.14124192828168058,-1.3849132562073223,-1.618390855378506
1773063600558850048,1.902414083480835,0.5241370797157288,-1.5915032625198364,-1.8045215606689453,-0.9729890823364258,-0.15943634510040283,-0.1669502854347229,-0.11706829071044922,-0.28407561779022217,0.5123177170753479,0.48964104883884074,-0.4219370531877448,-0.48835845113700327,-0.5862822194419848,0.1601196737843037,-1.400866131295516,-1.6148898994635312
1773063600568888064,1.912452220916748,0.27098149061203003,-1.5336498022079468,-1.8179758787155151,-0.9723994731903076,-0.17792725563049316,-0.15093451738357544,-0.14211773872375488,-0.23776793479919434,0.48903876543045044,0.4811553025834733,-0.4211191712119474,-0.49718345307999695,-0.5864783853703702,0.17887969174245957,-1.4168065349431156,-1.6140970656047346
1773063600578925056,1.9224891662597656,0.20897991955280304,-1.5969451665878296,-1.5619609355926514,-0.971443772315979,-0.1948414295911789,-0.13540302217006683,-0.1718209981918335,-0.1005229651927948,0.3149226903915405,0.47278529479799974,-0.4208141830893512,-0.5051870085819874,-0.5866648742581422,0.19609577968130884,-1.4323053017801104,-1.6141612540675212
1773063600588963328,1.9325273036956787,0.16835153102874756,-1.6760389804840088,-1.2408734560012817,-0.9707041382789612,-0.20876091718673706,-0.11896413564682007,-0.15342611074447632,0.05797353386878967,0.15119069814682007,0.4648085784468594,-0.42166776072373424,-0.51255656543827,-0.5860333701367503,0.21030778987614848,-1.4488499561745374,-1.6142446233357484
1773063600599000320,1.9425642490386963,0.17693538963794708,-1.6177400350570679,-1.063607931137085,-0.9701018333435059,-0.21998330950737,-0.10251732170581818,-0.17545175552368164,0.1885044425725937,0.11248129606246948,0.45760802583911925,-0.42315468444235227,-0.5193086294751675,-0.5846824410806791,0.22179736623960705,-1.4655102307695165,-1.6136866994622368
1773063600609037056,1.9526011943817139,0.056584473699331284,-1.5348984003067017,-1.328328251838684,-0.968955397605896,-0.23147182166576385,-0.08686889708042145,-0.26276451349258423,0.27602750062942505,0.06614745408296585,0.45027948140047896,-0.42446083837338144,-0.5257361969818735,-0.583680409422133,0.23359032457667256,-1.4813832580592725,-1.6136732220880579
1773063600619075072,1.9626390933990479,0.14704792201519012,-1.3325071334838867,-1.7037694454193115,-0.9664319157600403,-0.24641190469264984,-0.07273674756288528,-0.3877550959587097,0.27384719252586365,0.10616874694824219,0.4421670137845018,-0.4244061769908872,-0.5324575331179472,-0.5838294105199391,0.24897625604882861,-1.4956747718761658,-1.6140994488539246
1773063600629112320,1.9726762771606445,0.39824020862579346,-1.3168461322784424,-1.6186199188232422,-0.9629713296890259,-0.26300516724586487,-0.059284508228302,-0.37847471237182617,0.2123306691646576,0.129139244556427,0.43423751778391545,-0.4231047925955809,-0.5397592796561541,-0.5840206355216202,0.26613571109935963,-1.5093097811986833,-1.6124706664869168
1773063600639150080,1.9827141761779785,0.6392272710800171,-1.335813283920288,-1.170067310333252,-0.9598708152770996,-0.2768070697784424,-0.04501364752650261,-0.21945059299468994,0.1856815218925476,0.1464540958404541,0.42760105125091274,-0.4220581867238481,-0.5471380666130476,-0.5828072932472267,0.28046973830040445,-1.5239351329713797,-1.6078471133102994
1773063600649187072,1.992751121520996,0.8332167267799377,-1.2683181762695312,-0.8032069802284241,-0.9576072096824646,-0.28646960854530334,-0.030392777174711227,-0.0821571946144104,0.22380176186561584,0.1982089877128601,0.4227208458514248,-0.42158768555719095,-0.5541366574938478,-0.5800892435123391,0.2905399872004975,-1.5390687273702304,-1.6005259222053123
1773063600659224064,2.0027880668640137,1.075720191001892,-1.2789682149887085,-0.7194092273712158,-0.9557388424873352,-0.2938099205493927,-0.01546055730432272,-0.053065478801727295,0.3122425377368927,0.2332645058631897,0.4190250415092337,-0.4211888303694558,-0.5611325070324329,-0.5763231055935685,0.29821025330626955,-1.554621187505288,-1.590776133990134
1773063600669262080,2.0128262042999268,1.3443617820739746,-1.2479459047317505,-0.8763644695281982,-0.9534701704978943,-0.30148693919181824,0.0003875481488648802,-0.07672691345214844,0.4162178337574005,0.2281280755996704,0.41569204298482826,-0.4200739354223642,-0.5689742198553804,-0.5718446585653499,0.30625178625870886,-1.5712027874768126,-1.5780717615635274
1773063600679299072,2.0228631496429443,1.5608655214309692,-1.1563680171966553,-0.9633872509002686,-0.9505021572113037,-0.3102910816669464,0.01628297194838524,-0.09997391700744629,0.4830816090106964,0.1683330535888672,0.4126360693653116,-0.41778485554205236,-0.577578826138426,-0.5670890793890231,0.3154992191022553,-1.5879255662363752,-1.5626632238274096
1773063600689337344,2.0329012870788574,1.6436575651168823,-1.1057612895965576,-0.7679098844528198,-0.9474428296089172,-0.31830087304115295,0.0321919322013855,-0.07175254821777344,0.4674861431121826,0.04195045679807663,0.41019761702971724,-0.4150887844879825,-0.586342277412746,-0.5618200816916584,0.32393659806007846,-1.6047609623919472,-1.54535132552701
1773063600699374848,2.0429389476776123,1.5124964714050293,-1.0290809869766235,-0.44386720657348633,-0.9450768828392029,-0.3233855962753296,0.04745117202401161,0.00019162893295288086,0.3810180425643921,-0.055523037910461426,0.40868510454557827,-0.41299459191367727,-0.5942735507843321,-0.5561033949970301,0.32930516019956113,-1.6209629952968543,-1.528122111147806
1773063600709412864,2.0529768466949463,1.5576740503311157,-1.0409371852874756,-0.05921673774719238,-0.9436526894569397,-0.3251112401485443,0.06182321161031723,0.03474777936935425,0.2718275785446167,-0.05922926217317581,0.4080804641163357,-0.4118496875474234,-0.6010752370399737,-0.5500533247274179,0.33112935779142993,-1.6362176264224384,-1.5119236025398128
1773063600719449856,2.063013792037964,1.4899415969848633,-1.2069391012191772,0.260731041431427,-0.9432121515274048,-0.3229779899120331,0.07769344002008438,0.014195919036865234,0.2344159483909607,-0.10227536410093307,0.40801765272247936,-0.41226230030590283,-0.6073602836869872,-0.5428397233641044,0.32887442802580086,-1.6529819017873402,-1.4959916172073544
1773063600729486592,2.0730507373809814,1.4627131223678589,-1.0634535551071167,0.33181267976760864,-0.9432719945907593,-0.3186385929584503,0.09331353008747101,-0.06229746341705322,0.29495692253112793,-0.02657151222229004,0.4084420348253168,-0.41333323054724974,-0.6130354025771712,-0.5352740784394503,0.3242928647429664,-1.669400874985661,-1.4807106756371404
1773063600739524864,2.0830888748168945,1.8239198923110962,-0.8623335361480713,0.13505913317203522,-0.9430577158927917,-0.3148026764392853,0.10743218660354614,-0.2233547568321228,0.3539566993713379,-0.015330180525779724,0.40946758302316744,-0.41328702911292875,-0.6187971601672322,-0.5278449899736496,0.32024875695903343,-1.6842263265190924,-1.4640285393053112
1773063600749561856,2.093125820159912,2.5021309852600098,-0.703363835811615,-0.02432626485824585,-0.9423263072967529,-0.3118003010749817,0.12166094779968262,-0.32836443185806274,0.40117111802101135,-0.10798909515142441,0.41160930735920254,-0.4110918361813654,-0.625966432839948,-0.5193719028759091,0.3170872059691621,-1.699193094324509,-1.4414956714572837
1773063600759599872,2.103163957595825,3.2385828495025635,-0.597641110420227,-0.20682071149349213,-0.9411373734474182,-0.30918723344802856,0.13661573827266693,-0.2708835005760193,0.46455222368240356,-0.13942337036132812,0.41517451359887075,-0.4064184074186086,-0.6349267232790241,-0.5092370049624194,0.31433827386715046,-1.714949690291145,-1.4113377197590282
1773063600769636864,2.1132009029388428,4.006985187530518,-0.7162295579910278,-0.36368462443351746,-0.9392991065979004,-0.3066299259662628,0.15393339097499847,-0.16775667667388916,0.48344874382019043,-0.11952482163906097,0.41969268379697716,-0.3995313654691353,-0.6460196458047872,-0.49688173171633027,0.3116503863416141,-1.7332335235280079,-1.3730820519426667
1773063600779674880,2.1232388019561768,4.547952175140381,-0.7818024158477783,-0.4439395070075989,-0.936787486076355,-0.3034195303916931,0.17425812780857086,-0.03759300708770752,0.4290603697299957,-0.05472075939178467,0.42471995698133,-0.39094371378235143,-0.6590084015871502,-0.4821658718668938,0.30827932221722587,-1.7547109761896453,-1.3277034249329627
1773063600789711616,2.1332757472991943,4.7527899742126465,-0.8921180367469788,-0.38276830315589905,-0.9340004324913025,-0.2987479865550995,0.19594071805477142,0.06389850378036499,0.323879212141037,0.04951214790344238,0.4300670039466299,-0.3814126303719669,-0.6726773129594139,-0.4659098528487798,0.3033804732010436,-1.777584071981843,-1.2785960377797314
1773063600799748864,2.143312931060791,4.4705400466918945,-1.4340912103652954,-0.26008671522140503,-0.9305605292320251,-0.29199567437171936,0.22089669108390808,0.13200724124908447,0.21319934725761414,0.20013900101184845,0.43398713824772256,-0.3731091816801477,-0.6864676863247782,-0.4485606982429652,0.2963127877638449,-1.8038627703504961,-1.2305610853734603
1773063600809786880,2.153350830078125,5.050849437713623,-0.6844395399093628,-0.28581684827804565,-0.9272197484970093,-0.2837017774581909,0.24449340999126434,0.17418324947357178,0.09096798300743103,0.5810834169387817,0.43828447577130536,-0.36423375811921516,-0.6997002733568097,-0.4308829131804165,0.2876523112823375,-1.8286124085407192,-1.1821716129243747
1773063600819823616,2.1633877754211426,5.640590667724609,-0.7659796476364136,0.0803171843290329,-0.925216019153595,-0.2708428204059601,0.265743225812912,-0.07537901401519775,-0.09547489881515503,0.09239578247070312,0.4455021418142627,-0.35315248719207964,-0.7128498709543569,-0.4106777790663597,0.27426847343181254,-1.8504901852724052,-1.1270789122261122
1773063600829861888,2.1734259128570557,5.173633098602295,-1.017956256866455,0.06538191437721252,-0.9229583144187927,-0.2545088529586792,0.28874462842941284,-0.2755891680717468,-0.08739486336708069,-0.13838455080986023,0.45196098700096193,-0.34312256454548523,-0.725699127799537,-0.3890488977162306,0.25733981132379763,-1.8739971950933585,-1.0729425957371646
1773063600839898880,2.1834628582000732,4.631237983703613,-0.7487781643867493,-0.3976561725139618,-0.919686496257782,-0.24153490364551544,0.3095770478248596,-0.45374196767807007,-0.07749590277671814,0.3415612280368805,0.45632389762431086,-0.3333685438464618,-0.7373289249288875,-0.3701082071343428,0.24394727875418173,-1.8954943353041485,-1.0249503826559088
1773063600849936640,2.1935007572174072,5.240647792816162,0.10320060700178146,-0.5737648606300354,-0.9175701141357422,-0.23065124452114105,0.32382866740226746,-0.7421435713768005,-0.19839535653591156,0.44901368021965027,0.4624275157837238,-0.3205862198295875,-0.747755852759164,-0.352486058260938,0.23274692405414701,-1.9100699519871316,-0.9751004126097201
1773063600859973888,2.203537940979004,4.853597640991211,0.34711965918540955,-0.6287872195243835,-0.9170273542404175,-0.21897625923156738,0.3333319127559662,-1.149500846862793,-0.3156764507293701,-0.2913854420185089,0.47042543534017023,-0.305895158015139,-0.7570297939814015,-0.3347146864312188,0.22076513709489434,-1.9194396376198855,-0.9229961587160297
1773063600870010880,2.2135748863220215,3.547595739364624,0.6761830449104309,-0.8971289396286011,-0.9170755743980408,-0.21191681921482086,0.33773335814476013,-1.2269062995910645,-0.28536713123321533,-0.12096691131591797,0.4773999472411985,-0.2921354098945597,-0.7638871482304775,-0.3212828453401437,0.2135359055808552,-1.923655560735094,-0.8797497492023697
1773063600880048640,2.2236127853393555,2.2679359912872314,0.9053562879562378,-0.8396550416946411,-0.9178788065910339,-0.2102840691804886,0.3365696668624878,-1.0824263095855713,-0.3285343050956726,0.1736842393875122,0.4832174846991135,-0.28042903173834943,-0.7678830604833499,-0.31339439812106024,0.21186552424092392,-1.922254667963917,-0.8485546961983894
1773063600890085888,2.233649969100952,0.7494561672210693,1.0788867473602295,-0.46728357672691345,-0.9198586344718933,-0.21133142709732056,0.3304535150527954,-0.8268609642982483,-0.4174833297729492,0.005896061658859253,0.48819329598149114,-0.27255841054552443,-0.7687253513392479,-0.3105490181982163,0.21293695419777828,-1.9156823055495498,-0.8315114648939657
1773063600900123904,2.243687868118286,-0.5788232088088989,1.0229393243789673,0.04724845290184021,-0.9228348135948181,-0.21313664317131042,0.3208561837673187,-0.5471205711364746,-0.3779277801513672,-0.1334019899368286,0.49196895956772013,-0.2699800746638262,-0.766510826001343,-0.312311490398484,0.21478425347733715,-1.9054076346743012,-0.8303108585707536
1773063600910160896,2.2537248134613037,-1.3211950063705444,1.0179744958877563,0.6172901391983032,-0.9268102645874023,-0.2130897492170334,0.3092174828052521,-0.35797977447509766,-0.22575299441814423,-0.3167859613895416,0.49512017781801887,-0.2720685600421917,-0.7619628864530238,-0.31661844586791854,0.21473624879520284,-1.8928194692420333,-0.8409205825410973
1773063600920197632,2.2637617588043213,-1.555572509765625,1.094496726989746,0.9165800213813782,-0.9317135214805603,-0.2101697027683258,0.296207070350647,-0.2729373574256897,0.019022881984710693,-0.5599247217178345,0.49841496423223564,-0.27701793004337627,-0.7558866361505696,-0.3216814827919516,0.2117485379665771,-1.8786081490017708,-0.8577046812482138
1773063600930235904,2.2737998962402344,-1.3159455060958862,1.1578238010406494,0.7479726076126099,-0.9368253946304321,-0.20627231895923615,0.2825069725513458,-0.3020358085632324,0.29854220151901245,-0.7436275482177734,0.5020549968758865,-0.28214283999875994,-0.7494323842916476,-0.32663037954032415,0.20776381554165374,-1.8636816402535998,-0.8747283173086966
1773063600940272896,2.283836841583252,-0.8555355072021484,1.0414608716964722,-0.02430509217083454,-0.940601110458374,-0.20575879514217377,0.27006083726882935,-0.3452417850494385,0.5585267543792725,-0.7846788167953491,0.5051460916667987,-0.2845933712342241,-0.7443366416647709,-0.33135629258802546,0.20723903708149904,-1.8503906646618196,-0.8867411337935495
1773063600950310656,2.293874740600586,0.02975197322666645,0.9782677888870239,-0.6706406474113464,-0.9425471425056458,-0.21054896712303162,0.25937238335609436,-0.31512802839279175,0.621803879737854,-0.461032509803772,0.507724727037433,-0.2825715812776001,-0.7415116282899787,-0.335454023594935,0.21213647445198058,-1.8393321121736392,-0.8900722599768098
1773063600960347904,2.3039119243621826,1.7067619562149048,0.9962155222892761,-0.7192531228065491,-0.9434521198272705,-0.2154236137866974,0.251973420381546,-0.11385977268218994,0.3499146103858948,-0.04576614499092102,0.5111852919374179,-0.27620305916595905,-0.7414166036698842,-0.33571240044869144,0.2171256070079329,-1.8317808416621189,-0.8802300365727227
1773063600970385664,2.3139498233795166,3.8934478759765625,1.4558981657028198,-0.4448345899581909,-0.9452455639839172,-0.2139562964439392,0.24644161760807037,0.23758870363235474,-0.1845880150794983,0.5154601335525513,0.5186107263835504,-0.2646422570304618,-0.7437642686956754,-0.3283627280382215,0.21562326526260672,-1.8258359034468055,-0.8505657193966971
1773063600980422656,2.323986768722534,4.451968669891357,1.097856879234314,-0.01652839593589306,-0.9480595588684082,-0.20566654205322266,0.24266140162944794,0.5371555089950562,-0.6441107392311096,1.2006521224975586,0.5288601001571208,-0.25021241358628965,-0.7474787288697711,-0.3146051143791765,0.20714475676721494,-1.821372606084977,-0.8070666043954728
1773063600990459904,2.334023952484131,2.5116546154022217,0.6811327934265137,0.3086790144443512,-0.9504915475845337,-0.19473706185817719,0.24216322600841522,0.6506717801094055,-0.7039293050765991,1.6673979759216309,0.5368478349570219,-0.23980117211190458,-0.7507176628621328,-0.30118549248310916,0.19598936874651232,-1.8202657455992932,-0.7708800869641634
1773063601000497920,2.344061851501465,-0.09223785251379013,0.6446072459220886,1.211487054824829,-0.9533833265304565,-0.1854442059993744,0.23805655539035797,0.474745512008667,-0.466563880443573,1.1931720972061157,0.5417842877485324,-0.23814058226120663,-0.7498782186126712,-0.29570525535331166,0.18652389270840652,-1.815489403478776,-0.7608396504133487
1773063601010534656,2.3540987968444824,-1.8589946031570435,0.883967399597168,1.876417636871338,-0.9580062031745911,-0.17170687019824982,0.2296534776687622,0.18858188390731812,-0.030975595116615295,0.1497410237789154,0.5455932714488756,-0.24625523645265363,-0.7444360926812914,-0.2958059667570826,0.17256201705244048,-1.8060767702729563,-0.7751394313571895
1773063601020572928,2.3641369342803955,-2.2698798179626465,1.7360143661499023,1.409484624862671,-0.9638322591781616,-0.16078488528728485,0.21254558861255646,-0.3317610025405884,0.5524322390556335,-0.34844040870666504,0.5503615086362789,-0.25650901261273895,-0.7351706740177827,-0.30137917499229383,0.16148583605981687,-1.787843860946064,-0.8012629520831221
1773063601030609920,2.374173879623413,-0.3279697895050049,1.5950156450271606,0.29864925146102905,-0.9686381220817566,-0.15520361065864563,0.19404205679893494,-0.8561911582946777,0.9858767986297607,-0.5420798063278198,0.5559808205435602,-0.2611479385239331,-0.7272020247679482,-0.3063729810546258,0.1558335615919305,-1.7685040033556227,-0.8173380715902981
1773063601040647680,2.384211778640747,2.5220987796783447,1.6542569398880005,-0.7641403079032898,-0.9711785316467285,-0.1558302342891693,0.18035888671875,-0.8750434517860413,1.0828627347946167,-0.712799072265625,0.5627994638400483,-0.2544914552553858,-0.7248541500836674,-0.3050858923357059,0.15646790675371097,-1.7544158131421936,-0.8054643562692563
1773063601050684928,2.3942489624023438,3.870680332183838,1.8672517538070679,-0.7959203720092773,-0.9729748368263245,-0.15823587775230408,0.1681714802980423,-0.5095844864845276,0.8348868489265442,-0.6084638833999634,0.5721573787038408,-0.2392273629636327,-0.7258484729781375,-0.2975740035732346,0.15890375726965023,-1.741947914689796,-0.7706195821896377
1773063601060721920,2.4042859077453613,3.4416003227233887,1.5498006343841553,-0.2394755780696869,-0.97496497631073,-0.15730886161327362,0.15715424716472626,0.023411571979522705,0.47345566749572754,-0.15420924127101898,0.5820152099804573,-0.22398960564763098,-0.7269152521027133,-0.28754353974889957,0.15796498385115695,-1.7306113165306825,-0.7324290476608817
1773063601070759680,2.4143238067626953,2.7193782329559326,1.0365592241287231,0.2497423142194748,-0.9769928455352783,-0.15232709050178528,0.14926862716674805,0.31755393743515015,0.04702623188495636,0.11647842824459076,0.5901502841655165,-0.21318588280438727,-0.7274517814910134,-0.27764762141171284,0.1529224204227138,-1.7224076477538766,-0.7015525254979171
1773063601080796672,2.424360752105713,1.6673696041107178,0.7480857372283936,0.5625150203704834,-0.9789257645606995,-0.14494818449020386,0.1438550055027008,0.36685001850128174,-0.31095391511917114,0.03989124298095703,0.5963040035814565,-0.20690392956425158,-0.7274051606832169,-0.2692471084524173,0.14546060856585713,-1.7167039258974532,-0.6799476689247718
1773063601090834944,2.434398889541626,0.36181673407554626,0.3902234435081482,0.8761757016181946,-0.9807403087615967,-0.1364905685186386,0.13970905542373657,0.24087226390838623,-0.4513084888458252,-0.07377578318119049,0.6003760347270117,-0.20570499581014676,-0.7263194746795647,-0.2639962713226686,0.1369179553397599,-1.7122969481884749,-0.670817739117275
1773063601100871680,2.4444358348846436,-0.5572720170021057,0.36076197028160095,1.2857331037521362,-0.9826468229293823,-0.12596221268177032,0.13615663349628448,0.0281943678855896,-0.3082723617553711,-0.08473457396030426,0.6029104947526104,-0.20963312154340435,-0.7239698013625243,-0.2615732273597957,0.12629771400696113,-1.7084807660453907,-0.6737437517823176
1773063601110909696,2.4544737339019775,-0.6131632924079895,0.7646297812461853,1.441675066947937,-0.9850450158119202,-0.11311493068933487,0.12996743619441986,-0.1740736961364746,0.029817163944244385,-0.04381631314754486,0.6060265264491592,-0.21590189305352597,-0.7199792301378077,-0.26028492711901446,0.11335755120187031,-1.7019792088885897,-0.682087636084058
1773063601120946944,2.464510917663574,-0.0025924285873770714,1.1291972398757935,1.2565710544586182,-0.9877286553382874,-0.09996683150529861,0.11999634653329849,-0.3575320839881897,0.35512426495552063,-0.11920283734798431,0.6109575403253512,-0.22054620153466242,-0.7150926841801231,-0.2583270473378201,0.10013408785061344,-1.6916910442761117,-0.6870416194160792
1773063601130983936,2.474547863006592,0.6436209678649902,0.971942126750946,0.7957010269165039,-0.9899590015411377,-0.08931917697191238,0.10955945402383804,-0.4094092845916748,0.5607852339744568,-0.22851693630218506,0.6165174472251679,-0.22187858703573585,-0.7110201261650316,-0.25519897527542545,0.08943836691746164,-1.6810184853615082,-0.6850586931544088
1773063601141021696,2.484585762023926,1.21494460105896,0.7228705286979675,0.5451148152351379,-0.9913902282714844,-0.0819743201136589,0.1021064817905426,-0.3261451721191406,0.5530741214752197,-0.24492871761322021,0.6213433364690756,-0.220142120089281,-0.7089363076019799,-0.2507573620327664,0.08206640498550398,-1.6734276886523904,-0.6762242818679585
1773063601151058944,2.4946229457855225,1.2250702381134033,0.642900288105011,0.8187951445579529,-0.9925902485847473,-0.07409557700157166,0.09630344063043594,-0.12069094181060791,0.41149789094924927,-0.21495580673217773,0.6259865953115223,-0.2176935686439419,-0.707644848720183,-0.24492659435545083,0.07416354131240746,-1.6675159532113788,-0.6642077315231536
1773063601161096704,2.5046608448028564,0.6839628219604492,0.5321763157844543,1.0078250169754028,-0.9937968254089355,-0.06382086873054504,0.09107524156570435,0.08754688501358032,0.31861215829849243,-0.06127489358186722,0.6302840527635981,-0.21725165754873077,-0.7059315387683219,-0.2391743096008564,0.06386427087192387,-1.6621847765586861,-0.655388862879291
1773063601171133696,2.514697790145874,0.4315124750137329,0.42364105582237244,0.8218293786048889,-0.9947679042816162,-0.05408342182636261,0.08666962385177612,0.09121882915496826,0.2327180802822113,0.1148683950304985,0.6336295715043724,-0.21832582688351393,-0.7040373901820186,-0.2349014595609593,0.05410982138567973,-1.6577023468030208,-0.6510060886865101
1773063601181171968,2.524735927581787,0.39983415603637695,0.44257161021232605,0.6082656979560852,-0.9954932332038879,-0.04651965573430061,0.08263897895812988,0.0053809285163879395,0.11504688113927841,0.09910845756530762,0.6364575796622579,-0.21896557294176533,-0.7024055579342593,-0.23152169540470127,0.04653644915728407,-1.6536195251220238,-0.6472131944948487
1773063601191208960,2.5347728729248047,0.6905959844589233,0.43458905816078186,0.5748542547225952,-0.9961028099060059,-0.04026569053530693,0.07847230136394501,-0.0008759498596191406,0.027433037757873535,0.015506625175476074,0.6392692278382156,-0.21879030719002085,-0.7009757146297764,-0.2282514964411951,0.040276578774581094,-1.6494132759113949,-0.6423110360722042
1773063601201245696,2.5448098182678223,0.9791385531425476,0.6201543807983398,0.8652900457382202,-0.996745765209198,-0.03293420001864433,0.0735747218132019,0.062816321849823,-0.012628559023141861,-0.06280207633972168,0.6427510735499251,-0.21793134416964038,-0.6994950246244795,-0.223793878997687,0.032940155600768246,-1.6444776317693504,-0.6346465501111551
1773063601211283968,2.5548479557037354,0.3395940065383911,0.8758252859115601,1.940805435180664,-0.9976289868354797,-0.018514622002840042,0.06628534197807312,0.17292195558547974,0.10439108312129974,-0.186600923538208,0.6477518246106232,-0.21946707806788288,-0.6964028078616038,-0.21742805989324931,0.018515680252509794,-1.6371416864575612,-0.6279097754493994
1773063601221320960,2.564884901046753,-1.009975552558899,0.6124751567840576,1.8939552307128906,-0.9982869625091553,0.002025413094088435,0.05847082659602165,0.3074148893356323,0.5708353519439697,-0.07763589173555374,0.6522785810277066,-0.22706451982866813,-0.6911418942956111,-0.21283128320426603,-0.0020254144976488593,-1.6293006489434287,-0.6329419759102789
1773063601231358720,2.574922800064087,-0.3170676529407501,0.2987518608570099,0.17479228973388672,-0.9984691143035889,0.012110881507396698,0.05396965891122818,-0.007878482341766357,0.8340194821357727,0.1753089427947998,0.6539983774300606,-0.2330112038772292,-0.6875249876705224,-0.21284100363706715,-0.012111177791775092,-1.6247961847448895,-0.6420535326405409
1773063601241395712,2.5849597454071045,1.9863871335983276,0.2057340294122696,-0.399877667427063,-0.9986106753349304,0.010210535489022732,0.05169655755162239,-0.3883979916572571,0.4309210777282715,-0.1997678279876709,0.6554631742697815,-0.2292479309402007,-0.6879634179591516,-0.21099713298194686,-0.010210712870947778,-1.6225186343003026,-0.6336137822119099
1773063601251433728,2.5949978828430176,3.1086513996124268,0.6592876315116882,0.43495675921440125,-0.9988197088241577,0.011419251561164856,0.047210171818733215,-0.08550035953521729,-0.12355608493089676,-0.5514826774597168,0.659928576130484,-0.21988896676030353,-0.6893866320809278,-0.20221074843733833,-0.011419500001960542,-1.6180271357004044,-0.6066318311683239
1773063601261470720,2.605034828186035,2.0399489402770996,1.0044105052947998,1.0069166421890259,-0.9990575909614563,0.020350057631731033,0.03833833709359169,0.3163183331489563,-0.42620331048965454,-0.1751028299331665,0.6665046517068013,-0.21286130481043478,-0.6883743407012507,-0.1913174469938867,-0.020351461609992183,-1.6091520082128252,-0.580208086876036
1773063601271507712,2.6150717735290527,0.5655916929244995,1.25864577293396,1.1467434167861938,-0.9991543292999268,0.03150901570916176,0.026419242843985558,0.3346644639968872,-0.5759731531143188,0.2777189016342163,0.6728792646770738,-0.21107810349688547,-0.6845842937732292,-0.1844558410342395,-0.031514230924269616,-1.597231770057092,-0.5674712991002535
1773063601281545984,2.625109910964966,-1.1510071754455566,0.9580975770950317,1.777465581893921,-0.9988335967063904,0.045905474573373795,0.014983158558607101,0.33550339937210083,-0.5077890157699585,0.1493997573852539,0.6778449663030847,-0.2158942253090671,-0.6788823628336919,-0.1817547242499019,-0.045921612621758374,-1.5857958571082065,-0.5705630388449788
1773063601291582720,2.6351468563079834,-2.4382035732269287,0.5798532962799072,2.313080310821533,-0.9977275133132935,0.06682145595550537,0.008643598295748234,0.48397934436798096,-0.054919593036174774,0.17183732986450195,0.6801745523459362,-0.22878592665910885,-0.6722936850624207,-0.18177120965865537,-0.06687128541671694,-1.5794593957958014,-0.5897315866321293
1773063601301620736,2.6451847553253174,-1.3107025623321533,0.5082845687866211,1.5118557214736938,-0.9962325096130371,0.08660484105348587,0.004528907593339682,0.3756422996520996,0.4348642826080322,0.26787102222442627,0.6814921426414918,-0.24192265621171444,-0.666136534234535,-0.1824940697167845,-0.08671347329019238,-1.5753423301972118,-0.6104023879152795
1773063601311657984,2.655221939086914,0.8667230606079102,-0.025886408984661102,0.3311193287372589,-0.9954220652580261,0.09555181115865707,0.002180072944611311,-0.06903105974197388,0.38963189721107483,-0.10734367370605469,0.6829202014312605,-0.24532400517893763,-0.6640076573223117,-0.18036058815305292,-0.09569781588356437,-1.5729864224573538,-0.6123202326101878
1773063601321695744,2.665259838104248,1.898866891860962,-0.1126633808016777,0.07352426648139954,-0.9952991008758545,0.09682770818471909,0.0020397156476974487,-0.2791454792022705,0.02663116157054901,-0.19465136528015137,0.6843888367211609,-0.24084278030666453,-0.6655934291630905,-0.17490595655878782,-0.09697965468155231,-1.5728456732557512,-0.5975974676321932
1773063601331732736,2.6752967834472656,1.6790231466293335,0.581884503364563,0.8019903898239136,-0.9948902130126953,0.10094616562128067,-0.0018337636720389128,-0.2198619842529297,-0.24974986910820007,0.05644494295120239,0.6876532482951085,-0.2356091806833307,-0.6660115855926663,-0.16748107293228637,-0.10111840033445679,-1.568953146954762,-0.5787389386021974
1773063601341769984,2.6853339672088623,0.6084848642349243,1.422899603843689,1.248615026473999,-0.9936589002609253,0.11164236813783646,-0.013333862647414207,-0.16234683990478516,-0.34606313705444336,0.22500377893447876,0.6933361675957502,-0.2343550471768752,-0.6621259551117562,-0.16109570439891027,-0.11187559551726053,-1.557378178729623,-0.5669831694379606
1773063601351807744,2.6953718662261963,-0.0768013671040535,1.524049162864685,1.1297571659088135,-0.991926372051239,0.12353717535734177,-0.028645850718021393,-0.2258470058441162,-0.34926044940948486,0.3099111318588257,0.6995415161265824,-0.23637443490373786,-0.6555945399086868,-0.15800183986212074,-0.12385357763985394,-1.5419253416698695,-0.5646120008588293
1773063601361844736,2.705408811569214,-0.38618192076683044,1.4166802167892456,1.3383225202560425,-0.9898067116737366,0.13570716977119446,-0.04320210590958595,-0.16287285089492798,-0.25075846910476685,0.18106526136398315,0.705122583190261,-0.23994713570195902,-0.6487097346494274,-0.15621556188199898,-0.13612720774149453,-1.5271770012645065,-0.5663768822027084
1773063601371883008,2.715446949005127,-0.4094768762588501,0.9004701972007751,1.3744821548461914,-0.9872208833694458,0.14983101189136505,-0.05427303537726402,0.07209032773971558,0.051615506410598755,0.08636224269866943,0.7094637766734886,-0.2452810713024161,-0.6424178380815045,-0.1542649106808081,-0.15039735071684476,-1.5158760377515215,-0.570596135070412
1773063601381919744,2.7254838943481445,0.6349571347236633,0.35055580735206604,1.1230542659759521,-0.9848703742027283,0.1623719483613968,-0.0605449378490448,0.05985206365585327,0.258770614862442,0.019010484218597412,0.712560573726496,-0.24848408080786538,-0.6387356206409017,-0.1500996362003145,-0.1630940297945818,-1.509398562569955,-0.5686409469423994
1773063601391956736,2.735520839691162,1.5175836086273193,-0.12387941032648087,0.8180196285247803,-0.983197808265686,0.17121438682079315,-0.06330575048923492,-0.09845191240310669,0.24377886950969696,-0.18439018726348877,0.7149628521141385,-0.24745385624691033,-0.6380546333772591,-0.1431117563180365,-0.17206212940181734,-1.5064974857870792,-0.5564994626271731
1773063601401994752,2.745558738708496,1.4671310186386108,-0.11200904101133347,0.6090249419212341,-0.9820229411125183,0.17725498974323273,-0.06489897519350052,-0.26751941442489624,0.11101405322551727,-0.11025667935609818,0.7170003129035606,-0.24430073526311777,-0.6386451784969958,-0.13549966679946476,-0.17819656944226298,-1.5048052619743923,-0.5404205380539975
1773063601412032000,2.7555959224700928,0.8803479671478271,0.0633406713604927,0.5090445876121521,-0.9810730218887329,0.18185988068580627,-0.06650423258543015,-0.37613528966903687,-0.03195755183696747,0.14508700370788574,0.7186357190172721,-0.24182634647322457,-0.6389584500519693,-0.12967214156119808,-0.1828775417094695,-1.5031126284870044,-0.5280030272569651
1773063601422069760,2.7656338214874268,0.365078866481781,0.2141798436641693,0.6582629680633545,-0.9798887968063354,0.187142476439476,-0.06925022602081299,-0.41568005084991455,-0.11654005944728851,0.2770901918411255,0.7202761196991055,-0.2413570470428915,-0.6380608604075094,-0.1258069344488203,-0.18825241637079798,-1.500242112055491,-0.5213269598218793
1773063601432106752,2.7756707668304443,0.06803575903177261,0.1317100077867508,0.7659308314323425,-0.9783765077590942,0.19412924349308014,-0.07136733829975128,-0.37312495708465576,-0.09001854062080383,0.2075214982032776,0.7215307655965923,-0.24287060804831384,-0.6366554774745508,-0.12278853061451196,-0.19536973600769755,-1.4979806310003643,-0.5188418638802351
1773063601442144768,2.7857089042663574,0.3021063804626465,-0.12402070313692093,0.6777709722518921,-0.976914644241333,0.20118524134159088,-0.07184712588787079,-0.36970382928848267,-0.013105407357215881,0.09682579338550568,0.7222200350534472,-0.24463423230459708,-0.6357912611007388,-0.11967311675070635,-0.2025677550890627,-1.4973835565491402,-0.5167242185807964
1773063601452181760,2.795745849609375,0.6841466426849365,-0.39395737648010254,0.49007782340049744,-0.9758889079093933,0.20665372908115387,-0.07024921476840973,-0.4210531711578369,0.05129610002040863,-0.07196271419525146,0.7223329472632423,-0.24486819788651326,-0.6363292840823935,-0.11558402850309174,-0.20815362112809707,-1.4989354309082301,-0.5111414687653846
1773063601462218752,2.8057827949523926,0.9369392991065979,-0.5204097628593445,0.14691206812858582,-0.9755325317382812,0.20928458869457245,-0.06735193729400635,-0.472450315952301,0.11754342913627625,-0.10890234261751175,0.7220174058155985,-0.24321185728703407,-0.6381003254767813,-0.11120649372583864,-0.21084328951345502,-1.501864517789521,-0.5025241777389237
1773063601472257024,2.8158209323883057,1.0807790756225586,-0.5251144766807556,-0.17222703993320465,-0.9759203791618347,0.20842020213603973,-0.06434745341539383,-0.5166638493537903,0.14184528589248657,0.0006725192070007324,0.7215524961701748,-0.2397756841149633,-0.6405730977374857,-0.10740482198425712,-0.2099594164698527,-1.5049564782271063,-0.49219547303486666
1773063601482293760,2.8258578777313232,1.1625689268112183,-0.5663271546363831,-0.3456861972808838,-0.9768157601356506,0.20510177314281464,-0.06135411560535431,-0.5112976431846619,0.09725113213062286,0.09281772375106812,0.721003065481495,-0.23511602400102083,-0.6434620398642328,-0.1040752723367603,-0.20656769079724305,-1.5080684019631003,-0.4807968141921449
1773063601492331776,2.8358957767486572,1.1225669384002686,-0.531000554561615,-0.42691418528556824,-0.9779472947120667,0.20056414604187012,-0.058250270783901215,-0.47592538595199585,-0.012331739068031311,0.16739636659622192,0.7203448585787563,-0.2299838944091277,-0.6465154858786373,-0.10113546120087219,-0.2019337359172667,-1.5113028037802516,-0.46931001404069733
1773063601502369024,2.845932960510254,0.9553228616714478,-0.32517296075820923,-0.4278453588485718,-0.9790628552436829,0.19571533799171448,-0.055959079414606094,-0.46087849140167236,-0.14475096762180328,0.2549794912338257,0.7198758269632712,-0.22501512670963927,-0.6491445553195013,-0.09878429008222178,-0.19698683667647576,-1.5137026877167452,-0.4588589503210389
1773063601512406784,2.855970859527588,0.7017561197280884,0.003544983919709921,-0.3484099209308624,-0.9799193143844604,0.19138096272945404,-0.055960267782211304,-0.45181286334991455,-0.22578954696655273,0.3296113610267639,0.7200745988291583,-0.22082465454850886,-0.6505815380684371,-0.09732791811023814,-0.1925689163322346,-1.513751266831043,-0.45064509795147395
1773063601522443776,2.8660078048706055,0.4713221490383148,0.17684580385684967,-0.2624821066856384,-0.9804232716560364,0.18811075389385223,-0.05817714333534241,-0.4504696726799011,-0.22493022680282593,0.29859459400177,0.7209412664490119,-0.21766608898703813,-0.6507940551000957,-0.09660365828497113,-0.1892382094360966,-1.5115270225154604,-0.44480762405761287
1773063601532480768,2.876044750213623,0.2935348451137543,0.19617341458797455,-0.4210006594657898,-0.9809181094169617,0.18471509218215942,-0.06066328287124634,-0.45598679780960083,-0.14044936001300812,0.19785505533218384,0.7217820806085065,-0.2151829941347813,-0.6506647659998852,-0.09675901238434306,-0.18578196416294876,-1.5090316183737165,-0.441228314415066
1773063601542518784,2.886082887649536,0.2253875732421875,0.1571168303489685,-0.7714667320251465,-0.9818893671035767,0.17867866158485413,-0.06298723816871643,-0.4744858741760254,-0.04226510226726532,0.14489644765853882,0.7223780518700306,-0.21222937514869747,-0.6507419401033095,-0.09830396322204497,-0.17964333724583859,-1.50673508456219,-0.4390491028711202
1773063601552555776,2.8961198329925537,0.28636249899864197,-0.01097949780523777,-0.9566805362701416,-0.9833832383155823,0.1698143482208252,-0.06419269740581512,-0.4308165907859802,-0.02796865999698639,0.06260573863983154,0.7224582744917019,-0.20838270237438491,-0.6515215281101241,-0.10074975504106104,-0.17064127637207133,-1.5056114155019613,-0.4370338054083551
1773063601562594048,2.906157970428467,0.2640070617198944,-0.24177582561969757,-0.9125388264656067,-0.985025942325592,0.16030339896678925,-0.06345727294683456,-0.30399078130722046,-0.09260015189647675,-0.05391335487365723,0.7218669780594799,-0.20434112504693303,-0.6530819766555049,-0.10313470057249118,-0.16099801286615992,-1.506463296367064,-0.4348228784558434
1773063601572630784,2.9161949157714844,0.16402429342269897,-0.28815531730651855,-0.7717574834823608,-0.9865248799324036,0.15180924534797668,-0.06101337820291519,-0.19412386417388916,-0.14886431396007538,-0.11347085237503052,0.7207266277016278,-0.20090373292384475,-0.6550809114186453,-0.10516571112645823,-0.1523984719447931,-1.5090282295821398,-0.43308385489366047
1773063601582668800,2.9262328147888184,-0.20066604018211365,-0.3698139488697052,-0.7060396671295166,-0.9877930283546448,0.14462698996067047,-0.05786260962486267,-0.13156121969223022,-0.12334097921848297,-0.10319393873214722,0.7192895550255114,-0.19870785552231104,-0.6569504422300004,-0.10748906855075699,-0.14513598639876793,-1.512285524025503,-0.4335897921589021
1773063601592705792,2.936269760131836,-0.23689807951450348,-0.40144726634025574,-0.9178848266601562,-0.9891400337219238,0.13686680793762207,-0.053569357842206955,-0.10436594486236572,-0.012141481041908264,0.07380246371030807,0.7172833903608833,-0.19725850943439402,-0.6590177549610717,-0.11085717469991602,-0.13729776496337376,-1.5166916748578285,-0.4367606805493783
1773063601602742784,2.9463069438934326,0.43112123012542725,-0.5280395746231079,-1.1970221996307373,-0.9907792806625366,0.12627530097961426,-0.04910215735435486,-0.16219007968902588,0.08766818046569824,0.10568177700042725,0.7152317993984737,-0.1937454575977154,-0.6617489086895768,-0.11399378447016524,-0.1266133167793831,-1.5212777114757532,-0.43661078600417513
1773063601612780800,2.9563448429107666,1.0604009628295898,-0.4750857949256897,-1.3470252752304077,-0.9925664067268372,0.11316607147455215,-0.04478437453508377,-0.20849871635437012,0.16251446306705475,0.024719059467315674,0.7134805310414559,-0.18699825755931923,-0.6653115548241698,-0.11548962511088053,-0.11340901548624932,-1.5257071319120397,-0.42936954262570903
1773063601622817792,2.966381788253784,1.0268224477767944,-0.20287902653217316,-1.4507567882537842,-0.9941975474357605,0.09877658635377884,-0.042596448212862015,-0.2111552357673645,0.26256680488586426,0.12120974063873291,0.712543787027334,-0.17862890727080108,-0.6684261288234997,-0.1165313888383253,-0.09893791934521576,-1.5279774596515971,-0.4190114003539721
1773063601632855808,2.9764199256896973,0.6100206971168518,-0.0858786329627037,-1.7753236293792725,-0.9957069158554077,0.08251648396253586,-0.041938431560993195,-0.22682726383209229,0.35348814725875854,0.3095012903213501,0.7118421215939469,-0.17045127026525814,-0.670803360877541,-0.11937350766585594,-0.08261041757250699,-1.5287019544147524,-0.41150904124092574
1773063601642892800,2.986456871032715,0.6551498174667358,-0.06004944071173668,-2.2481777667999268,-0.9971989989280701,0.06208386272192001,-0.04171011969447136,-0.28376102447509766,0.3149608075618744,0.36313652992248535,0.7108762982963389,-0.1615843879243103,-0.6730790635530286,-0.12453898152509671,-0.06212381304598437,-1.5289934167063333,-0.40644276820077824
1773063601652930816,2.996494770050049,1.0535837411880493,-0.03610442578792572,-2.394556999206543,-0.9984046220779419,0.03819388151168823,-0.0415891632437706,-0.30286502838134766,0.12049752473831177,0.1414273977279663,0.7098622988882537,-0.15060386211806334,-0.6756655204797439,-0.1299623258806848,-0.03820317458428221,-1.5291647762012257,-0.39879666145295095
1773063601662967808,3.0065319538116455,1.0870168209075928,0.12810808420181274,-2.2017431259155273,-0.9989998936653137,0.014576530084013939,-0.04227171093225479,-0.19178086519241333,-0.03569471091032028,-0.008967343717813492,0.7092605445730741,-0.13881798532958636,-0.6779334126615676,-0.1344820200594912,-0.014577046382990472,-1.5285075251834535,-0.388741967803146
1773063601673004800,3.016568899154663,0.8973010778427124,0.2684827744960785,-1.9668737649917603,-0.9989889860153198,-0.006692036055028439,-0.04445647448301315,-0.06335842609405518,-0.045859239995479584,0.07939910888671875,0.7092278577192025,-0.12807126884238862,-0.6792418662124207,-0.13865124390948075,0.006692086008198796,-1.526324202504633,-0.37972134965030374
1773063601683042816,3.026606798171997,0.9716935157775879,0.15951752662658691,-1.955283284187317,-0.9985648989677429,-0.02657461352646351,-0.04649732634425163,0.00334089994430542,0.06575917452573776,0.20726388692855835,0.7091648670053601,-0.11805722033102335,-0.6803042180739982,-0.1425969989649748,0.026577742722216816,-1.5242657859752107,-0.371493452427005
1773063601693079808,3.0366437435150146,1.482418179512024,0.13944289088249207,-2.253868818283081,-0.9977182745933533,-0.048102233558893204,-0.04737737029790878,-0.019966721534729004,0.20546609163284302,0.29948312044143677,0.7087836712868794,-0.10652103832827195,-0.6818831161142576,-0.14599494823568654,0.04812080461593214,-1.5233462536427718,-0.3603862185475551
1773063601703117568,3.0466816425323486,1.9528080224990845,0.43505656719207764,-2.5714995861053467,-0.9961106777191162,-0.07318629324436188,-0.049065962433815,-0.12768399715423584,0.2663015127182007,0.2846617102622986,0.708793477141359,-0.09185204072639822,-0.6833960941157109,-0.1488116116772614,0.07325178549300508,-1.5215785665799235,-0.3441544828297707
1773063601713154816,3.0567188262939453,2.0050556659698486,0.5439406633377075,-2.6405341625213623,-0.9935697913169861,-0.1003783643245697,-0.052373532205820084,-0.21419376134872437,0.2214721441268921,0.15575182437896729,0.7094069872134645,-0.07529494397630503,-0.6842104253174612,-0.151421166192858,0.10054769688563249,-1.5181325860570778,-0.32518834181857764
1773063601723191808,3.066755771636963,1.51823890209198,0.560370683670044,-2.623164653778076,-0.990266740322113,-0.12752097845077515,-0.0557686947286129,-0.1981792449951172,0.12974876165390015,0.08926171064376831,0.7098650993795116,-0.059493758014059706,-0.6845262203056663,-0.15484144435084296,0.12786914208729772,-1.514538912597927,-0.3086399250044479
1773063601733229568,3.076793670654297,0.9561581611633301,0.6383059620857239,-2.655406951904297,-0.9861881732940674,-0.15438170731067657,-0.05999170243740082,-0.10737860202789307,0.05368898808956146,0.23516255617141724,0.7101653318983406,-0.04560536037202973,-0.684049925487634,-0.1601903531476544,0.15500162670991222,-1.510039295749324,-0.29781684399714853
1773063601743266560,3.0868306159973145,0.8511632680892944,0.5486094951629639,-2.6395363807678223,-0.9813399314880371,-0.1811245083808899,-0.06454474478960037,-0.05862295627593994,-0.016461580991744995,0.2777252793312073,0.7102510763836418,-0.032901333980812096,-0.6831142874644015,-0.16678097067716902,0.18212975531031886,-1.5051188689958244,-0.2906800856235444
1773063601753304832,3.0968687534332275,1.151924967765808,0.5638774037361145,-2.5377438068389893,-0.9759290218353271,-0.20726142823696136,-0.06786058098077774,-0.0577317476272583,-0.08955249190330505,0.11719227582216263,0.7099950135775349,-0.020060877397572407,-0.6823981764285495,-0.17273469032571798,0.2087747686388713,-1.501373730119994,-0.2824533619357896
1773063601763341568,3.106905698776245,1.3967148065567017,0.6706044673919678,-2.379094123840332,-0.9700796008110046,-0.23214313387870789,-0.07109937071800232,-0.043760061264038086,-0.10506083071231842,-0.018362872302532196,0.7100624164316803,-0.006494014873765487,-0.6814749769153354,-0.17709046837166384,0.23428043077765567,-1.4976348390155079,-0.2709567927480526
1773063601773379840,3.116943836212158,1.4009689092636108,0.5855002403259277,-2.418227434158325,-0.963779091835022,-0.2562583088874817,-0.07390233129262924,-0.012844443321228027,-0.01412743330001831,-0.026775121688842773,0.7101185548879974,0.007205552579983338,-0.6804387661824154,-0.18078387406374527,0.25914925301531655,-1.4942663446822917,-0.2583452098187094
1773063601783416832,3.126980781555176,1.4696801900863647,0.3963993191719055,-2.662299871444702,-0.956581175327301,-0.28172045946121216,-0.07474036514759064,-0.017051637172698975,0.08369189500808716,0.04596227407455444,0.7093579898069351,0.021387223872553325,-0.6798326283033743,-0.18488231680729558,0.2855867235815085,-1.4928219374523208,-0.2455200786128651
1773063601793453568,3.1370177268981934,1.4804201126098633,0.304197758436203,-2.846101760864258,-0.9481234550476074,-0.3092755079269409,-0.0735572874546051,-0.017162799835205078,0.10515868663787842,0.07880628108978271,0.7076955812205219,0.03643491021410873,-0.6796277321486407,-0.18959339733279768,0.31443109808561687,-1.4933694502882344,-0.23218659767018757
1773063601803491584,3.1470556259155273,1.3025850057601929,0.2713797390460968,-2.767829656600952,-0.9387509822845459,-0.3370269238948822,-0.0718306228518486,-0.0029758214950561523,0.05447986721992493,0.0754774734377861,0.7056879013202193,0.051344227394636385,-0.6792999757610478,-0.19473055365518296,0.34375727765373876,-1.4944279047635136,-0.21958602780841605
1773063601813528832,3.157092809677124,0.7862246632575989,0.17987647652626038,-2.5951340198516846,-0.9291945695877075,-0.36287516355514526,-0.07013893872499466,0.02019786834716797,-0.02855861186981201,0.0002841874957084656,0.7034644088162157,0.06443038673340387,-0.6788072290625048,-0.20051804193439857,0.37135152032243723,-1.495455609065356,-0.21043033686288265
1773063601823566592,3.167130708694458,0.1812000870704651,0.10266357660293579,-2.5157992839813232,-0.9195085167884827,-0.38684675097465515,-0.06966812163591385,0.07073837518692017,-0.10177019238471985,0.15131789445877075,0.7011682892171364,0.0749157180910773,-0.6779038092689059,-0.20783900345247872,0.39720965976503114,-1.4951741145668134,-0.20740491607055056
1773063601833603584,3.1771676540374756,-0.022641193121671677,0.11507949978113174,-2.4969987869262695,-0.9094110727310181,-0.4098893105983734,-0.07044262439012527,0.06128185987472534,-0.1788557767868042,0.23003429174423218,0.69884790806535,0.08374620073396125,-0.676583520484485,-0.21640906052995118,0.4223327199219483,-1.493491080944815,-0.20888793626604146
1773063601843641856,3.1872057914733887,0.04536706209182739,0.1348918229341507,-2.4152777194976807,-0.8989185690879822,-0.43222078680992126,-0.07162651419639587,0.02521568536758423,-0.21932941675186157,0.08442861586809158,0.6965659805132862,0.09223888728172225,-0.675039799499547,-0.22496439951548508,0.44695403277858614,-1.491283561997016,-0.211012437864995
1773063601853678592,3.1972427368164062,0.2421690672636032,0.04301835596561432,-2.317758798599243,-0.8883423209190369,-0.45353028178215027,-0.07182106375694275,0.02458810806274414,-0.14157778024673462,0.011045336723327637,0.6941014854394731,0.10086433815972125,-0.673732776494441,-0.2326665032789872,0.4707224407403261,-1.4901233868781387,-0.21147916356264423
1773063601863715584,3.207279682159424,0.1599103808403015,-0.03432423621416092,-2.3849239349365234,-0.877487301826477,-0.47436201572418213,-0.07068607211112976,-0.0018765926361083984,0.037579238414764404,0.01032228022813797,0.6911882741810726,0.10953114751108291,-0.6728000373141185,-0.24000349363591392,0.4942391715096033,-1.4904147959003753,-0.2110182505423832
1773063601873753856,3.217317819595337,-0.007120955735445023,0.16614387929439545,-2.7574105262756348,-0.8649895787239075,-0.49677059054374695,-0.07079412788152695,-0.04978996515274048,0.2233026921749115,0.20826055109500885,0.6881731617927531,0.11842214315165822,-0.6712519145329604,-0.24862552505254043,0.5198737834512914,-1.4891344299206106,-0.2127034661344739
1773063601883790848,3.2273547649383545,0.08208725601434708,0.31261175870895386,-3.114746570587158,-0.8497128486633301,-0.5221744179725647,-0.07295095175504684,-0.10754722356796265,0.270480751991272,0.28571951389312744,0.6853099350278936,0.12879882639318407,-0.6685322637546153,-0.25850675215968355,0.5493986151704723,-1.485152689506138,-0.21518147905727183
1773063601893828608,3.2373926639556885,-0.1529199331998825,0.11110340058803558,-3.15456223487854,-0.8326245546340942,-0.5487851500511169,-0.07464249432086945,-0.09643739461898804,0.15849578380584717,0.04703938215970993,0.6818168991846905,0.13963869253448133,-0.6657174979633846,-0.2691600691142384,0.5809103414454647,-1.4813880854797692,-0.21838710008555065
1773063601903865600,3.247429609298706,-0.7370734810829163,0.22214603424072266,-3.080718517303467,-0.8149233460426331,-0.5742355585098267,-0.07844492048025131,0.03396320343017578,0.008653223514556885,0.0277247354388237,0.678351567210329,0.14872722653638468,-0.6623124288702169,-0.2811791256696157,0.6116700988604851,-1.4748315201147912,-0.22727341890657657
1773063601913903616,3.257467746734619,-0.960277795791626,0.34298136830329895,-3.0086700916290283,-0.7967692017555237,-0.5981419682502747,-0.08593688905239105,0.15059000253677368,-0.08787792921066284,0.22810304164886475,0.6755658743699646,0.1562154213283211,-0.657744858938732,-0.29424355710611916,0.6411806126286044,-1.463354980167395,-0.24201674097365117
1773063601923940608,3.2675046920776367,-0.8059064149856567,0.4815066158771515,-2.912277936935425,-0.7782760262489319,-0.6207184195518494,-0.09484262764453888,0.21090847253799438,-0.055093348026275635,0.3319641947746277,0.6732396191781519,0.16355038609923617,-0.6525564781842589,-0.3068709161023267,0.6696586685044148,-1.4495317914751438,-0.25760371568066437
1773063601933977600,3.2775416374206543,-0.3624880313873291,0.4953257441520691,-2.97727370262146,-0.7592810988426208,-0.6426476836204529,-0.10245156288146973,0.21886050701141357,0.1165703535079956,0.2752115726470947,0.6707400367861402,0.1717516861976876,-0.6475149245102768,-0.31832950452186276,0.6979490427950062,-1.4366740681606618,-0.2703381370697798
1773063601944015616,3.2875797748565674,0.5268638134002686,0.44245657324790955,-3.2732512950897217,-0.7382639646530151,-0.6662066578865051,-0.10552271455526352,0.15308940410614014,0.2906726002693176,0.15428978204727173,0.6671711919963086,0.1829503920989577,-0.6432478515342063,-0.32809139582737396,0.7291106269137941,-1.4288243666460099,-0.27487539162320707
1773063601954052608,3.297616720199585,0.9586490392684937,0.39427468180656433,-3.545724630355835,-0.7145853042602539,-0.6918929219245911,-0.1032087653875351,0.049241065979003906,0.35664206743240356,-0.08990651369094849,0.6620547556755078,0.19720112097840295,-0.6399276027763576,-0.3365826359263009,0.7641075409320847,-1.4273565536452604,-0.27101079717171905
1773063601964090624,3.307654619216919,0.8252755999565125,0.3221282958984375,-3.743117332458496,-0.6883605718612671,-0.7185562252998352,-0.09917987883090973,0.02969968318939209,0.3396041989326477,-0.10362464189529419,0.6559986625390632,0.21257439969530076,-0.6365706443159352,-0.3453341606801827,0.8017241085596538,-1.427699816114824,-0.2654328486084977
1773063601974127872,3.3176918029785156,0.4394206404685974,0.3319271206855774,-3.7805304527282715,-0.6603387594223022,-0.7446979880332947,-0.09683720022439957,0.08499091863632202,0.24776506423950195,0.05112190544605255,0.6497385165191573,0.22721861209271021,-0.6324184537940601,-0.35532850169940344,0.840082182411412,-1.4251864495561066,-0.2642984492537656
1773063601984165632,3.3277297019958496,0.22338902950286865,0.24625657498836517,-3.6784157752990723,-0.6316627860069275,-0.7692435383796692,-0.09626373648643494,0.16910779476165771,0.13849085569381714,0.20128993690013885,0.6434984644332665,0.24058485833860005,-0.6276838847605138,-0.3661170643497934,0.877656400080204,-1.4195626134443773,-0.26795362435899817
1773063601994202624,3.337766647338867,0.1574888378381729,0.21356706321239471,-3.5620574951171875,-0.6031320691108704,-0.791805624961853,-0.09631060063838959,0.21963292360305786,0.09988057613372803,0.1932496428489685,0.6372741194347763,0.25293008238276565,-0.6227929626077594,-0.3768781008434337,0.9137596914689574,-1.412449096469996,-0.27406374937127914
1773063602004239872,3.347803831100464,0.38187888264656067,0.15922671556472778,-3.6109747886657715,-0.5741449594497681,-0.8131737112998962,-0.09542540460824966,0.23660528659820557,0.17039722204208374,0.20669251680374146,0.630674496399055,0.2652033456364637,-0.6180246623992163,-0.38724971483103393,0.9495844590942597,-1.4060974762463434,-0.2796564530931249
1773063602014277632,3.357841730117798,0.8469796776771545,-0.05456892028450966,-3.777568817138672,-0.5435712337493896,-0.8344436883926392,-0.09074237942695618,0.21971869468688965,0.28592073917388916,0.21787863969802856,0.6227802945611477,0.27865513968858563,-0.6139870698281161,-0.3968828233949834,0.9871225707639251,-1.4053842154419254,-0.27974051362849034
