time,seconds_elapsed,rotationRateX,rotationRateY,rotationRateZ,gravityX,gravityY,gravityZ,accelerationX,accelerationY,accelerationZ,quaternionW,quaternionX,quaternionY,quaternionZ,pitch,roll,yaw
1773062933153463808,0.032533884048461914,-0.1376384049654007,0.02747468464076519,-0.10609729588031769,0.07887589186429977,0.6799353361129761,-0.7290174961090088,0.03419172763824463,0.009548306465148926,0.015150308609008789,0.9271646064136754,-0.36142203552864455,0.06975207876371403,-0.06981786091227772,-0.7476744243776385,0.10777554114976695,-0.10800809266697245
1773062933163500800,0.04257082939147949,-0.10563718527555466,-0.030395938083529472,-0.11015608161687851,0.07815523445606232,0.6809680461883545,-0.7281306385993958,0.003403007984161377,0.0004742145538330078,-0.006259620189666748,0.9268927723948563,-0.3620640554701274,0.06960099105205939,-0.07025011122549474,-0.7490837540634218,0.10692743423335266,-0.10922590044051762
1773062933173538560,0.05260872840881348,-0.018370192497968674,-0.026092536747455597,-0.16013136506080627,0.0769784227013588,0.6814987063407898,-0.7277594208717346,0.007814675569534302,-0.00855565071105957,0.0017614960670471191,0.9267492065870858,-0.3623923901154261,0.06922466565843441,-0.07082017100523136,-0.7498086315045458,0.10538270305315958,-0.11103693032634368
1773062933183575552,0.06264567375183105,-0.0570419542491436,-0.028048628941178322,-0.15026168525218964,0.07572685927152634,0.6818477511405945,-0.7275637984275818,0.00563301146030426,-0.004052400588989258,-0.015401899814605713,0.9266439386922307,-0.3626003555027982,0.06884100965809134,-0.07150482929498364,-0.7502856955785077,0.10370934427680009,-0.11315471349383294
1773062933193612800,0.07268285751342773,-0.10940928757190704,-0.03531080111861229,-0.11400515586137772,0.07456707954406738,0.6825747489929199,-0.7270017266273499,-0.002301454544067383,0.00014925003051757812,-0.017718732357025146,0.9264510886017665,-0.36305728059046727,0.0684730093325506,-0.0720364434627903,-0.7512799543870564,0.10221052805025403,-0.11486024700190113
1773062933203650816,0.08272075653076172,-0.13807089626789093,-0.03432849422097206,-0.08955160528421402,0.07361946254968643,0.6835684180259705,-0.7261641621589661,0.01805533468723297,0.005991518497467041,0.01688992977142334,0.9261963857700071,-0.36368974423322303,0.06817386305948149,-0.07240417288614735,-0.7526404885901725,0.10103607672166298,-0.11607671749393982
1773062933213687552,0.0927577018737793,-0.12925715744495392,-0.04334728792309761,-0.07323282212018967,0.07279030978679657,0.6846619248390198,-0.7252169847488403,0.02031879872083664,0.0032806396484375,0.010037541389465332,0.9259208783878361,-0.3643911998537151,0.06790102747051863,-0.07265769374934783,-0.7541397283724497,0.10003535589461657,-0.11697676933278874
1773062933223724800,0.10279488563537598,-0.10036967694759369,-0.0305262990295887,-0.058176107704639435,0.07205410301685333,0.6855202317237854,-0.7244793176651001,0.0063913315534591675,-0.0095863938331604,0.008872628211975098,0.925705425417624,-0.3649447064644483,0.06764404630334607,-0.07286421146474574,-0.7553180348007382,0.09913040969844222,-0.11774802965056094
1773062933233762816,0.11283278465270996,-0.1158682107925415,-0.026955533772706985,-0.05076293274760246,0.07150759547948837,0.6863341927528381,-0.7237623929977417,-0.003316067159175873,-0.006585657596588135,0.0028914213180541992,0.9254999147090918,-0.36546868600003085,0.06746428276357509,-0.07301416456641559,-0.756436566851149,0.09848021135216259,-0.11829946239512758
1773062933243799808,0.12286972999572754,-0.13537858426570892,-0.02008364535868168,-0.0442361906170845,0.07098254561424255,0.6872553825378418,-0.7229394912719727,0.0025800764560699463,-0.002700328826904297,0.006676673889160156,0.9252654761358909,-0.36606045442964547,0.06730520058011695,-0.07316798557307305,-0.7577039531763929,0.0978723008936274,-0.11883981723080901
1773062933253836544,0.13290667533874512,-0.10745852440595627,-0.02244294062256813,-0.04247371107339859,0.07054181396961212,0.6882015466690063,-0.7220820188522339,-0.0006870850920677185,-0.017501533031463623,0.015920579433441162,0.9250258274521556,-0.3666699774665614,0.0671722285711782,-0.07326790116811746,-0.7590072640990861,0.09738322539447056,-0.11921672102261353
1773062933263874816,0.1429448127746582,-0.05697013810276985,-0.02003304660320282,-0.055432118475437164,0.07004794478416443,0.688800036907196,-0.7215593457221985,-0.0004526302218437195,-0.014926135540008545,0.012956440448760986,0.9248718615880165,-0.3670556986497856,0.06701085341314607,-0.07342885644252137,-0.7598325136410802,0.09677531624223387,-0.11978548029306356
1773062933273911808,0.15298175811767578,-0.03475005552172661,-0.029085930436849594,-0.045799195766448975,0.0695040225982666,0.6891664266586304,-0.7212619781494141,0.0042111799120903015,-4.8995018005371094e-05,-0.007177293300628662,0.9247769353052772,-0.3672938188667679,0.06681506164892498,-0.073611415466731,-0.7603380090206132,0.09606782364661022,-0.12044889333711876
1773062933283948544,0.16301870346069336,-0.0324871689081192,-0.025055501610040665,-0.057956796139478683,0.0689665898680687,0.6894210577011108,-0.7210702300071716,0.002063058316707611,-0.00334012508392334,-0.011794090270996094,0.9247118644267418,-0.36746177597593777,0.06660871177135146,-0.07377793019298592,-0.7606894695883054,0.09535470434958687,-0.12108399170624812
1773062933293986816,0.17305684089660645,-0.02922852151095867,-0.034936364740133286,-0.06714656949043274,0.0683172419667244,0.6896995306015015,-0.7208656072616577,0.010051898658275604,-0.00474780797958374,-0.00023418664932250977,0.9246379881714212,-0.3676442455551316,0.06636938699144071,-0.07400914761294858,-0.7610740457869937,0.09448890231932211,-0.12191930404757992
1773062933304023808,0.18309378623962402,-0.051397740840911865,-0.05070733651518822,-0.07310378551483154,0.06749247014522552,0.6900247931480408,-0.7206320762634277,0.004574768245220184,-0.008994519710540771,-0.00013202428817749023,0.9245558165757549,-0.36786204788810145,0.06604139845701049,-0.07424719425050924,-0.7615232739522856,0.09338490453273952,-0.12286323773802439
1773062933314060800,0.1931307315826416,-0.11151167750358582,-0.05654445290565491,-0.05726437270641327,0.06664343178272247,0.6906545758247375,-0.7201076149940491,-0.004601195454597473,-0.02483731508255005,0.002898693084716797,0.9243998982160525,-0.3682799877035152,0.06569667957473314,-0.07442242172161986,-0.7623937948025425,0.09228362449272054,-0.12366184666642484
1773062933324098816,0.2031688690185547,-0.152699276804924,-0.07436192780733109,-0.045106641948223114,0.06581319868564606,0.691649854183197,-0.719228208065033,-0.011675029993057251,-0.02978461980819702,0.014028012752532959,0.9241551834684149,-0.3689376971844839,0.06535193973463832,-0.0745077980460492,-0.7637709056592334,0.09125118397647283,-0.12422935985609954
1773062933334135808,0.21320581436157227,-0.16895361244678497,-0.08452855050563812,-0.03594217449426651,0.0649382546544075,0.6928340792655945,-0.7181671261787415,-0.0021941140294075012,-0.018670260906219482,0.02111506462097168,0.923869315294497,-0.36972582190853626,0.06495589486276551,-0.0744920403397697,-0.7654119013146052,0.09017697390097737,-0.12459118164869266
1773062933344172032,0.22324204444885254,-0.1798364520072937,-0.085976243019104,-0.007347014732658863,0.06416362524032593,0.694113552570343,-0.7170003056526184,0.010451845824718475,-0.010367274284362793,0.008107483386993408,0.9235613039145687,-0.3705782096367887,0.06458828916654136,-0.07439572087209062,-0.7671877908741153,0.08925123530517935,-0.12471852006394112
1773062933354210048,0.23328018188476562,-0.15890054404735565,-0.07321357727050781,0.02207212522625923,0.06360121071338654,0.6953256130218506,-0.7158751487731934,0.0044987499713897705,-0.007276296615600586,0.0025267601013183594,0.9232762521720891,-0.37139144669998714,0.06427140429118484,-0.07415264224391635,-0.768872837915147,0.08861133873105641,-0.12441657620913758
1773062933364247040,0.2433171272277832,-0.14623139798641205,-0.04577808827161789,0.042411621659994125,0.0634208470582962,0.6963877081871033,-0.7148580551147461,0.00046769529581069946,-0.0017160773277282715,-0.005524635314941406,0.923026995765837,-0.37210222375488,0.06411645622077634,-0.07382594143122735,-0.770351736441489,0.08848642896213262,-0.1237307375273897
1773062933374284032,0.2533540725708008,-0.08633716404438019,-0.04048293083906174,0.026339443400502205,0.06333816796541214,0.6972313523292542,-0.7140425443649292,0.010605916380882263,0.0029639601707458496,-0.0119248628616333,0.9228277917016776,-0.3726661145677478,0.06402101242658803,-0.07355453746403698,-0.7715279636883368,0.0884720794342633,-0.12312579317236187
1773062933384322048,0.26339221000671387,-0.026440946385264397,-0.036886461079120636,0.002898166188970208,0.06316934525966644,0.6976043581962585,-0.7136931419372559,0.012285351753234863,0.011380016803741455,-0.005545139312744141,0.9227456376397847,-0.37292253134965814,0.06389226380120903,-0.07339764520206414,-0.7720484223827772,0.08828045854131622,-0.12285316607485834
1773062933394359040,0.27342915534973145,0.06543011963367462,-0.03576580062508583,-0.034644149243831635,0.06279803812503815,0.6974947452545166,-0.7138329148292542,0.00728558748960495,0.021529853343963623,-0.018604159355163574,0.9227838076735028,-0.3728648593387629,0.06368154889844947,-0.0733919632762345,-0.771895430483093,0.08774711819454219,-0.12305924455375399
1773062933404396032,0.283466100692749,0.08807045221328735,0.00460825115442276,-0.0786462277173996,0.06225726753473282,0.6969183683395386,-0.714443027973175,-0.01272723451256752,0.020336270332336426,-0.02530306577682495,0.922927447478428,-0.37249356296466907,0.06345893743669132,-0.07366398898879006,-0.7710913887065124,0.0869214126987979,-0.12399718900338322
1773062933414434304,0.2935042381286621,0.0394752211868763,-0.012005080468952656,-0.11597362160682678,0.061560582369565964,0.6965405941009521,-0.7148715853691101,-0.05429738387465477,-0.0015943646430969238,-0.020846128463745117,0.923007003268643,-0.37224308309407117,0.06323993281831732,-0.07411987070489169,-0.7705648181142317,0.08590226075746785,-0.1254056518134792
1773062933424471040,0.3035411834716797,0.007799359038472176,0.005188953131437302,-0.13441668450832367,0.06065499037504196,0.6964403986930847,-0.7150467038154602,-0.058778177946805954,-0.014769196510314941,0.006825268268585205,0.9230075082124147,-0.37216975279735454,0.06297870825955408,-0.0747033463870159,-0.7704251463964309,0.08462402636877675,-0.12718780985174297
1773062933434509056,0.31357908248901367,-0.03623494133353233,-0.025779081508517265,-0.07376611977815628,0.05976876616477966,0.6966043710708618,-0.7149615287780762,-0.048050012439489365,-0.016047179698944092,0.015590250492095947,0.9229455015424063,-0.3722733058934825,0.06270423739431631,-0.07518189061305833,-0.7706537058676892,0.08340325060230869,-0.12871339217765634
1773062933444546304,0.32361626625061035,-0.06431243568658829,0.008793940767645836,-0.03412057086825371,0.059422291815280914,0.6970034837722778,-0.7146013975143433,-0.03278044983744621,-0.002087712287902832,0.03401362895965576,0.922832987102928,-0.37252935864607356,0.06261927204074078,-0.07536582837985532,-0.7712100941970911,0.08296358698563457,-0.1292808464507155
1773062933454583296,0.33365321159362793,-0.05147466063499451,-0.01085938885807991,-0.08592411130666733,0.05897314473986626,0.6974902749061584,-0.7141635417938232,-0.051206447184085846,-0.015437662601470947,0.04892611503601074,0.9226931616970656,-0.3728404285715318,0.06251587999225254,-0.07562592588714119,-0.7718891971119894,0.08238959556941826,-0.13006623626484254
1773062933464621056,0.3436911106109619,-0.09045242518186569,-0.019021177664399147,0.046234723180532455,0.05867460370063782,0.6979637742042542,-0.7137253284454346,-0.05016019940376282,-0.03361135721206665,0.05427098274230957,0.9225667190501174,-0.37314931090658604,0.062425416924289594,-0.07571851104172278,-0.7725502019969807,0.08202449212694028,-0.13040483340962858
1773062933474658048,0.3537280559539795,-0.08701641112565994,-0.03995175659656525,0.11060892045497894,0.05908144265413284,0.69862300157547,-0.7130464315414429,0.015213605016469955,-0.018782973289489746,0.06595176458358765,0.9224237025991159,-0.37359320581765615,0.06248915188741606,-0.07521751923210329,-0.7734711484595439,0.08266893405621611,-0.12904421774350963
1773062933484695296,0.36376523971557617,-0.05048583075404167,-0.08661966770887375,0.13244709372520447,0.059477776288986206,0.6990267038345337,-0.7126176953315735,0.01803688332438469,-0.002325713634490967,0.05848872661590576,0.9223623676015543,-0.37388519832332845,0.06245802978558539,-0.07454172679361432,-0.7740355578257859,0.08327078924402612,-0.1273263758873274
1773062933494733056,0.37380313873291016,-0.06003512814640999,-0.13525643944740295,0.18868321180343628,0.0598180890083313,0.6993236541748047,-0.7122978568077087,0.015484031289815903,0.016939103603363037,0.026827216148376465,0.9223546565822603,-0.3741313581321736,0.062264017261433886,-0.07355828915200241,-0.7744508840148547,0.0837824491571539,-0.12497980327251701
1773062933504770048,0.38384008407592773,-0.05184537544846535,-0.1833033263683319,0.18814204633235931,0.060029271990060806,0.6996026635169983,-0.7120060324668884,0.02686953917145729,0.024075865745544434,0.027191579341888428,0.9223711556268326,-0.37438547814614154,0.06190716762354942,-0.07234989611577967,-0.77484129808313,0.08411114275224636,-0.12221967614421902
1773062933514807296,0.3938772678375244,-0.02737252041697502,-0.2352709174156189,0.19796645641326904,0.059871166944503784,0.6997900605201721,-0.7118351459503174,-0.016459908336400986,-0.0008612275123596191,0.023923158645629883,0.9224239969085585,-0.37459673544378896,0.06131643487543701,-0.07107420904765921,-0.7751035782796736,0.08391069733143983,-0.11953047400389077
1773062933524845056,0.4039151668548584,0.004999799653887749,-0.25532132387161255,0.2167649120092392,0.05959037318825722,0.6997418403625488,-0.7119061350822449,-0.04837516322731972,-0.03259706497192383,0.018104255199432373,0.9225527087004958,-0.37466948718120113,0.06057816040126352,-0.06963833346103515,-0.7750360430453747,0.08351070404415942,-0.11658105977111523
1773062933534882048,0.413952112197876,-0.07002624124288559,-0.2443600296974182,0.2970786392688751,0.05954381823539734,0.6997665762901306,-0.7118856906890869,-0.07295629382133484,-0.07897806167602539,-0.0026986002922058105,0.9226686162447153,-0.3747931735424081,0.059893503507699196,-0.06801070456052191,-0.7750707184778975,0.0834481434721436,-0.11307753151275168
1773062933544919040,0.42398905754089355,-0.19121365249156952,-0.20734289288520813,0.3769979774951935,0.06035542115569115,0.7005002498626709,-0.7110953330993652,-0.09093403071165085,-0.07284528017044067,0.025487422943115234,0.9226024123799683,-0.37537443109029894,0.05955139794696706,-0.06597293404742169,-0.7760982585902958,0.08467375243060532,-0.10814200090821005
1773062933554957056,0.43402719497680664,-0.26175493001937866,-0.22303690016269684,0.381702721118927,0.061534494161605835,0.7018977999687195,-0.709614634513855,-0.08663520216941833,-0.06845974922180176,0.040791451930999756,0.9223579583937552,-0.3763881660673917,0.05936854732713454,-0.06374218965198927,-0.7780584259920749,0.08649898574003986,-0.10252019608776221
1773062933564994048,0.4440641403198242,-0.32730090618133545,-0.2208709418773651,0.41783010959625244,0.06268983334302902,0.703710675239563,-0.7077155113220215,-0.07527832686901093,-0.059866130352020264,0.02868419885635376,0.9220020186839812,-0.3776820863363548,0.059147982740169594,-0.061399899105389615,-0.780606772354146,0.0883499593570129,-0.09662414924756066
1773062933575031040,0.4541010856628418,-0.4234479069709778,-0.21438920497894287,0.5307205319404602,0.06453745067119598,0.7060837745666504,-0.7051811814308167,-0.039848729968070984,-0.027098238468170166,0.0297357439994812,0.9214913718331949,-0.3793513021783038,0.0591775703671395,-0.058686751344508584,-0.7839524691748241,0.09126472264881247,-0.08945405108219041
1773062933585069056,0.4641392230987549,-0.5026692152023315,-0.23008587956428528,0.6042280793190002,0.06698030233383179,0.7090019583702087,-0.7020183801651001,-0.009332597255706787,-0.015993595123291016,0.03577393293380737,0.9208304532090694,-0.3814019691950107,0.05935770413970746,-0.05550110635160896,-0.7880819169950481,0.09512308653644279,-0.08082450340143704
1773062933595106048,0.47417616844177246,-0.44761982560157776,-0.2372327297925949,0.6497087478637695,0.06985118985176086,0.711997926235199,-0.6986986398696899,-0.013469979166984558,-0.005790650844573975,0.011992156505584717,0.9201341046027727,-0.3835302030328978,0.05962599747823211,-0.051986309231956844,-0.7923394116178902,0.09964218649306833,-0.07116989115597297
1773062933605143040,0.48421311378479004,-0.2776127755641937,-0.22383835911750793,0.6105517148971558,0.07275945693254471,0.7140816450119019,-0.6962711215019226,-0.031255558133125305,0.014113545417785645,-0.03276324272155762,0.9196641252265602,-0.38507135779544005,0.05987048450415453,-0.04851310987174247,-0.7953113923194679,0.10412083453883678,-0.0616374045273091
1773062933615181312,0.4942512512207031,-0.1486220359802246,-0.1820046305656433,0.5698549747467041,0.0755535364151001,0.7151241898536682,-0.6949021816253662,-0.0770336240530014,0.025567948818206787,-0.06960892677307129,0.9194544134892885,-0.38592167240723513,0.060111383980294864,-0.04532761888130028,-0.7968017472787806,0.10830001597394219,-0.052895799839819506
1773062933625218048,0.5042881965637207,-0.011876962147653103,-0.1468927264213562,0.5375308394432068,0.07837903499603271,0.715269923210144,-0.6944391131401062,-0.10265578329563141,0.03289902210235596,-0.05543875694274902,0.919465973334113,-0.3861685674857237,0.060450583644350644,-0.04244969359128064,-0.7970102843643041,0.11239103888807186,-0.044908765475851556
1773062933635256064,0.5143260955810547,0.06785169243812561,-0.10886677354574203,0.5298095345497131,0.08128384500741959,0.7146009802818298,-0.6947938203811646,-0.10792569816112518,0.017057955265045166,-0.04498279094696045,0.9196829015052232,-0.3858728661710966,0.06087058352818397,-0.03975328289628788,-0.7960535096412417,0.11646048711551242,-0.03738255509111214
1773062933645293056,0.5243630409240723,0.08870556950569153,-0.0736888200044632,0.584660530090332,0.0846254825592041,0.7135686874389648,-0.6954554915428162,-0.0984041765332222,0.00875180959701538,-0.023584485054016113,0.9199762264336453,-0.38534308161895303,0.06150591622322598,-0.037035152703979266,-0.7945789834780848,0.12108823374734969,-0.029609802458120477
1773062933655330304,0.534400224685669,0.033323537558317184,-0.052752912044525146,0.644216775894165,0.08856320381164551,0.712593138217926,-0.6959652900695801,-0.0702526792883873,0.010887086391448975,0.014126300811767578,0.9202276420636926,-0.3848701155409694,0.06238867952543513,-0.034115890808591016,-0.7931874453969604,0.12657204945006306,-0.021047971336567568
1773062933665368064,0.5444381237030029,-0.04972030222415924,-0.03379706293344498,0.7384703159332275,0.09317824244499207,0.711995005607605,-0.6959748268127441,-0.03540848195552826,0.01505577564239502,0.04602670669555664,0.9203667605436091,-0.3847237181421909,0.06324749885695209,-0.0302081018098732,-0.7923352917706433,0.13309021327950024,-0.009882804588712879
1773062933675405056,0.5544750690460205,-0.21175873279571533,-0.02954106591641903,0.880554735660553,0.09873855859041214,0.7121105194091797,-0.6950893998146057,-0.001311175525188446,0.0064258575439453125,0.07195097208023071,0.9202438818870988,-0.38505983125259735,0.06468557774687646,-0.026378306420465705,-0.792499765979647,0.14110753345635502,0.0018042225821167733
1773062933685442304,0.5645122528076172,-0.3244493305683136,-0.024214740842580795,0.9916189908981323,0.10531006008386612,0.7130764722824097,-0.6931317448616028,0.015310682356357574,0.0010195374488830566,0.10304391384124756,0.9198296196737294,-0.3860323886408384,0.06643128019644984,-0.021890468793185965,-0.7938766277368665,0.15078053790554607,0.01571661535908798
1773062933695480064,0.5745501518249512,-0.2922559976577759,-0.06090138480067253,1.0203955173492432,0.1122877299785614,0.7141625285148621,-0.6909148693084717,0.006776593625545502,-0.0060479044914245605,0.09800410270690918,0.9193295706109157,-0.38714921137880454,0.06824986368487956,-0.01704834184201071,-0.7954269558415477,0.1611117338330915,0.030719529051475063
1773062933705517056,0.5845870971679688,-0.23317961394786835,-0.13325947523117065,1.0022615194320679,0.11887155473232269,0.7147898077964783,-0.68916255235672,-0.02979075163602829,-0.016242504119873047,0.06401002407073975,0.9189313577567781,-0.3880055025802282,0.06978860272157193,-0.01210074870545117,-0.7963235414138983,0.17080626742599864,0.045654946859284264
1773062933715554048,0.5946240425109863,-0.2069442868232727,-0.18493065237998962,0.9777241945266724,0.12486790865659714,0.7150906324386597,-0.6877887845039368,-0.03935765475034714,-0.012865900993347168,0.05830270051956177,0.9186095022962282,-0.3886726935634604,0.07098693981584937,-0.007140516457651416,-0.796753742967662,0.17959368171701018,0.06020914150106981
1773062933725592064,0.6046621799468994,-0.11102809011936188,-0.2565794289112091,0.9262734055519104,0.13023000955581665,0.715022623538971,-0.6868644952774048,-0.031704023480415344,-0.005565226078033447,0.053166985511779785,0.9183829779657984,-0.3891080232275507,0.07185185107355682,-0.0022423339744533618,-0.7966564359694986,0.18737655988503146,0.07415967422873365
1773062933735629056,0.614699125289917,0.03978458791971207,-0.30452749133110046,0.8148972988128662,0.1345207244157791,0.7140966653823853,-0.6870008707046509,-0.032363131642341614,0.001387953758239746,0.02678358554840088,0.9184198674611231,-0.38894817656093167,0.07224184348202907,0.002344824122305474,-0.7953328807511465,0.1933621963222549,0.08653604623426361
1773062933745666048,0.6247360706329346,0.12025235593318939,-0.2724741995334625,0.7236430644989014,0.13802774250507355,0.7124622464179993,-0.6880013942718506,-0.04343852400779724,0.022019565105438232,-0.005174875259399414,0.9186727781657295,-0.38827302717821693,0.07241098198255368,0.006417845938536431,-0.7930009511983107,0.1979929079285417,0.09709025501616134
1773062933755704064,0.6347742080688477,0.16706699132919312,-0.2306053191423416,0.6757535338401794,0.1412625014781952,0.7104880809783936,-0.689384937286377,-0.03652617335319519,0.048728227615356445,0.013359546661376953,0.919016473920335,-0.38734280710785063,0.07261604949790838,0.01005803144892469,-0.7901915664828899,0.20211311627882728,0.1064116288771876
1773062933765741056,0.6448111534118652,0.19530849158763885,-0.18088065087795258,0.6372775435447693,0.14450833201408386,0.7082923054695129,-0.6909698843955994,-0.019584625959396362,0.03764885663986206,0.029943883419036865,0.9194045028716485,-0.3862561999151729,0.0729466393758184,0.013428121956081333,-0.7870761575531253,0.2061668357623453,0.11505994427868263
1773062933775778048,0.6548480987548828,0.20681680738925934,-0.13360954821109772,0.5686470866203308,0.1477239727973938,0.7059688568115234,-0.6926655769348145,-0.005542576313018799,0.019586563110351562,0.04146623611450195,0.9198162113293059,-0.3850689866799893,0.0734104226655421,0.016459102419491202,-0.7837901827747941,0.21012088708403212,0.12288685523971847
1773062933785816320,0.6648862361907959,0.18963555991649628,-0.14748874306678772,0.44547998905181885,0.1503939926624298,0.7038381695747375,-0.6942574977874756,0.003017902374267578,0.006717860698699951,0.054471731185913086,0.9201996685917105,-0.38396176421102934,0.07378768335764478,0.019006036834312356,-0.7807862443266209,0.21332947522637355,0.12936831319384973
1773062933795853056,0.6749231815338135,0.2309907227754593,-0.23163770139217377,0.23989567160606384,0.15171316266059875,0.7019177079200745,-0.6959128379821777,0.03252144157886505,-0.003980696201324463,0.051869869232177734,0.920607602796665,-0.3829007328118793,0.07369262661997543,0.020931246550203984,-0.7780863525242717,0.2146475473497779,0.1337388230764624
1773062933805891072,0.6849610805511475,0.5782101154327393,0.048875048756599426,-0.3480270802974701,0.1497071385383606,0.6990516185760498,-0.6992243528366089,0.02912585437297821,0.013045549392700195,0.015905261039733887,0.9215132481825241,-0.3809230535339099,0.07270116094013207,0.02063011226949924,-0.7740703541270881,0.2109201497502392,0.1310032444283939
1773062933815928320,0.6949982643127441,0.8602350950241089,0.27117735147476196,-0.2986992299556732,0.14879265427589417,0.6945128440856934,-0.703926682472229,-0.14516106247901917,0.10571914911270142,-0.1204904317855835,0.9228336136775592,-0.37775657895034603,0.07305230614823356,0.018480687118172513,-0.767742557334721,0.20830896090712522,0.12443990833371027
1773062933825965056,0.7050352096557617,1.894101858139038,-0.39681482315063477,0.09685475379228592,0.14817622303962708,0.685551106929779,-0.7127857804298401,0.010377839207649231,0.09688901901245117,-0.11065483093261719,0.9252560051590676,-0.37182256918279044,0.07317853853677271,0.017156650546574687,-0.7553604543158041,0.20496399542443544,0.11863599044912854
1773062933836003072,0.7150731086730957,2.2550346851348877,0.2825962007045746,-0.23777782917022705,0.14720632135868073,0.6704690456390381,-0.7271873950958252,0.12150093913078308,0.10505884885787964,-0.23954838514328003,0.9291496327539658,-0.3620947970848181,0.07275751362148407,0.0165717423775302,-0.7348408138001723,0.19973334258101053,0.11276243753207645
1773062933846040064,0.7251100540161133,1.7544827461242676,0.6032116413116455,-0.4382961392402649,0.14849455654621124,0.6559478044509888,-0.74005526304245,-0.0077017247676849365,0.16920167207717896,-0.22063803672790527,0.9326600340299778,-0.3527062409559096,0.0746369670608721,0.013145114171024219,-0.715437631481764,0.1980236925028075,0.10241670604248176
1773062933856077312,0.73514723777771,1.1526341438293457,0.38567638397216797,-0.2823920249938965,0.14976336061954498,0.6456912755966187,-0.7487680912017822,-0.029341012239456177,0.022979319095611572,0.140888512134552,0.9350307540202658,-0.3461006853791764,0.07635615498451795,0.010073151639823537,-0.70192822348746,0.19740806040377604,0.09402452375182671
1773062933866115072,0.745185136795044,0.5296130180358887,0.3585107922554016,-0.22054889798164368,0.15103764832019806,0.6396505832672119,-0.7536808252334595,0.10167841613292694,-0.15754914283752441,0.22209513187408447,0.9363638837994298,-0.3422204477048048,0.07774804991369008,0.007943297168277172,-0.6940436040658663,0.19778016436885842,0.08869776533265093
1773062933876152064,0.7552220821380615,-0.12714621424674988,0.1341426819562912,-0.2661832273006439,0.15134046971797943,0.6385932564735413,-0.7545163035392761,0.10538864135742188,-0.20177990198135376,0.20700037479400635,0.9365995326488603,-0.34143799008829295,0.07849815317228645,0.006293675279018257,-0.6926688335777497,0.19795266986207763,0.08507990022174286
1773062933886189312,0.7652592658996582,-0.45842453837394714,0.04651828110218048,-0.1549006551504135,0.15059177577495575,0.641304075717926,-0.7523638010025024,0.10288722813129425,-0.13974767923355103,0.23399221897125244,0.936031436298774,-0.3430022437509911,0.0785338676343222,0.005206153213543143,-0.6961966171333257,0.19754767238146043,0.08301192285259534
1773062933896227072,0.7752971649169922,-0.5157762169837952,-0.05061918497085571,0.015311293303966522,0.15007856488227844,0.6451683044433594,-0.7491557598114014,0.12253496050834656,-0.07026290893554688,0.14246630668640137,0.9351747029162794,-0.3453743831147462,0.07834964208969705,0.005121045335461223,-0.7012435496465942,0.1977130954056529,0.08346688897143233
1773062933906264064,0.7853341102600098,-0.41399794816970825,0.004529021680355072,0.09943415969610214,0.15027709305286407,0.6486287713050842,-0.7461217045783997,0.11752989888191223,6.812810897827148e-05,0.04566693305969238,0.9343603800900019,-0.34756907906555795,0.07832555989319696,0.005622617611220958,-0.705781412350599,0.19875189778818994,0.08544589292647002
1773062933916301056,0.7953710556030273,-0.21869370341300964,-0.006037868559360504,0.17896252870559692,0.15119636058807373,0.6508234143257141,-0.7440219521522522,0.06387624144554138,0.03733271360397339,-0.03181123733520508,0.9337935619269216,-0.3490202861186014,0.07857400796953037,0.006378653852665394,-0.7086684537096137,0.2004849191763668,0.08804570603843379
1773062933926339072,0.8054091930389404,-0.016744598746299744,0.017503144219517708,0.2516742944717407,0.152596578001976,0.6513422131538391,-0.7432816624641418,0.021185755729675293,0.03829401731491089,-0.09175550937652588,0.9335875231455752,-0.34946705550488955,0.07894262695163959,0.007435422365361601,-0.7093520082830593,0.20248757179042576,0.0911387351063613
1773062933936376064,0.815446138381958,0.13996219635009766,0.06996635347604752,0.35161179304122925,0.15490174293518066,0.6504063606262207,-0.7436242699623108,-0.024637475609779358,0.01817268133163452,-0.12344115972518921,0.9336679065504604,-0.34905288610962215,0.07968663547461347,0.008737977780871733,-0.7081192827464595,0.2053696423311386,0.09486010946552022
1773062933946414080,0.825484037399292,0.2567886710166931,0.09514867514371872,0.445102334022522,0.15814295411109924,0.6482685804367065,-0.7448078393936157,-0.06413355469703674,-0.009047389030456543,-0.12735402584075928,0.9339676740790319,-0.3479508556710371,0.08078549976601589,0.010405007005402747,-0.7053082366596668,0.20922004781224193,0.09952524121163549
1773062933956451072,0.8355212211608887,0.3948557376861572,0.13523536920547485,0.48428356647491455,0.16200655698776245,0.6450812816619873,-0.7467422485351562,-0.10187166929244995,-0.040558576583862305,-0.12673187255859375,0.9344627550077086,-0.3462398724925103,0.0821390045532827,0.01226733634328444,-0.7011296456935955,0.21364031355899576,0.1046337957889376
1773062933966488064,0.8455581665039062,0.4984186291694641,0.18153083324432373,0.5134966969490051,0.16643880307674408,0.6409233212471008,-0.7493433356285095,-0.15024924278259277,-0.062187910079956055,-0.1137394905090332,0.9351318575994424,-0.34395895344907745,0.08378877523099444,0.014146599594875504,-0.6957004917398996,0.2185647387025599,0.10977889800791388
1773062933976526080,0.8555960655212402,0.587943971157074,0.24157047271728516,0.5177260637283325,0.17133939266204834,0.6359432935714722,-0.7524752616882324,-0.18224942684173584,-0.06003081798553467,-0.06843233108520508,0.9359391296953508,-0.34119934484565706,0.08570524266153659,0.01598715522712055,-0.689230175644105,0.22388383944876294,0.11481350521176054
1773062933986563328,0.8656332492828369,0.7051221132278442,0.3002156615257263,0.45904386043548584,0.17653560638427734,0.6301640272140503,-0.7561272978782654,-0.20648860931396484,-0.05934798717498779,-0.02898317575454712,0.9368859698675042,-0.3379548348556849,0.08787997342639689,0.01755941496742924,-0.6817644653569177,0.2293647634825385,0.11915591396835386
1773062933996600064,0.8756701946258545,0.721276581287384,0.3297367990016937,0.35807836055755615,0.18153169751167297,0.6239717602729797,-0.7600694298744202,-0.21372775733470917,-0.07535725831985474,-0.006043851375579834,0.9379168365498182,-0.33442662887406094,0.09013389757082627,0.01862217164790512,-0.673815017071515,0.23444378667119292,0.12215245162977903
1773062934006638080,0.8857080936431885,0.7035105228424072,0.3100390136241913,0.31339743733406067,0.18603721261024475,0.6179073452949524,-0.7639245390892029,-0.18727317452430725,-0.10655480623245239,0.01873105764389038,0.9389300940110036,-0.33094542573422087,0.09226510033375027,0.019302648602416244,-0.6660783147256253,0.23887838524383387,0.12409181932021603
1773062934016675072,0.895745038986206,0.6836819648742676,0.29805052280426025,0.3736535906791687,0.19042977690696716,0.6119300723075867,-0.7676445245742798,-0.12725840508937836,-0.13265150785446167,-0.006769537925720215,0.9399041366742245,-0.32754136598378725,0.09431000594688281,0.020066247330112804,-0.6584986085874316,0.24316161148245732,0.12614035900624704
1773062934026712064,0.9057822227478027,0.7254723906517029,0.31406649947166443,0.5194401144981384,0.19547699391841888,0.6056422591209412,-0.7713534832000732,-0.07723662257194519,-0.13428300619125366,-0.03992581367492676,0.9408622670608625,-0.32404311020182536,0.09653664123929358,0.02132682456574533,-0.650572708670831,0.248195604558926,0.12941776534899269
1773062934036750080,0.9158201217651367,0.7972803115844727,0.36459118127822876,0.6660338044166565,0.2016979455947876,0.5985733270645142,-0.7752598524093628,-0.07657589018344879,-0.12028664350509644,-0.06269174814224243,0.9418551901694041,-0.3202069284692663,0.09918459559876397,0.023208274444557087,-0.6417189343833047,0.25452558468441694,0.13427044431638252
1773062934046787072,0.9258570671081543,0.9511616230010986,0.39201149344444275,0.7793583273887634,0.20898716151714325,0.5902690291404724,-0.7796838283538818,-0.13254064321517944,-0.10416978597640991,-0.07625794410705566,0.9429672264577785,-0.3157594941467538,0.10224493979230902,0.02558895007122363,-0.6313920823077882,0.26188495902089326,0.14023593229501927
1773062934056824320,0.935894250869751,1.1058495044708252,0.4129098653793335,0.8465242981910706,0.21694566309452057,0.5804389715194702,-0.7848727107048035,-0.22089768946170807,-0.10454791784286499,-0.06757479906082153,0.9442648769725507,-0.3105124924447472,0.10557288870804678,0.028288921208056615,-0.6192676915141824,0.2696754215619288,0.14664727275990072
1773062934066862080,0.945932149887085,1.211388349533081,0.4793225824832916,0.8086104393005371,0.22525529563426971,0.5693488121032715,-0.7906339168548584,-0.3088124394416809,-0.10729742050170898,-0.0203249454498291,0.9457060420104912,-0.3045876340894762,0.1091302909778354,0.030935166853784696,-0.6057135213568209,0.2775509837183439,0.15263088209368036
1773062934076899072,0.9559690952301025,1.2105276584625244,0.6241183280944824,0.6783877015113831,0.23386482894420624,0.5579655170440674,-0.7962297201156616,-0.38530832529067993,-0.10316210985183716,0.04622972011566162,0.9471156750701752,-0.2984961396265278,0.1130716812276267,0.03296675875718776,-0.5919322059839178,0.28568106396137544,0.157238527736977
1773062934086937088,0.9660072326660156,1.2250051498413086,0.726610004901886,0.5527986884117126,0.242715984582901,0.5467374324798584,-0.8013533353805542,-0.4186040461063385,-0.0987088680267334,0.0865095853805542,0.9484246554003499,-0.2924646889496084,0.11742121390851547,0.034167600445454215,-0.5784627546153223,0.2940992816217836,0.16011627741143786
1773062934096974080,0.9760441780090332,1.2404415607452393,0.7495821714401245,0.5218836665153503,0.2515653669834137,0.5354635715484619,-0.8062218427658081,-0.3815244734287262,-0.10469269752502441,0.0795830488204956,0.9496808454989952,-0.286396821376005,0.12192598762555103,0.03488833763916826,-0.5650565313609458,0.3024565931467657,0.16185988446277247
1773062934107011072,0.9860811233520508,1.1500260829925537,0.6419823169708252,0.4625619053840637,0.25996139645576477,0.5245158076286316,-0.8107424378395081,-0.29954269528388977,-0.11159771680831909,0.06194788217544556,0.9508454529461199,-0.280534935042597,0.1262099028439843,0.03555560643584443,-0.5521462982222286,0.31028892895036414,0.16331394839362162
1773062934117049344,0.9961192607879639,1.433561086654663,0.8593697547912598,0.8264639377593994,0.2692612409591675,0.5123878121376038,-0.815449059009552,-0.26488199830055237,-0.13024669885635376,0.073108971118927,0.9520489993414772,-0.2741073985980312,0.13092215736838372,0.03643212824183711,-0.5379630347398388,0.31892788073815004,0.1651079335443561
1773062934127086080,1.0061562061309814,1.4561160802841187,0.5769185423851013,1.5054165124893188,0.281076580286026,0.49715426564216614,-0.8208736777305603,-0.196237713098526,-0.09061434864997864,0.014782428741455078,0.953321753029709,-0.266488548846782,0.13618738388496324,0.04018142466053747,-0.5203158974204607,0.3298985061461693,0.17281103046527943
1773062934137123072,1.016193151473999,1.6678472757339478,0.6316313147544861,1.6428850889205933,0.29394766688346863,0.47973304986953735,-0.8267109394073486,-0.14607477188110352,0.016375958919525146,0.14369702339172363,0.9545871941308989,-0.2581020117684784,0.1415198696079371,0.046031320250001805,-0.5003504495230885,0.3416219229699789,0.18446385884702257
1773062934147161088,1.026231050491333,1.9685966968536377,0.5967960953712463,1.4457523822784424,0.30642223358154297,0.4599006772041321,-0.8334247469902039,-0.34862804412841797,-0.007172375917434692,0.13095587491989136,0.956072286635486,-0.24840800794759643,0.14690499641439442,0.051364350736590174,-0.4778833276177291,0.35232569929436847,0.19401503625784652
1773062934157198080,1.0362682342529297,2.177382707595825,0.7128388285636902,1.0254418849945068,0.31716740131378174,0.438689649105072,-0.8408069014549255,-0.5328503847122192,-0.08346500992774963,0.08851808309555054,0.9577965780529905,-0.23773914212560224,0.15190997845503743,0.05503864294531181,-0.45413998727251137,0.3607136851152948,0.19901182805083562
1773062934167235072,1.0463051795959473,2.5914320945739746,0.884713888168335,0.7801826000213623,0.3280436098575592,0.41563326120376587,-0.8483138084411621,-0.6571604013442993,-0.20407018065452576,0.11755514144897461,0.9596693076901317,-0.22582928027801402,0.1576204904830647,0.056495172397554534,-0.4286389452664382,0.3689892230646708,0.19879736586929123
1773062934177273088,1.0563430786132812,3.143671989440918,1.0399644374847412,0.9601060748100281,0.3395032286643982,0.3883739411830902,-0.8566815853118896,-0.6680707335472107,-0.3178935647010803,0.06294989585876465,0.9618067243815409,-0.2116415846448392,0.16391174405510317,0.05717305452627777,-0.39886634660992054,0.3773129858305934,0.19588910367013315
1773062934187310336,1.066380262374878,3.7023162841796875,1.0395405292510986,1.2926839590072632,0.35281750559806824,0.3547394573688507,-0.865840494632721,-0.5773353576660156,-0.3829376697540283,0.03269535303115845,0.9640926880423198,-0.19439584440288765,0.17114326107402608,0.05869872229482583,-0.36263537140165963,0.3869427589254728,0.19342610461924056
1773062934197347072,1.0764172077178955,4.029129505157471,1.1331008672714233,1.4665175676345825,0.3668423295021057,0.3157901167869568,-0.8750447034835815,-0.4953366219997406,-0.4070529639720917,0.08993428945541382,0.9663314379139462,-0.17468905934356876,0.1787774293892512,0.06103940442099096,-0.321289274841041,0.3969706795020327,0.1913253098868606
1773062934207385088,1.0864551067352295,4.011687755584717,1.1278772354125977,1.4027526378631592,0.3813086152076721,0.27446258068084717,-0.882764995098114,-0.473090261220932,-0.38002288341522217,0.221357524394989,0.9681757424755635,-0.1539751651895007,0.18683991415676632,0.0633897093825699,-0.27803077966088596,0.40774096882887956,0.18859795103666493
1773062934217422080,1.096492052078247,3.552267551422119,1.1226915121078491,1.1855388879776,0.3942628800868988,0.23589496314525604,-0.8882062435150146,-0.4395662248134613,-0.31466084718704224,0.32950568199157715,0.9694502857135887,-0.1347570531741127,0.1942612153410502,0.06533874291065413,-0.23813941605211691,0.41775845053501837,0.18529959858661343
1773062934227460096,1.1065301895141602,3.108917713165283,1.0703078508377075,0.7891075611114502,0.4068002700805664,0.20218288898468018,-0.8908622860908508,-0.3913278579711914,-0.2943612337112427,0.39531785249710083,0.9700748089063971,-0.11797482804663692,0.20162040117478844,0.06622824209986597,-0.20358633025582132,0.4283591441344114,0.18076053730539446
1773062934237497088,1.1165671348571777,3.1207666397094727,0.9095439910888672,0.6031810641288757,0.41653963923454285,0.17197829484939575,-0.8927027583122253,-0.35751864314079285,-0.34878188371658325,0.25752514600753784,0.9705861152120083,-0.10264622331045588,0.20763519140143777,0.06568179501296563,-0.17283753357732948,0.43657658667130655,0.17356887724449133
1773062934247534080,1.1266040802001953,3.2464656829833984,1.1170454025268555,1.4662970304489136,0.4270925223827362,0.13930585980415344,-0.8934124708175659,-0.3142690360546112,-0.41584086418151855,0.03811156749725342,0.9707160302805717,-0.08641030120356526,0.21407245265085945,0.06645848635427967,-0.13976041200136127,0.4459308926382052,0.16845103217420976
1773062934257572096,1.1366422176361084,3.3754665851593018,0.878741979598999,3.106961965560913,0.43916136026382446,0.09962163865566254,-0.8928677439689636,-0.14095887541770935,-0.38605964183807373,-0.12440520524978638,0.9700604025742001,-0.06812954666865395,0.22118881790959571,0.0735975610463422,-0.0997871581697208,0.4571103138757026,0.17467865648341876
1773062934267609088,1.146679162979126,3.2868895530700684,0.7461463809013367,3.750960350036621,0.44903579354286194,0.05387935787439346,-0.8918877840042114,-0.028656214475631714,-0.28488215804100037,-0.1019628643989563,0.9687144873854961,-0.04819254617816465,0.22745015988415038,0.08681083600718165,-0.05390546088495542,0.46641711236010786,0.19155856571317642
1773062934277646080,1.1567161083221436,2.9924063682556152,0.6070998311042786,2.7997870445251465,0.45632508397102356,0.01067692507058382,-0.8897490501403809,-0.27485230565071106,-0.20598943531513214,0.04728078842163086,0.9669799974987098,-0.029397404152819252,0.2329404743601209,0.09911647797286317,-0.010677127662663852,0.4738900686632597,0.20686699076255252
1773062934287684096,1.1667542457580566,2.877511501312256,0.10812052339315414,1.851624608039856,0.4593949615955353,-0.025916416198015213,-0.8878539204597473,-0.6201768517494202,-0.17478244006633759,0.22081595659255981,0.9656744080888147,-0.012724923057951408,0.23645531403155026,0.10677002858150024,0.02591931824081872,0.4774877089659846,0.21392722352424487
1773062934297721088,1.1767911911010742,2.5586912631988525,3.430673360824585,4.3752217292785645,0.4674955904483795,-0.06256549060344696,-0.8817785382270813,-0.6039396524429321,-0.11788494884967804,0.2557104229927063,0.9630617779410602,0.003260444699409786,0.24310509943131442,0.11576366228768252,0.06260638282272322,0.48749397805087674,0.22368512866819695
1773062934307758080,1.1868281364440918,1.473010778427124,4.018848419189453,7.527873516082764,0.5034027099609375,-0.11159121990203857,-0.8568156361579895,0.1441497802734375,-0.024059422314167023,0.05392873287200928,0.952829309701527,0.01842343640010339,0.26693210397643535,0.14326197685486727,0.11182412984955672,0.5311980172049328,0.2680243738575132
1773062934317796096,1.1968660354614258,0.23415721952915192,0.48966535925865173,4.164920806884766,0.5127041935920715,-0.15205815434455872,-0.8449927568435669,1.1828830242156982,0.009739428758621216,0.1193457841873169,0.9447264003566098,0.029738594097850603,0.2768018126625703,0.17317170210410218,0.15265030752300401,0.5453721507722349,0.31981638173090354
1773062934327833088,1.2069032192230225,-0.41543781757354736,-1.7135257720947266,-1.3671566247940063,0.5019686818122864,-0.15438038110733032,-0.8509959578514099,0.6927486658096313,-0.2902912497520447,0.2597178816795349,0.9455085705662362,0.030719139280439168,0.2712164269275299,0.17751497860147458,0.15500027944393163,0.5329304419036389,0.32878335196951636
1773062934337871104,1.2169411182403564,-0.7691253423690796,0.2937685549259186,3.0150187015533447,0.49702948331832886,-0.15007832646369934,-0.8546567559242249,-0.6243030428886414,-0.36211344599723816,-0.22296470403671265,0.9456773382755371,0.02782441415539378,0.26813694517585296,0.18172150001418272,0.15064750124698278,0.5267462007604246,0.33900052682456183
1773062934347909120,1.2269792556762695,-0.7935759425163269,0.2198055237531662,5.354279041290283,0.49416711926460266,-0.16669058799743652,-0.8532368540763855,0.18362829089164734,0.04771780967712402,-0.631122887134552,0.9408408791401868,0.030345018044449064,0.2691853661861787,0.20356033309386112,0.16747234451215817,0.5249606818693644,0.38105724243642947
1773062934357946112,1.237016201019287,2.308870792388916,-6.7134690284729,3.362595558166504,0.46145370602607727,-0.18898577988147736,-0.8668015003204346,-0.009106934070587158,0.29497331380844116,-0.6391952037811279,0.9398921491314834,0.03987489477598943,0.2549691069118854,0.22361451125542656,0.19012921751809175,0.4892021738414767,0.41955480050317256
1773062934367984384,1.2470543384552002,5.804693222045898,9.0172700881958,6.161014556884766,0.43785157799720764,-0.2436128854751587,-0.8654124736785889,-1.1627660989761353,0.3328768014907837,0.07860827445983887,0.9362953140146015,0.06670165873598576,0.2506883643900045,0.2367640491398004,0.246089232167701,0.46839271579169955,0.43637057771214877
1773062934378021120,1.2570912837982178,5.054258823394775,-0.21688590943813324,4.476665019989014,0.475841760635376,-0.3180604875087738,-0.8200074434280396,-0.626934289932251,0.1970125138759613,-0.700942873954773,0.9179820561424663,0.09259197752937054,0.2853471873989752,0.25944700249296854,0.3236830415770694,0.5258004658333529,0.4630623935406779
1773062934388058112,1.2671282291412354,3.867666482925415,-7.519525051116943,0.40878480672836304,0.42650213837623596,-0.3648166358470917,-0.8276501893997192,0.7709313631057739,0.3487186133861542,-0.5095843076705933,0.9187811884567264,0.1218033882747047,0.2670933257527074,0.26394388512643147,0.37343584541092945,0.47582591207763875,0.46792249317660256
1773062934398096384,1.2771663665771484,5.644452095031738,-1.5370579957962036,-1.0703343152999878,0.38635438680648804,-0.4014263153076172,-0.8304138779640198,-0.700685441493988,0.2556133270263672,1.4000701904296875,0.9237553779794606,0.15008030963613764,0.24953748897624298,0.24876288306003913,0.4130736146468547,0.43546747796719215,0.43346507227876646
1773062934408133376,1.287203311920166,4.512619972229004,1.6847175359725952,4.7742719650268555,0.38176482915878296,-0.4506096839904785,-0.8069736957550049,-1.2333273887634277,-0.07813787460327148,-0.7584865093231201,0.9165152927683462,0.17532031571557039,0.2564682262127015,0.25196529536706075,0.46744817350497037,0.44188237320668444,0.4297320608412045
1773062934418170112,1.2972402572631836,6.639235019683838,3.228830575942993,6.99981689453125,0.37074023485183716,-0.5175506472587585,-0.7711634039878845,0.5564143061637878,0.09025877714157104,0.23521369695663452,0.8999576414269247,0.20540055182405245,0.26875437107691524,0.2750597983951109,0.543985898936306,0.44813296246849693,0.46628914819352524
1773062934428208384,1.3072783946990967,6.533888339996338,0.8326606154441833,5.7161712646484375,0.35228431224823,-0.5930601954460144,-0.7239996194839478,0.341166615486145,0.050396621227264404,-0.5457910299301147,0.8795205285940446,0.24178725491402878,0.2820268222028934,0.29739457368168287,0.6348542906804856,0.45285476068773023,0.5010403586027181
1773062934438245376,1.3173153400421143,5.0066375732421875,-0.9006292223930359,3.3618996143341064,0.3220909833908081,-0.6483741402626038,-0.6898320913314819,-0.073052316904068,0.17789989709854126,-0.23900091648101807,0.8658632874967437,0.2734150863933725,0.2834222089342396,0.3085396206930245,0.7054469049629638,0.4368287424044441,0.5215699090513853
1773062934448282368,1.3273522853851318,5.745941162109375,-0.41189202666282654,2.693314552307129,0.2983931303024292,-0.6932529807090759,-0.6560196280479431,-0.2055128812789917,0.1342473030090332,0.7737107276916504,0.8545888738901268,0.3014357270850456,0.2848274508186237,0.3125502143749637,0.7659930125674071,0.4268831455950079,0.5270347433004271
1773062934458320384,1.337390422821045,5.297247886657715,-0.14935415983200073,4.32204008102417,0.27229389548301697,-0.739310622215271,-0.6158537864685059,0.11370769143104553,0.142875075340271,0.12474966049194336,0.8405706300207112,0.3309389214491296,0.2873195679624723,0.3183833334462218,0.8320459667447504,0.4162987770633799,0.5380548663837305
1773062934468357376,1.3474273681640625,4.127988338470459,-0.13617736101150513,5.915539741516113,0.23152585327625275,-0.7802819609642029,-0.5809956789016724,0.5213122963905334,0.4031152129173279,0.10119831562042236,0.8242614000822013,0.35799459233801256,0.2852052629844677,0.3333032561857114,0.8951164754650003,0.37921124129226963,0.5847951462510727
1773062934478395136,1.3574652671813965,3.188074827194214,-0.10957078635692596,5.648036956787109,0.18402908742427826,-0.8136131763458252,-0.5515133738517761,0.5350413918495178,0.6279289722442627,0.2874600291252136,0.8073341368669467,0.3816032584034956,0.28039662654534286,0.3520914062782675,0.9503398788955835,0.32206268486900397,0.6557398680946706
1773062934488432128,1.367502212524414,1.9353870153427124,-0.06652051955461502,4.590094089508057,0.1407804638147354,-0.8356009125709534,-0.5309913754463196,0.1114167720079422,0.48896706104278564,0.12080472707748413,0.7935358007487333,0.399219042940597,0.27409570907833875,0.3685057870817086,0.9892257698643251,0.25916492978385564,0.729171076720845
1773062934498469376,1.3775393962860107,0.6218938827514648,0.4001060426235199,4.279398441314697,0.10480403155088425,-0.8481473326683044,-0.5192902088165283,-0.22914788126945496,0.11714452505111694,0.20086979866027832,0.782075739215292,0.41005730239236415,0.26871525816746766,0.3847112724665985,1.0124782254234719,0.1991465730018127,0.8036439772946924
1773062934508507136,1.3875772953033447,-1.4232792854309082,-0.14720776677131653,4.024395942687988,0.06995199620723724,-0.8496819138526917,-0.5226349830627441,-0.15404319763183594,-0.19627755880355835,0.28769540786743164,0.774596537399683,0.4137990902338554,0.2597168335450345,0.40164361112959146,1.0153817309730409,0.13305408145631442,0.8826090716343052
1773062934518544128,1.3976142406463623,-2.7237050533294678,-0.38430047035217285,3.916421413421631,0.03507254645228386,-0.8403364419937134,-0.5409293174743652,-0.12424492835998535,-0.5298112034797668,0.563970148563385,0.771153106247513,0.41100083015228256,0.24619840795625045,0.4192701833876081,0.9979035819114264,0.06474694944999042,0.9606833433883063
1773062934528581376,1.407651424407959,-3.0927727222442627,-1.4506796598434448,3.6240971088409424,-0.0016641257097944617,-0.8246122002601624,-0.5656959414482117,0.04496855288743973,-0.7917665243148804,0.37638020515441895,0.7701289504996514,0.40607031687853573,0.2286021028098101,0.43560229101816467,0.9695163563835519,-0.0029417231066720846,1.0310659221751273
1773062934538619392,1.417689323425293,-3.0362508296966553,-2.0726261138916016,3.0525641441345215,-0.03950883448123932,-0.8059147000312805,-0.5907119512557983,0.2176094353199005,-0.8840877413749695,0.15954434871673584,0.7709754708230134,0.40173917599969167,0.20796550769161495,0.4482777198963948,0.9372188796123647,-0.0667839495358948,1.0871413808936727
1773062934548656128,1.4277262687683105,-2.2755465507507324,-2.5509262084960938,2.7171664237976074,-0.0762699544429779,-0.7880674600601196,-0.6108458638191223,0.2719334065914154,-0.8089632391929626,0.11136460304260254,0.7721379638921428,0.39940723702524533,0.18721891956814424,0.4574123719550114,0.9076633581196977,-0.12421672246818682,1.130272195868969
1773062934558693120,1.4377632141113281,-1.487405776977539,-2.8810529708862305,2.484973907470703,-0.11380348354578018,-0.7740002870559692,-0.6228742003440857,0.3888126313686371,-0.6420458555221558,0.03348821401596069,0.7723223717472358,0.40085719347699045,0.16696230712496143,0.4636326104486021,0.8851347208299728,-0.18071375360608052,1.1671194215450174
1773062934568731392,1.4478013515472412,-0.47488054633140564,-2.6113357543945312,2.349665403366089,-0.14964385330677032,-0.764470636844635,-0.6270496845245361,0.44459623098373413,-0.4949135184288025,0.13603711128234863,0.7709200374081233,0.4052785874928859,0.149078619713752,0.46819552275285997,0.8702198012432345,-0.23426577339453591,1.2008528968166847
1773062934578768128,1.4578382968902588,0.6604799032211304,-2.6718058586120605,2.26371431350708,-0.18384778499603271,-0.7613278031349182,-0.6217555999755859,0.4424537420272827,-0.4971103072166443,0.11426353454589844,0.7670706713980572,0.41356981282484534,0.13447007747227094,0.47167839430278735,0.8653585867345075,-0.28749927302915484,1.2361297457800953
1773062934588806400,1.4678764343261719,1.0181578397750854,-2.4846155643463135,1.925196647644043,-0.21607156097888947,-0.7625877857208252,-0.6097318530082703,0.44683021306991577,-0.5767982006072998,-0.0009401440620422363,0.7618676888339039,0.42451254595741994,0.12216044394158362,0.4737336487107478,0.8673041564124593,-0.34056389389527797,1.2715024959917909
1773062934598843392,1.4779133796691895,0.9486874341964722,-2.404837131500244,1.5963608026504517,-0.24422775208950043,-0.7645966410636902,-0.5964434742927551,0.3521074056625366,-0.6114409565925598,0.05107909440994263,0.7569773444074042,0.43514411728970837,0.1114803217229409,0.47455991868177755,0.8704152905888701,-0.3886463623878469,1.3024475355339382
1773062934608880384,1.487950325012207,0.9377899169921875,-2.4813196659088135,1.3856796026229858,-0.2700844705104828,-0.7662562131881714,-0.5830144286155701,0.3546791970729828,-0.6141453981399536,0.04119008779525757,0.7526698383839899,0.44525740150518756,0.1011861164538557,0.4743368148205085,0.8729941776335751,-0.4338221299592727,1.3295647208254233
1773062934618918144,1.497988224029541,0.8516150712966919,-2.394963026046753,1.1339597702026367,-0.29399171471595764,-0.7679374814033508,-0.5690702199935913,0.44230714440345764,-0.6170417666435242,-0.08788168430328369,0.7487913375071962,0.4551227396016413,0.09125881714453779,0.47312439828755604,0.8756148526294435,-0.4768531653486394,1.3535923639787524
1773062934628955392,1.5080254077911377,0.7087757587432861,-2.4871511459350586,0.9072132110595703,-0.31548187136650085,-0.7691636681556702,-0.5557504296302795,0.5223147869110107,-0.5604109764099121,-0.07628381252288818,0.7456773573446498,0.46417447165304826,0.08165066563266292,0.47099960775292604,0.8775313827283789,-0.5163068099321025,1.3732819661044697
1773062934638992384,1.5180623531341553,1.1188812255859375,-2.7515461444854736,0.9749302268028259,-0.33712562918663025,-0.7710046768188477,-0.5402758121490479,0.6246012449264526,-0.4578617811203003,0.05480223894119263,0.7424565814675995,0.4740490607834896,0.07169081302973113,0.46786324087888603,0.8804172804176296,-0.5578712445537735,1.3927883773083762
1773062934649030144,1.5281002521514893,2.131244659423828,-2.903162956237793,1.2238966226577759,-0.36064937710762024,-0.7755919694900513,-0.518062949180603,0.7570879459381104,-0.3080872893333435,0.08033400774002075,0.736976259509885,0.48691505386359063,0.062307756434306465,0.4646478255049611,0.887652395828695,-0.6081371958687056,1.4212742160152225
1773062934659067392,1.538137435913086,3.3331687450408936,-2.794084072113037,1.319297432899475,-0.3852847218513489,-0.7845898270606995,-0.4857722222805023,0.7649234533309937,-0.09146308898925781,-0.1982945203781128,0.7280176926700059,0.5040879469053994,0.05485643443964685,0.46138540719197313,0.9020342607046072,-0.6705431762972209,1.4640841455675426
1773062934669104384,1.5481743812561035,4.198686599731445,-2.2722063064575195,1.2829148769378662,-0.4075040817260742,-0.7970952391624451,-0.4456228017807007,0.6776762008666992,0.16689199209213257,-0.3070169687271118,0.7159092065925047,0.5240070001056603,0.05104179056739842,0.45856891645225784,0.9224694389659219,-0.7407466644243924,1.5206598321345932
1773062934679142144,1.5582122802734375,4.755985260009766,-1.8469048738479614,1.2651199102401733,-0.42649659514427185,-0.810901939868927,-0.4006727933883667,0.5168439149856567,0.2156718373298645,-0.2392655611038208,0.7014252745612607,0.5450651469521165,0.050671339100710186,0.4564416740287687,0.945691809681918,-0.8166074829568386,1.5893728663306226
1773062934689179136,1.568249225616455,4.3803839683532715,-1.349586009979248,1.2130433320999146,-0.4427914321422577,-0.823087751865387,-0.3556152880191803,0.3687252998352051,0.01902592182159424,-0.1232207715511322,0.6860528266183478,0.5652100338646777,0.05224921949959515,0.45512540616048786,0.9668268392899746,-0.8941550018651573,1.664615376331724
1773062934699217408,1.5782873630523682,2.9046926498413086,-0.9794995188713074,1.0419613122940063,-0.45608094334602356,-0.8304757475852966,-0.31984391808509827,0.28651005029678345,-0.2325735092163086,0.020664840936660767,0.6731724218726635,0.580703370815015,0.05349429485862755,0.45470953979780404,0.979961135453829,-0.9592067366466771,1.7293515914086095
1773062934709254144,1.5883243083953857,1.0818910598754883,-1.1781718730926514,0.7885879278182983,-0.46695879101753235,-0.8324678540229797,-0.298239529132843,0.23500996828079224,-0.5470335483551025,0.23096352815628052,0.6654244864212202,0.590071223813107,0.0519247552754276,0.45423568176496887,0.9835468815033246,-1.0024166442500464,1.7688645944176487
1773062934719291136,1.5983612537384033,-0.6188822984695435,-1.7525736093521118,0.4600164294242859,-0.47653520107269287,-0.830109715461731,-0.2895375192165375,0.24051228165626526,-0.9289081692695618,0.2813893258571625,0.6637541991186238,0.5942653566836972,0.04560627889908131,0.4518839329278323,0.9793044653005127,-1.0248154313935096,1.777979833907075
1773062934729329408,1.6083993911743164,-1.7360265254974365,-2.4029581546783447,0.1804385930299759,-0.485094279050827,-0.8251380324363708,-0.28953516483306885,0.2719290554523468,-1.1425895690917969,0.30223050713539124,0.6670495989404742,0.5949795567927967,0.03509622796724759,0.4470037086152876,0.970446500437531,-1.0326861322009024,1.7624797255783138
1773062934739366400,1.618436336517334,-2.135019302368164,-3.0964319705963135,0.11357647180557251,-0.49429407715797424,-0.8186061382293701,-0.2925017476081848,0.28540128469467163,-1.0031559467315674,0.0909484326839447,0.6731041680200305,0.5943988303848339,0.020956148452010385,0.4395242663023042,0.9589799652986299,-1.0364602627527684,1.733403256491466
1773062934749403136,1.6284732818603516,-1.5392589569091797,-3.7067651748657227,0.019128400832414627,-0.5049605965614319,-0.8126935362815857,-0.29076439142227173,0.32962191104888916,-0.513035774230957,-0.13590183854103088,0.678761443670525,0.5954767324701615,0.005026740994568272,0.42972672527058575,0.9487599150674582,-1.0483490419885966,1.7059532318707316
1773062934759441408,1.6385114192962646,-0.08812779188156128,-3.691328287124634,-0.2519315779209137,-0.5147360563278198,-0.8108038902282715,-0.27864646911621094,0.3089103102684021,0.021375179290771484,-0.5281925201416016,0.6815756495094873,0.6004920298016135,-0.009278004028697395,0.41806446426978333,0.9455242240427243,-1.0746272960813574,1.6919449761956233
1773062934769478400,1.6485483646392822,1.6975213289260864,-2.857473850250244,-0.2618505358695984,-0.5213305950164795,-0.8145096898078918,-0.25453588366508484,0.12014651298522949,0.42118388414382935,-0.8904989361763,0.6793229642660926,0.6102542110642865,-0.017940505399054674,0.40717112768495967,0.9518835451384813,-1.1165986897778934,1.7028649045516275
1773062934779515392,1.6585853099822998,2.0637173652648926,-1.927721619606018,0.0026370431296527386,-0.5259631276130676,-0.8200548887252808,-0.22555011510849,-0.15888184309005737,0.6055315732955933,-1.0203146934509277,0.673237334165635,0.6218964654396477,-0.02167324507107599,0.39940782550370324,0.961506960312415,-1.1656839366798832,1.7332539774412647
1773062934789553152,1.6686232089996338,1.2650154829025269,-0.9585897326469421,0.16888421773910522,-0.5300197601318359,-0.8231154084205627,-0.20386281609535217,-0.42345619201660156,0.5096541047096252,-0.6801398992538452,0.6674831932076556,0.6304899028480863,-0.02347505031504052,0.39547131224930965,0.9668754965010385,-1.2036075987347177,1.7618402404400548
1773062934799590400,1.6786603927612305,0.18496085703372955,-0.1941533088684082,-0.07049162685871124,-0.5316527485847473,-0.8241982460021973,-0.19504514336585999,-0.6516205668449402,0.15264374017715454,-0.4070209264755249,0.6650135485182181,0.633953929614201,-0.024079972865564778,0.39405521553589906,0.9687849313892584,-1.2191761110970079,1.7741261872724938
1773062934809628160,1.6886982917785645,-0.8181074261665344,0.32021987438201904,-0.5432566404342651,-0.5291233062744141,-0.8251602649688721,-0.19783638417720795,-0.8164272904396057,-0.277180552482605,-0.33237603306770325,0.6665940347045202,0.6328695238893438,-0.023621532725341024,0.39315476007812694,0.9704858427980037,-1.2129950571344137,1.7671146392370127
1773062934819665152,1.698735237121582,-1.588320016860962,0.9268056750297546,-1.018611192703247,-0.5212023258209229,-0.8267938494682312,-0.21156610548496246,-0.7771680355072021,-0.5428960919380188,-0.11666572093963623,0.67216209728747,0.627503101090616,-0.0213730543483932,0.3924044234090468,0.9733837841737346,-1.1851974956912021,1.7413677812606851
1773062934829702400,1.7087724208831787,-1.7676808834075928,1.0712560415267944,-1.1318058967590332,-0.5097554922103882,-0.8287023305892944,-0.23108862340450287,-0.5986276865005493,-0.6353479623794556,-0.13745689392089844,0.6797958225029546,0.6197888708690565,-0.017816927769598357,0.3916912445210749,0.9767850844913681,-1.1451747245567334,1.7054207983086154
1773062934839740160,1.7188103199005127,-2.165640115737915,1.2542948722839355,-1.1748218536376953,-0.4976167678833008,-0.8298461437225342,-0.2524540424346924,-0.23187541961669922,-0.4328187108039856,-0.21574664115905762,0.6879175060319348,0.6112059002343323,-0.014153667041813155,0.3911477770981749,0.9788318647058392,-1.101304920910811,1.6661723928650323
1773062934849777152,1.7288472652435303,-3.5287492275238037,0.9175565242767334,-1.3762961626052856,-0.48417237401008606,-0.8282022476196289,-0.282237708568573,0.08408692479133606,-0.010909080505371094,-0.3758280873298645,0.6992639143995534,0.5989447088792953,-0.012098816242610123,0.3900625791371205,0.9758922348647364,-1.0430242345956524,1.609646252399806
1773062934859814144,1.7388842105865479,-3.1252434253692627,0.5598468780517578,-1.4540979862213135,-0.4696314036846161,-0.8249256610870361,-0.3145535886287689,0.2964136600494385,0.3319905400276184,-0.16222253441810608,0.7124846554943897,0.5853070031821554,-0.011786457174615728,0.386836372390462,0.9700706618113085,-0.9806357703798073,1.5432883760746303
1773062934869852416,1.748922348022461,-2.0937082767486572,0.3366315960884094,-0.46744152903556824,-0.45995330810546875,-0.8211737871170044,-0.33781149983406067,0.5005569458007812,0.4545508623123169,-0.22053813934326172,0.7220144130625251,0.5752739822370989,-0.01241375671407638,0.38418867346532115,0.9634647729696709,-0.9373234551786189,1.495520326085926
1773062934879889152,1.7589592933654785,-1.4906206130981445,0.8298018574714661,0.6195130348205566,-0.45888423919677734,-0.8144904971122742,-0.3550078570842743,0.7260961532592773,0.5636664628982544,-0.7079346179962158,0.7269295253682646,0.567712454996542,-0.014093823604998957,0.38610551248416825,0.9518504464269222,-0.9123410474869355,1.4719583522041362
1773062934889926144,1.768996238708496,-0.8989946246147156,1.4537898302078247,1.0420172214508057,-0.4617675244808197,-0.8061015009880066,-0.3700962960720062,0.6381896138191223,0.7232614159584045,-0.5550898313522339,0.728729505269796,0.5610126850399049,-0.014717859570634774,0.39243039319031686,0.9375344948391238,-0.8951550995437786,1.464940270888209
1773062934899964416,1.7790343761444092,-0.1942303329706192,1.9563184976577759,0.9434183835983276,-0.4634760320186615,-0.799294650554657,-0.382515549659729,0.3251703679561615,0.6713497042655945,-0.661918044090271,0.7283660974082277,0.5555077179544293,-0.012385514067774486,0.40092480717277684,0.9261205668258311,-0.8808065297376038,1.4685431431909963
1773062934910001152,1.7890713214874268,0.40556269884109497,2.3393759727478027,0.5761585831642151,-0.46129244565963745,-0.796226978302002,-0.39144864678382874,0.17934051156044006,0.5900806188583374,-0.7081760168075562,0.7265603267047289,0.5515742854813352,-0.0064404254971987445,0.4096762155104202,0.9210330002917464,-0.8671207805540354,1.478329786355753
1773062934920039168,1.7991092205047607,0.7433308959007263,2.909693956375122,0.3755246102809906,-0.4545193016529083,-0.7964367270469666,-0.3988744914531708,0.1578732132911682,0.5399364829063416,-0.6337335109710693,0.7240474243915243,0.5482275666072661,0.003047604164628658,0.4185602505069972,0.9213797239632964,-0.8505101446470877,1.4904951774869892
1773062934930076416,1.8091464042663574,0.9264300465583801,3.37125563621521,0.49406445026397705,-0.44517239928245544,-0.7979863286018372,-0.4062502384185791,0.23008453845977783,0.3848089575767517,-0.6812588572502136,0.7206561053372432,0.5446521467691415,0.015130253481610234,0.42869545952111987,0.9239465734272871,-0.8310806210572066,1.5057927310635308
1773062934940113408,1.819183349609375,0.4757626950740814,3.705857038497925,0.48353856801986694,-0.4346161484718323,-0.7987861633300781,-0.4159921109676361,0.3420105576515198,0.06259536743164062,-0.8540273904800415,0.7171366111267753,0.5396391644066297,0.028169389325067882,0.4401262815053722,0.9252749049687289,-0.8072896341155985,1.5206488091816481
1773062934950151168,1.829221248626709,-0.3680591881275177,3.7580394744873047,0.20035265386104584,-0.4214760661125183,-0.7974737882614136,-0.4317331612110138,0.3430459201335907,-0.2752496004104614,-0.7733907699584961,0.7155709556857286,0.5314766125233175,0.04081706413746227,0.45146960235705413,0.9230965954807073,-0.7733769588342561,1.5253419554251713
1773062934960188416,1.8392584323883057,-0.6457586884498596,3.622372627258301,-0.19663305580615997,-0.40505000948905945,-0.7950822114944458,-0.45141875743865967,0.29828426241874695,-0.5974196195602417,-0.5485202074050903,0.7161468293627492,0.5210522765914619,0.052869202829868026,0.461349325769423,0.9191431215564609,-0.731311529543761,1.5191285695638954
1773062934970225408,1.8492953777313232,-0.5037631392478943,3.4438910484313965,-0.5701602697372437,-0.385773241519928,-0.7937501668930054,-0.4702547490596771,0.26225337386131287,-0.8441585898399353,-0.320684552192688,0.7175304445510504,0.5105222338027636,0.06511277763125044,0.4693370901828546,0.9169500049939059,-0.68702658209978,1.507984981711126
1773062934980263168,1.8593332767486572,-0.19813130795955658,3.333493947982788,-0.9740651249885559,-0.36319002509117126,-0.7951754927635193,-0.4855809211730957,0.19842565059661865,-0.8671169281005859,-0.07084605097770691,0.7189911126780621,0.5010312515461532,0.078595304033243,0.47522852396871,0.9192969386850622,-0.6421875270455131,1.4944480077170754
1773062934990300160,1.8693702220916748,-0.6700181365013123,2.9942803382873535,-1.1390718221664429,-0.33891355991363525,-0.7970131039619446,-0.49990761280059814,0.17076170444488525,-0.7453147172927856,0.11825481057167053,0.7211797160260799,0.4915471105818563,0.09180215927063408,0.47943041104053263,0.9223334522762958,-0.5957751561642276,1.4761859709329745
1773062935000337408,1.8794074058532715,-1.4656214714050293,2.4129788875579834,-1.2950798273086548,-0.3153708875179291,-0.7955024838447571,-0.5174137353897095,0.21574628353118896,-0.7057639956474304,0.5553471446037292,0.7253741717999082,0.48049921925866723,0.10204716996455929,0.48222311720907246,0.9198363307431782,-0.5473857003125604,1.4497605364108925
1773062935010375168,1.8894453048706055,-2.247781991958618,1.7599056959152222,-1.6152318716049194,-0.29275649785995483,-0.7900780439376831,-0.5385817885398865,0.16592544317245483,-0.8576575517654419,0.9661483764648438,0.7322200527589472,0.46787801596086703,0.10862438061619471,0.48285062609176277,0.9109362800213406,-0.4978925356030773,1.4137240375129716
1773062935020412160,1.899482250213623,-2.3295326232910156,1.1216673851013184,-1.9070818424224854,-0.27093222737312317,-0.782021164894104,-0.5612830519676208,0.03054526448249817,-1.000815749168396,1.3342018127441406,0.7411602575085167,0.45469697701021994,0.11229041786384425,0.48096055723706793,0.8979022119702397,-0.4497133834677601,1.3707404080339811
1773062935030450432,1.9095203876495361,-1.4337832927703857,0.8237184286117554,-1.9964439868927002,-0.2500128149986267,-0.7762131094932556,-0.5787805318832397,-0.09358459711074829,-1.0191664695739746,1.3783258199691772,0.7497173073228125,0.4441023515313823,0.1156842129260201,0.476774916408283,0.8886369410541219,-0.407755066438785,1.3290764943659286
1773062935040487168,1.9195573329925537,-0.48533034324645996,0.6950992345809937,-1.784652590751648,-0.23084840178489685,-0.7753086686134338,-0.5878822803497314,-0.18550290167331696,-0.8014125227928162,1.1192238330841064,0.7558356011749348,0.43764854448844326,0.12050973781428637,0.4718620712146432,0.8872036422564765,-0.37417833825635016,1.2956062571798599
1773062935050524160,1.9295942783355713,-0.28381606936454773,0.5729109644889832,-1.760768175125122,-0.2133117914199829,-0.7774277925491333,-0.59169602394104,-0.2682250738143921,-0.3573530912399292,0.9163572788238525,0.7602524146847656,0.43388093326994603,0.12609252407304286,0.4667594858745347,0.890565916659544,-0.3460061836468633,1.2676464100380487
1773062935060562432,1.9396324157714844,-0.4307282865047455,0.43767938017845154,-1.8858208656311035,-0.1959487795829773,-0.7790579795837402,-0.595544159412384,-0.4396713078022003,0.027165889739990234,0.9318631291389465,0.7649735479756172,0.4301386369738716,0.13118183872576852,0.46107233901035466,0.8931618924372459,-0.31786785220385605,1.2380525044034807
1773062935070599424,1.949669361114502,-0.7299692630767822,0.16968296468257904,-1.8537935018539429,-0.17953579127788544,-0.7790555357933044,-0.6006990075111389,-0.5538321733474731,0.21477031707763672,0.9901947975158691,0.7703233140337984,0.42593829044184395,0.1350076968985776,0.45491911914367267,0.8931580055565438,-0.29042723882656063,1.2067194678708562
1773062935080636160,1.9597063064575195,-0.2711883783340454,0.1400877833366394,-1.6422722339630127,-0.16469816863536835,-0.7788277268409729,-0.605228841304779,-0.503652036190033,0.3040352463722229,0.9044383764266968,0.7754106555233848,0.4222545924782316,0.13815445475334667,0.4487234117562041,0.8927946503311293,-0.26569181692189164,1.1769525849500555
1773062935090674176,1.9697442054748535,0.3968829810619354,-0.04559792950749397,-1.1259396076202393,-0.15345294773578644,-0.7814800143241882,-0.6047654151916504,-0.34140485525131226,0.37738150358200073,0.6243271827697754,0.7783703605686859,0.42143720627826475,0.14144959256579484,0.443308373449906,0.8970344269449141,-0.24849520359404748,1.1554909936092947
1773062935100711424,1.9797813892364502,1.122359275817871,-0.16436560451984406,-0.5615859627723694,-0.1475621908903122,-0.7873488664627075,-0.5985876321792603,-0.1498316079378128,0.4749404191970825,0.42274540662765503,0.7786534914795215,0.4240601749672588,0.1444961618364413,0.4393091917334767,0.9064968492696004,-0.24169810598566657,1.1455081343333509
1773062935110749184,1.9898192882537842,2.1108415126800537,-0.16676589846611023,-0.5084441900253296,-0.14461934566497803,-0.7976038455963135,-0.5855880379676819,-0.16563762724399567,0.5510218143463135,0.18197780847549438,0.7764901856195691,0.4303425212727988,0.14836204730588806,0.4357258118746781,0.9233121763262435,-0.2421195033923155,1.1436254816083218
1773062935120786176,1.9998562335968018,2.4917702674865723,-0.14468668401241302,-0.5704076886177063,-0.14103162288665771,-0.8120781779289246,-0.5662499666213989,-0.3964439630508423,0.44759154319763184,-0.0937383770942688,0.7725968773585603,0.43943729159425515,0.15417483613036465,0.43153099238480824,0.9477046529876648,-0.24409610436409873,1.1443991714318391
1773062935130823424,2.0098934173583984,2.0714056491851807,-0.40085721015930176,-0.5038512945175171,-0.13807447254657745,-0.8256471157073975,-0.5470303893089294,-0.46035996079444885,0.21775227785110474,-0.20618915557861328,0.7688703576569791,0.4484575211619695,0.15928170111748183,0.4270286677129236,0.971348189996937,-0.2472430993220506,1.1449424720107766
1773062935140861184,2.0199313163757324,2.0140798091888428,-0.6331088542938232,-0.5776419043540955,-0.1365605592727661,-0.8371989130973816,-0.5295746922492981,-0.3585108518600464,-0.04135650396347046,-0.09133601188659668,0.7658714179896524,0.4568841931599823,0.16269447612075788,0.42217114971971453,0.9921412034113961,-0.2523703533836367,1.1446741193009817
1773062935150898176,2.02996826171875,2.382108211517334,-0.49678975343704224,-0.7445410490036011,-0.13399054110050201,-0.8494728803634644,-0.5103356242179871,-0.3740050494670868,-0.2503044009208679,-0.18706727027893066,0.7626967941462892,0.4659199380968317,0.16658568597591147,0.41648708235649823,1.014985419772447,-0.2567586105279076,1.1429643654292643
1773062935160935168,2.0400052070617676,3.0600645542144775,-0.46144533157348633,-0.8442718982696533,-0.12942643463611603,-0.8640764951705933,-0.4864366054534912,-0.46063095331192017,-0.27265745401382446,-0.4850599467754364,0.7583532805429105,0.4765376758790882,0.1723181366386849,0.4100226494963402,1.0433127982782708,-0.26004572464110337,1.1413420924187663
1773062935170973184,2.0500433444976807,3.771852970123291,-0.5914759039878845,-1.0678821802139282,-0.123678058385849,-0.8814682960510254,-0.4557602107524872,-0.5013829469680786,-0.1887068748474121,-0.8645523190498352,0.7523953672623575,0.4897499681163669,0.1796242360468341,0.40222049308759766,1.0789624634072519,-0.2649850662666563,1.1411157221103319
1773062935181010176,2.0600802898406982,4.111824035644531,-0.6377068161964417,-1.540692925453186,-0.1148189902305603,-0.9004496932029724,-0.41953185200691223,-0.5634799599647522,-0.1403675079345703,-1.0264673233032227,0.7456917444875455,0.504725275434057,0.18837851826954688,0.3920584320302841,1.1208023339748139,-0.26714194954724124,1.1363327132006609
1773062935191047168,2.070117235183716,4.351109504699707,-0.2100439965724945,-1.8637312650680542,-0.10094236582517624,-0.9193077087402344,-0.38037338852882385,-0.6288702487945557,-0.24184030294418335,-0.9308143854141235,0.7385790367202189,0.5196983344452943,0.1993162165989529,0.380378285802896,1.166317722930474,-0.25939800861327306,1.122838613791844
1773062935201085440,2.080155372619629,4.396397113800049,0.2418888509273529,-1.90962815284729,-0.083096444606781,-0.936967134475708,-0.3393927812576294,-0.610720694065094,-0.4193102717399597,-0.9079064130783081,0.7304712427457203,0.5338869147470167,0.21276366206529035,0.36892823798895624,1.213846947177217,-0.2401149867498479,1.1025060457535854
1773062935211122176,2.0901923179626465,3.9234776496887207,0.6169344782829285,-1.9059889316558838,-0.06360141187906265,-0.9517641067504883,-0.300166517496109,-0.5120211839675903,-0.4683713912963867,-0.8647657632827759,0.7222154882878198,0.5462199293062067,0.2270694398318408,0.3584522646178542,1.2589349644003196,-0.2087988871209821,1.0737313416577885
1773062935221160192,2.1002302169799805,4.092284202575684,1.0793261528015137,-1.5385773181915283,-0.04440334811806679,-0.9639121890068054,-0.26249125599861145,-0.4279782474040985,-0.3661049008369446,-0.8372249007225037,0.7133796424448081,0.5569670341687346,0.2419547298788112,0.34976442118471596,1.3013265928018984,-0.16757484260610367,1.0393946406537844
1773062935231197440,2.110267400741577,4.933117389678955,1.8610860109329224,-1.0105950832366943,-0.02852533385157585,-0.9752268195152283,-0.2193606197834015,-0.30191901326179504,-0.1893545389175415,-1.0386807918548584,0.7010434672373635,0.5687276991836154,0.2585894390007712,0.3438290494606123,1.3477440097304112,-0.12931290709629184,1.0152806327034003
1773062935241234176,2.1203043460845947,5.540617942810059,2.608513355255127,-0.5501585006713867,-0.016481811180710793,-0.9856579303741455,-0.1679496169090271,-0.23699718713760376,0.05539047718048096,-1.4742013216018677,0.6841600699788504,0.5821815337167472,0.2776505952850161,0.34044081628405254,1.4012291953977387,-0.09782222720903067,1.0059749339947013
1773062935251272192,2.1303422451019287,5.560288906097412,2.8712680339813232,-0.12903709709644318,-0.009409160353243351,-0.99358069896698,-0.11273369938135147,-0.3060052692890167,0.300679087638855,-1.6066418886184692,0.6641189123350884,0.5958755872276645,0.29759945593147097,0.33957760877476323,1.4574282302472432,-0.08327059819178721,1.0196625138936641
1773062935261309440,2.1403794288635254,5.073370933532715,2.6339786052703857,-0.3656618893146515,-0.005109371617436409,-0.9981887340545654,-0.059942036867141724,-0.33055347204208374,0.3597152829170227,-1.2999823093414307,0.6441405992797588,0.6082474487448766,0.3163289790932806,0.339195872150661,1.5105995351298314,-0.08503299449480166,1.0494471755212995
1773062935271346432,2.150416374206543,5.127615928649902,2.5122053623199463,-1.2847063541412354,0.0038538111839443445,-0.9999504089355469,-0.009185882285237312,-0.42549991607666016,0.14828115701675415,-0.8276060819625854,0.6257620942925518,0.6187516738636043,0.33548982816847145,0.33617672591748077,1.5608394380123012,0.3972337612697953,0.5925758402727206
1773062935281384192,2.160454273223877,5.017646789550781,2.3807101249694824,-2.0952181816101074,0.02075517550110817,-0.9988840222358704,0.04242708534002304,-0.41713273525238037,-0.11627405881881714,-0.5819931030273438,0.6083474839280324,0.6274463179637203,0.35710595091018993,0.3296966014132411,1.5235481893268097,2.6866252296812227,-1.6721191439530385
1773062935291421184,2.1704912185668945,4.0890021324157715,1.8327412605285645,-2.3467609882354736,0.04188951477408409,-0.9951367974281311,0.08915127068758011,-0.19261585175991058,-0.22506272792816162,-0.257257342338562,0.5935384305802961,0.6336938418375854,0.37816365446380307,0.321148622109657,1.472133495665166,2.7023381708530514,-1.6664592452457296
1773062935301458432,2.180528402328491,2.2421762943267822,1.1861015558242798,-2.266200304031372,0.06342829018831253,-0.9905142188072205,0.12189527601003647,0.13258612155914307,-0.19129425287246704,0.27112531661987305,0.5840916171623588,0.6362635880461606,0.3951155313590414,0.31287273055000037,1.4329498307274153,2.661797370059922,-1.6104063050417212
1773062935311496192,2.190566301345825,0.34200337529182434,0.4166288375854492,-2.002340078353882,0.08361251652240753,-0.9873104095458984,0.13500766456127167,0.3040980398654938,-0.1434420943260193,0.6792776584625244,0.5817151607112725,0.6343226330431946,0.4063725222071605,0.3067631328898836,1.4113188805542745,2.5870905424493,-1.5263089918354535
1773062935321533184,2.2006032466888428,-0.5770308375358582,-0.44354555010795593,-1.4600454568862915,0.10082867741584778,-0.9859834909439087,0.13292951881885529,0.26898330450057983,-0.08352035284042358,0.6775867938995361,0.5851173581829284,0.6302497109020251,0.4114001227608256,0.3019485919026947,1.403169362508812,2.492665866875566,-1.43114209946299
1773062935331571456,2.210641384124756,-0.40379971265792847,-0.01793287880718708,-1.4061235189437866,0.11495775729417801,-0.9851589798927307,0.12746155261993408,0.1794452965259552,0.009237408638000488,0.5240124464035034,0.5894659995198817,0.6262890705687295,0.4141168600393605,0.2979916775495858,1.3982977836679178,2.4077280122125253,-1.3480011420804279
1773062935341607936,2.2206780910491943,-0.16559381783008575,-0.06902269273996353,-1.7715076208114624,0.13054560124874115,-0.9835823178291321,0.1245943158864975,0.020531684160232544,0.0685889720916748,0.3183072805404663,0.5926944541289423,0.6220975563247396,0.4186786228542367,0.29396626676123566,1.389342230860329,2.332873143112698,-1.2717979510258393
1773062935351644928,2.230715036392212,0.3646504580974579,-0.11484703421592712,-1.900816798210144,0.14923621714115143,-0.9808722734451294,0.1249726191163063,-0.19215919077396393,0.1424170732498169,0.2635314464569092,0.5955568898856204,0.6185130645934988,0.4241790862819822,0.2877945165995194,1.3748931519570615,2.267938503792442,-1.207166862510762
1773062935361683200,2.240753173828125,1.1826167106628418,0.27304956316947937,-1.3313777446746826,0.16537153720855713,-0.9772626161575317,0.13270363211631775,-0.17420634627342224,0.23899656534194946,0.20216573774814606,0.5953443289023772,0.6171638996363737,0.43065129297556676,0.28144879037768983,1.3571420981118953,2.247033929302052,-1.1849835116078435
1773062935371720192,2.2507901191711426,1.6533094644546509,0.45902717113494873,-0.6229901909828186,0.174315944314003,-0.9735956788063049,0.14739558100700378,0.0002903938293457031,0.43230539560317993,0.06485414505004883,0.5914710746503371,0.618870256899551,0.4366891256275995,0.27652163863962936,1.3404864224442856,2.2727104006047347,-1.2077342332892285
1773062935381756928,2.26082706451416,2.115527868270874,0.37456074357032776,-0.3802396357059479,0.17804618179798126,-0.9699071645736694,0.16607226431369781,0.09401808679103851,0.6442692279815674,0.12776626646518707,0.5853636455356969,0.6226102464487098,0.44203236545653607,0.27260487697935537,1.3248492252528503,2.3214126184572312,-1.252972619032499
1773062935391795200,2.2708652019500732,3.335833787918091,0.2713511288166046,-0.7361409068107605,0.18284358084201813,-0.963965892791748,0.19323116540908813,0.040651917457580566,0.7495187520980835,0.07306531071662903,0.5768020706303714,0.6289357299886394,0.44839204904490665,0.2658644816538369,1.3015283889747966,2.383808529456297,-1.3142113011510177
1773062935401832192,2.280902147293091,4.471362113952637,-0.16681024432182312,-0.9622134566307068,0.19089874625205994,-0.9540097713470459,0.23113436996936798,0.08922210335731506,0.8191983699798584,-0.012277603149414062,0.5652345617437912,0.6380710481347165,0.45654410975948645,0.25483860791459106,1.2663389202893316,2.4512448163326286,-1.3834114981581658
1773062935411869952,2.290940046310425,5.275932312011719,-1.1399779319763184,-0.8588087558746338,0.2014484405517578,-0.9396629929542542,0.2764996290206909,0.3417339324951172,0.8755455613136292,0.10916626453399658,0.5519969387879968,0.6504143243983639,0.4639084223516994,0.23885053060538328,1.2216438160854193,2.511950517087837,-1.4541241114349963
1773062935421907200,2.3009772300720215,5.4273834228515625,-1.760515809059143,-0.31187695264816284,0.2117943912744522,-0.9221189618110657,0.323790043592453,0.48296883702278137,0.7718350887298584,0.303864985704422,0.5384825860860307,0.6655842150493765,0.4678596704388176,0.2194118867825938,1.173521913212356,2.5623333774873607,-1.525001447016671
1773062935431944192,2.311014175415039,5.22761869430542,-1.112246036529541,0.22850453853607178,0.2167956829071045,-0.9034606218338013,0.3698090612888336,0.4321300983428955,0.5430480241775513,0.5470610857009888,0.5237301710404572,0.6813454247689441,0.4697583823364456,0.20199563155610484,1.1277749079802684,2.6113546209621323,-1.5942841888852455
1773062935441981952,2.321052074432373,4.601707458496094,-1.006967544555664,-0.08916265517473221,0.2195475548505783,-0.8844184875488281,0.4118286967277527,0.1504628211259842,0.3510017395019531,0.6225341558456421,0.5089231489569118,0.6953396025645344,0.4716112642495163,0.18730432347934584,1.0852465349341354,2.651813839811357,-1.6505047960196257
1773062935452019200,2.3310892581939697,4.218501091003418,-1.3629511594772339,-0.47315743565559387,0.22786450386047363,-0.8647468686103821,0.44753846526145935,-0.17090344429016113,0.15152055025100708,0.7553728818893433,0.4967582930137166,0.7067611421223524,0.4735587800799828,0.1716449767814745,1.0446461557143696,2.6706513427136858,-1.6864376021205143
1773062935462056192,2.3411262035369873,3.568244218826294,-1.2699940204620361,-0.42639073729515076,0.23761677742004395,-0.8453025817871094,0.47854146361351013,-0.04741595685482025,-0.039615631103515625,0.819844126701355,0.4860498701991689,0.7166010884745375,0.47513536763915737,0.15647631116522412,1.0071312587376036,2.6807138668894614,-1.7135332261236278
1773062935472093952,2.3511641025543213,2.165442943572998,-1.4730291366577148,-0.5141500234603882,0.24858568608760834,-0.8299328684806824,0.49941638112068176,0.020365744829177856,-0.22342711687088013,0.8302345275878906,0.4793091251365598,0.723465330130685,0.475716407875133,0.14336882718716387,0.9789873499267489,2.6797447689390674,-1.729045506171055
1773062935482130944,2.361201047897339,0.7665099501609802,-1.3978296518325806,-0.03587719425559044,0.25837284326553345,-0.8217825293540955,0.5078548192977905,-0.11460459232330322,-0.6054481267929077,0.9475588798522949,0.4776342577592476,0.7272389200628431,0.4743953678149956,0.13393268505996708,0.9645323423675133,2.670966921373565,-1.7358633700884962
1773062935492169216,2.371239185333252,-0.4242049753665924,-1.5202161073684692,0.413862943649292,0.26394641399383545,-0.8217013478279114,0.5051132440567017,0.0060578882694244385,-0.8380582928657532,0.8078750967979431,0.48045846327058245,0.7290213014552606,0.47019630858702044,0.12885300478325962,0.9643898308208912,2.6600690072607347,-1.7403159572010232
1773062935502206208,2.3812761306762695,-0.678992509841919,-1.5432791709899902,0.49242061376571655,0.267926961183548,-0.8260680437088013,0.49580955505371094,0.1114523708820343,-0.7237825393676758,0.5721684098243713,0.48609481092345025,0.7296085006486358,0.46430184833387783,0.12572666792606,0.9720947448040966,2.64616306272271,-1.742462462846692
1773062935512242944,2.391313076019287,-0.5044848918914795,-1.693274974822998,0.28054800629615784,0.2724054157733917,-0.830071210861206,0.48659783601760864,0.09261536598205566,-0.3199228048324585,0.2023518681526184,0.49169812652753153,0.7301388276618759,0.4584715998169292,0.12220541539845713,0.9792353706026937,2.6312441582384647,-1.7439410142399723
1773062935522281216,2.4013512134552,-0.30868449807167053,-1.7987638711929321,-0.3652762770652771,0.2812471389770508,-0.8320704698562622,0.47807806730270386,-0.02554038166999817,0.14754599332809448,-0.06279495358467102,0.4973446146963181,0.7300247319578215,0.45398560361033174,0.11665867743563174,0.9828300752528804,2.609830120193793,-1.739425221470195
1773062935532318208,2.4113881587982178,0.24837251007556915,-1.507784128189087,-0.7491081953048706,0.29393041133880615,-0.8305172324180603,0.47312355041503906,-0.21566811203956604,0.3627743721008301,-0.07946211099624634,0.5015098641348457,0.7296086315292452,0.4519214779469168,0.10920631784222222,0.9800356224277855,2.585690845275028,-1.7303788825344029
1773062935542354944,2.4214251041412354,0.3373394012451172,-1.2717596292495728,-1.2712163925170898,0.3086320459842682,-0.8259788751602173,0.47170472145080566,-0.2223588228225708,0.40581274032592773,-0.1622106432914734,0.503942318042698,0.728931067005517,0.452229879296364,0.1009447398822982,0.9719365172831447,2.5622070104689887,-1.7186835809276502
1773062935552393216,2.4314632415771484,0.08618631213903427,-1.4445717334747314,-1.8415827751159668,0.32813817262649536,-0.8198754191398621,0.46917957067489624,-0.18075355887413025,0.24651122093200684,-0.0780663788318634,0.506993683005965,0.7265272562994153,0.4546954300712356,0.09147437788982495,0.9611933975529038,2.5312781206296138,-1.6976225807283973
1773062935562430208,2.441500186920166,-0.3813566565513611,-1.304579734802246,-1.7354233264923096,0.349727600812912,-0.8142497539520264,0.4633446931838989,-0.1161460280418396,-0.12572234869003296,0.03165048360824585,0.5114739603067916,0.7226121571805367,0.4577160891608557,0.0819887410150086,0.9514356083382954,2.495033458804194,-1.6704953966733447
1773062935572467200,2.4515371322631836,-1.0348901748657227,-1.0427305698394775,-1.2485480308532715,0.3672279417514801,-0.8120945692062378,0.4534826874732971,0.07518550753593445,-0.46598178148269653,0.1580134630203247,0.5172501270957057,0.7178246562059886,0.45985770533639025,0.07557205389539752,0.9477327116261894,2.460907716526963,-1.6427776885942602
1773062935582504960,2.4615750312805176,-1.6770744323730469,-1.3261511325836182,-1.060898780822754,0.3815477788448334,-0.8139828443527222,0.43801048398017883,0.20513737201690674,-0.5952273607254028,0.25373145937919617,0.5252222686039439,0.7120722821465941,0.46038929886676005,0.0716680306122338,0.9509759787101385,2.4249798584512345,-1.6127555284912487
1773062935592542208,2.4716122150421143,-2.0056312084198,-1.8015284538269043,-1.2077937126159668,0.39753666520118713,-0.8176099061965942,0.4165079593658447,0.15979069471359253,-0.4755268096923828,0.25962430238723755,0.5359208926286766,0.7050711000639801,0.45948745649344985,0.06734157338719979,0.9572475518222672,2.3794952559331732,-1.576563021923687
1773062935602579968,2.4816501140594482,-1.90404212474823,-1.7021496295928955,-1.3976510763168335,0.4155592620372772,-0.8203094601631165,0.39294135570526123,-0.02597188949584961,-0.20257872343063354,0.2778349816799164,0.5474311062990525,0.6972689511095386,0.4585702578335218,0.062036317220580645,0.9619518752178555,2.328226655725166,-1.5359329683242762
1773062935612616960,2.491687059402466,-1.603306531906128,-1.4631596803665161,-1.5630767345428467,0.43372854590415955,-0.8207498788833618,0.3718187212944031,-0.17872366309165955,0.07316076755523682,0.33545660972595215,0.5575780748583545,0.6894617651451131,0.4588592832264903,0.056544978093500106,0.9627224387744662,2.2794909183402794,-1.495649119579452
1773062935622654208,2.5017242431640625,-1.4819012880325317,-1.5003345012664795,-1.8154332637786865,0.4529479742050171,-0.8187716603279114,0.35277655720710754,-0.24954825639724731,0.21630877256393433,0.31145384907722473,0.5666461116708877,0.6816779763488072,0.4601124016630396,0.05023913540731016,0.9592682014937726,2.232504525456008,-1.4563152624896334
1773062935632692224,2.5117621421813965,-1.6458220481872559,-1.5238832235336304,-1.9813696146011353,0.4739188253879547,-0.8152362704277039,0.33285272121429443,-0.2533529996871948,0.22464483976364136,0.31085455417633057,0.5759442655887109,0.6731365097371719,0.4618588504547392,0.04314956467642509,0.9531370048810286,2.183091846551919,-1.4146693610051004
1773062935642728960,2.521799087524414,-1.7688968181610107,-1.3084263801574707,-1.8265682458877563,0.4942416548728943,-0.8114019632339478,0.31201350688934326,-0.195520281791687,0.1705479621887207,0.3746930658817291,0.5853582702070209,0.6639769860924104,0.4638332802969472,0.036729913319478384,0.946546734154724,2.1339113352966126,-1.3717546930563118
1773062935652765952,2.5318360328674316,-1.9131805896759033,-1.092707633972168,-1.5936557054519653,0.5116800665855408,-0.8083832859992981,0.2910323739051819,-0.11617231369018555,0.14813554286956787,0.32211145758628845,0.594523623202902,0.654780155076798,0.4655954672958183,0.03202217625660985,0.941400490383749,2.0879420854265205,-1.3298345111236778
1773062935662804224,2.5418741703033447,-2.202500820159912,-0.5871407985687256,-1.6317138671875,0.5270457863807678,-0.8058508634567261,0.2698654234409332,-0.12410688400268555,0.24010074138641357,0.24240267276763916,0.6035019674477651,0.6450067646878463,0.467866413475857,0.029201884783445195,0.9371110508503017,2.0440248103865932,-1.2862389495455357
1773062935672840960,2.5519111156463623,-1.9687469005584717,-0.010807456448674202,-1.758725643157959,0.5414817929267883,-0.8023066520690918,0.25119948387145996,-0.19881528615951538,0.39389002323150635,0.17607706785202026,0.6112327828445977,0.6345248061621248,0.47220547877815017,0.028188944648150766,0.9311495888433864,2.0051584445786013,-1.2412528622868035
1773062935682879232,2.5619492530822754,-1.22573983669281,-0.05804474651813507,-1.8785876035690308,0.5560020804405212,-0.7962676882743835,0.2383686900138855,-0.19618463516235352,0.5303375124931335,-0.13277781009674072,0.6165336471628181,0.6252295755850119,0.4777785258270413,0.02649504024845735,0.9211002031705187,1.975812802933043,-1.2043139387442294
1773062935692916224,2.571986198425293,-0.42954376339912415,-0.5916128158569336,-2.0895767211914062,0.5725129246711731,-0.7870253920555115,0.2298259735107422,-0.1325867772102356,0.6215590834617615,-0.4626140594482422,0.6201877139371398,0.6179149885109997,0.48279815360048034,0.021312020612093727,0.9059723289326582,1.9525380341198357,-1.1792050841644612
1773062935702953216,2.5820231437683105,0.4537407457828522,-0.568124532699585,-2.04288911819458,0.5904388427734375,-0.7746323943138123,0.22655445337295532,-0.09104907512664795,0.654621958732605,-0.42311808466911316,0.6217399483376215,0.612966901777965,0.4873897831481847,0.01274175660410755,0.8861336584566476,1.9371770126722223,-1.1674537218957335
1773062935712990976,2.5920610427856445,1.10761559009552,-0.4680611491203308,-1.698790431022644,0.6058443188667297,-0.7617390155792236,0.22957934439182281,0.02869248390197754,0.6233721971511841,-0.34443220496177673,0.6206429012785137,0.6108287382435054,0.4916074904449494,0.0035861623487422425,0.8659930327201512,1.9330177593234528,-1.168360504218019
1773062935723028224,2.602098226547241,1.6698237657546997,-0.9340011477470398,-1.6188054084777832,0.6199135184288025,-0.7483203411102295,0.2360587865114212,0.11144024133682251,0.48799020051956177,-0.3492943346500397,0.6179963162965885,0.6111601433658321,0.4944822241863414,-0.007147966186497826,0.8455263297830048,1.9346361840633217,-1.1797021366387326
1773062935733065216,2.612135171890259,1.5551711320877075,-1.2658628225326538,-1.7915390729904175,0.6352073550224304,-0.7336750626564026,0.2413138598203659,0.028046369552612305,0.24031269550323486,-0.2651175260543823,0.6155848277803373,0.6120014891174236,0.49609586353404705,-0.01995843702363582,0.8237147588305862,1.9338539996477904,-1.193851286043045
1773062935743102976,2.6221730709075928,0.8824867606163025,-1.0826090574264526,-1.9041519165039062,0.651710033416748,-0.7186033129692078,0.24265889823436737,-0.12622785568237305,-0.014322102069854736,-0.08578324317932129,0.6145024643441094,0.6110516153588601,0.49794113646138816,-0.03251600914892687,0.8017918461598333,1.9272345105266628,-1.2013475352573812
1773062935753140224,2.6322102546691895,-0.09305854886770248,-0.7239065170288086,-1.6518760919570923,0.6667664647102356,-0.7056727409362793,0.23968374729156494,-0.22549766302108765,-0.2526249885559082,0.13034185767173767,0.6151473193231762,0.6076421259531687,0.5006125476979104,-0.04185486225057479,0.7833721333636904,1.9158842328741301,-1.198039423418438
1773062935763177984,2.6422481536865234,-1.0018407106399536,-0.4069424271583557,-1.1603087186813354,0.6780486106872559,-0.6975137591362,0.23178556561470032,-0.22281795740127563,-0.3602864742279053,0.27822422981262207,0.6180173321705846,0.6021771075346356,0.5032648557836316,-0.046494440156056,0.7719219542984301,1.90018514659267,-1.1837972519150612
1773062935773214976,2.652285099029541,-1.3509633541107178,0.005584699101746082,-0.7390272617340088,0.6850888729095459,-0.693839967250824,0.2218988537788391,-0.22808820009231567,-0.27568817138671875,0.24367734789848328,0.6219662508467042,0.5959898912837501,0.5057128419513344,-0.046994282301953356,0.7668077876506729,1.8840311047841745,-1.1636335959980202
1773062935783251968,2.6623220443725586,-1.3440861701965332,0.5085152387619019,-0.44341978430747986,0.6885949373245239,-0.6927732229232788,0.21424822509288788,-0.2714501619338989,-0.06079733371734619,-0.029723644256591797,0.6252124470135619,0.5902780792605504,0.5086215685745658,-0.04455687371067868,0.7653275229757955,1.8724401037004916,-1.143015979707841
1773062935793290240,2.6723601818084717,-0.8886873126029968,0.7957491278648376,-0.14851412177085876,0.6892063617706299,-0.6931416988372803,0.21106740832328796,-0.24752533435821533,0.22706198692321777,-0.22908803820610046,0.6267534797565135,0.5861017128492156,0.5118774161280002,-0.04057697339359385,0.7658385961498885,1.8679744548693165,-1.1267154057543245
1773062935803326976,2.6823971271514893,-0.45102745294570923,1.0830678939819336,-0.08457189798355103,0.6878203749656677,-0.6939792037010193,0.21282856166362762,-0.17073053121566772,0.4879092574119568,-0.40553176403045654,0.6263032910782904,0.5840215046935147,0.5151050044816494,-0.036468246890552426,0.7670011815369399,1.8708769793006024,-1.117701593243421
1773062935813363968,2.692434072494507,0.27964064478874207,1.2305834293365479,-0.23056025803089142,0.6862987279891968,-0.6931297779083252,0.22037450969219208,-0.10521364212036133,0.6790154576301575,-0.3532327711582184,0.6234694889852981,0.5834740882347461,0.5193700468784386,-0.033142846528736954,0.7658220539928855,1.8815020446689232,-1.1155661094659526
1773062935823402240,2.70247220993042,1.5385304689407349,0.7235692143440247,-0.3029252886772156,0.6859347224235535,-0.6891239285469055,0.23367047309875488,-0.011618316173553467,0.688711941242218,-0.5994389057159424,0.6181019383037524,0.5857155477380139,0.523232771147349,-0.03338850782817647,0.7602793590874494,1.899126260226661,-1.1262297530153433
1773062935833439232,2.7125091552734375,2.1031060218811035,0.33206215500831604,-0.376650869846344,0.6872010827064514,-0.6820811629295349,0.2500401437282562,0.11475515365600586,0.47056376934051514,-1.2307378053665161,0.6111663939218426,0.5908094517872312,0.5253230037181594,-0.0381523527749058,0.7506047814186873,1.9197586028844962,-1.1496105857794279
1773062935843476992,2.7225470542907715,1.2159665822982788,0.5713714361190796,-0.3179510831832886,0.6884514093399048,-0.6752327680587769,0.2647554874420166,0.1365455985069275,0.22294700145721436,-1.239563226699829,0.604832023542413,0.595196710933709,0.5273695209941972,-0.042432558450870614,0.7412802540133162,1.937927742197487,-1.1698483649589706
1773062935853514240,2.732584238052368,0.529570460319519,0.8957347273826599,-0.11401034891605377,0.6878759264945984,-0.671553909778595,0.2753949463367462,0.07114207744598389,-0.02027958631515503,-0.6455426216125488,0.6003796753354435,0.5972205922328522,0.5301179420057153,-0.04297559790221293,0.7363040094153023,1.9516091777219107,-1.1789592312069759
1773062935863551232,2.7426211833953857,0.526871383190155,0.9272790551185608,-0.15670187771320343,0.6861604452133179,-0.6692522764205933,0.28510570526123047,0.03971540927886963,-0.33508121967315674,-0.45211315155029297,0.596387294222455,0.5986843740334759,0.5330383427677491,-0.042063776508893536,0.733202048020135,1.9646004658630674,-1.1849806205622424
1773062935873588992,2.7526590824127197,-0.26981544494628906,1.2780131101608276,-0.6409755945205688,0.6854681372642517,-0.6661675572395325,0.2938609719276428,-0.10595458745956421,-0.5522467494010925,-0.5916056632995605,0.5928188778633018,0.598517022047669,0.5373154183426478,-0.04043885011838904,0.729058212529518,1.9757976935173356,-1.185519485779221
1773062935883626240,2.7626962661743164,-0.6227849721908569,1.8950719833374023,-1.1270365715026855,0.686805248260498,-0.6614927649497986,0.30120760202407837,-0.32215070724487305,-0.4477296471595764,-0.2725057601928711,0.589940063218409,0.5947891549953105,0.5448207593286692,-0.036972821472896725,0.7228075225733296,1.9840989180525312,-1.1741629701568592
1773062935893663232,2.772733211517334,0.7214522361755371,2.086909294128418,-1.2778100967407227,0.6885706782341003,-0.6534410715103149,0.31446021795272827,-0.40808361768722534,-0.2512372136116028,-0.002494215965270996,0.5844712853958804,0.5913617137404245,0.5545461515856113,-0.034106091714209946,0.7121213817076062,1.9991959612690344,-1.1658065331098297
1773062935903700992,2.782771110534668,2.3713743686676025,2.3439390659332275,-1.1158323287963867,0.6896612048149109,-0.6390924453735352,0.3404819071292877,-0.30129462480545044,-0.08341115713119507,-0.3948489725589752,0.5730887605081465,0.5934504206832425,0.5639659092469059,-0.03644464644737584,0.6933177240178073,2.02938675545588,-1.1800054398517523
1773062935913737984,2.7928080558776855,1.2664363384246826,2.966808319091797,-0.9575612545013428,0.6860531568527222,-0.6258610486984253,0.37098392844200134,-0.09202843904495239,0.03780257701873779,-1.2641419172286987,0.5596338504523438,0.5964233836766545,0.574257011895625,-0.03630462094376152,0.6762350642597743,2.0665108526468687,-1.195446831313043
1773062935923776256,2.8028461933135986,0.26269862055778503,2.351886510848999,-0.901495635509491,0.6814813613891602,-0.616355836391449,0.394573837518692,-0.03980356454849243,0.12862396240234375,-0.5736204385757446,0.5492074649645441,0.5961860320103928,0.5846786646323423,-0.032927315105048954,0.6641065824952395,2.0956272628317243,-1.1978041274780193
1773062935933812992,2.812883138656616,-0.6898373365402222,1.7504619359970093,-0.7396831512451172,0.6786481142044067,-0.6115932464599609,0.40668198466300964,-0.130109965801239,0.07448387145996094,-0.0985918641090393,0.5439046372895278,0.5935451062064122,0.5924906755362527,-0.028752049424832914,0.6580727845036602,2.1106664469381435,-1.1903974441683434
1773062935943849984,2.822920083999634,-0.7879681587219238,2.040400266647339,-0.8717852234840393,0.6754714846611023,-0.6094837784767151,0.41505178809165955,-0.09855186939239502,-0.06960862874984741,-0.25880181789398193,0.5403303734123619,0.589257619931641,0.6002510702197114,-0.022743632840580334,0.6554093162826133,2.121782075517651,-1.176560154341006
1773062935953888256,2.832958221435547,-1.2770658731460571,1.6067754030227661,-0.9095398783683777,0.6735257506370544,-0.6075009107589722,0.4210768938064575,-0.27478307485580444,-0.12234222888946533,-0.16671288013458252,0.5377529736768575,0.583880685053653,0.6079652947428422,-0.016831740114647407,0.6529106014054956,2.1295272923734028,-1.1594546380653454
1773062935963925248,2.8429951667785645,-1.8446308374404907,1.6526201963424683,-0.6081552505493164,0.6713254451751709,-0.6090668439865112,0.4223262667655945,-0.39428699016571045,-0.053881704807281494,0.47635528445243835,0.5373531259880092,0.5774810703472953,0.6145557314999783,-0.009401652576538593,0.6548834856703772,2.1323336518049154,-1.1377058940612768
1773062935973961984,2.853032112121582,-2.5401554107666016,2.06833815574646,-0.6330637335777283,0.6672178506851196,-0.6141207814216614,0.421516478061676,-0.29890120029449463,0.028625845909118652,0.6859817504882812,0.5378111400850046,0.5697927424608563,0.621365001609373,0.0009970284212694077,0.6612714680628453,2.13423656819912,-1.1103702691151394
1773062935984000256,2.863070249557495,-3.1756961345672607,1.6188021898269653,-0.6827591061592102,0.6631574034690857,-0.6219472289085388,0.41641825437545776,-0.21471679210662842,0.10580337047576904,0.7603091597557068,0.5399990087526446,0.5597515800384468,0.628400581955223,0.013857896447816211,0.6712269343584925,2.1315017858273415,-1.074352756025015
1773062935994037248,2.8731071949005127,-2.652247428894043,0.07033547013998032,-0.2633935809135437,0.6628606915473938,-0.6308115720748901,0.4033519923686981,-0.03601431846618652,0.21069127321243286,0.9304798245429993,0.545651609881292,0.5499452166425516,0.6318514518594209,0.024257732685689735,0.6825986691645914,2.117443801346759,-1.0382820229442586
1773062936004073984,2.8831441402435303,-1.7752660512924194,-0.29763880372047424,0.4322962760925293,0.6632336974143982,-0.640086829662323,0.3878270983695984,0.2206164002418518,0.21702170372009277,0.5401209592819214,0.552394354765232,0.54424408094468,0.6306440572688561,0.030771820423569022,0.6946112980890375,2.0999284706056613,-1.0144924328430662
1773062936014112000,2.8931820392608643,-1.4737576246261597,0.16338098049163818,0.9403792023658752,0.6588489413261414,-0.6508673429489136,0.37721338868141174,0.29841119050979614,0.15391910076141357,-0.022843241691589355,0.5567538640231513,0.542013587486607,0.6283533811111982,0.03766273066392089,0.7087263127227321,2.090775358468242,-1.0009191402870783
1773062936024149248,2.903219223022461,-1.3538110256195068,0.13207632303237915,1.107016921043396,0.6513091325759888,-0.6630849242210388,0.3689376413822174,0.06164252758026123,0.09908956289291382,0.01147925853729248,0.5598778201620689,0.5413528904428332,0.6256243798001796,0.04547616382736747,0.7249325382312962,2.0861854778551927,-0.9915662825738965
1773062936034187008,2.913257122039795,-1.024020791053772,0.7177886366844177,0.8586580753326416,0.6433184742927551,-0.6739816069602966,0.3631671071052551,-0.15135979652404785,0.02005094289779663,0.15715765953063965,0.5617851805318725,0.5409692665875346,0.6236471786044313,0.05304647085458843,0.7395852826815116,2.084720077045785,-0.9839436715348957
1773062936044224000,2.9232940673828125,-0.7370124459266663,1.546520709991455,0.47984981536865234,0.6344571709632874,-0.6813442707061768,0.36501288414001465,-0.2582058906555176,-0.11011391878128052,0.10648372769355774,0.5601798676723297,0.5403627596145233,0.6249116222185113,0.06076347215417682,0.7495976068580236,2.0928674946155983,-0.9784993601943027
1773062936054261248,2.933331251144409,-1.2445433139801025,1.2194547653198242,0.3351999521255493,0.6264793872833252,-0.6873084306716919,0.367601603269577,-0.22607338428497314,-0.13649839162826538,0.3361795246601105,0.5580923916177986,0.5384035530668358,0.6276323865532406,0.0687907341669399,0.7577770065175583,2.1014338143211586,-0.9697251289527397
1773062936064299008,2.943369150161743,-1.7883011102676392,0.20391283929347992,0.47667479515075684,0.6210007071495056,-0.6954174637794495,0.36159729957580566,-0.047285497188568115,-0.06486690044403076,0.8206231594085693,0.5597433941521559,0.5350872948370046,0.6280766194965594,0.07673771379446341,0.7690007025900338,2.098085714676673,-0.9541256747002093
1773062936074336000,2.9534060955047607,-2.024562358856201,-1.2467492818832397,0.6475458145141602,0.6187663674354553,-0.7058569192886353,0.34481045603752136,0.15984386205673218,-0.03959590196609497,0.9571762084960938,0.5662919192655906,0.5315891540528888,0.6243542299086587,0.08311600399217929,0.7836321822247702,2.0791922899638333,-0.9343410380800065
1773062936084372992,2.9634430408477783,-1.3528913259506226,-2.434458017349243,0.7498676776885986,0.6200889945030212,-0.7160359025001526,0.32059726119041443,0.2226845622062683,-0.15418821573257446,0.8764853477478027,0.5765331721036769,0.5295797208157027,0.6163148149400938,0.08550448375872487,0.7981069602236956,2.047965582682587,-0.9171743387525492
1773062936094411008,2.9734811782836914,-0.7897422313690186,-2.561707019805908,0.6864634156227112,0.622708797454834,-0.7237499952316284,0.29735493659973145,0.1599603295326233,-0.36977118253707886,0.40599897503852844,0.5867551270824476,0.5300141946758387,0.6064341883700696,0.08391090363499536,0.8092212005702594,2.0162974891255185,-0.9089625557006331
1773062936104448000,2.983518123626709,-1.3318963050842285,-2.081214666366577,0.46646422147750854,0.625190019607544,-0.7302649617195129,0.27540984749794006,0.003929853439331055,-0.5449730157852173,-0.14555752277374268,0.5962285826887047,0.5297136818742391,0.5975854211651643,0.0825021069454535,0.8187097539940774,1.9857402879857329,-0.8990053582057597
1773062936114486272,2.993556261062622,-2.0046019554138184,-1.7284845113754272,0.28857678174972534,0.6274282336235046,-0.737151563167572,0.2508810758590698,-0.22729706764221191,-0.659576952457428,-0.21412265300750732,0.606261003607538,0.5264656593602666,0.5901478162651576,0.08370817047693085,0.8288452789102768,1.9511787199846868,-0.8778606469763507
1773062936124523264,3.0035932064056396,-2.137810468673706,-1.4029921293258667,-0.025274349376559258,0.6300883889198303,-0.7430338263511658,0.22558702528476715,-0.38994550704956055,-0.788658618927002,-0.08493149280548096,0.6162685489933908,0.5212131214555573,0.5840636897085232,0.08613730001865025,0.8375922010371984,1.914601880762615,-0.8497251017241055
1773062936134560000,3.0136301517486572,-2.43626070022583,-0.9670350551605225,-0.5725117325782776,0.6348171830177307,-0.7460481524467468,0.20104610919952393,-0.48413658142089844,-0.8429258465766907,-0.013332456350326538,0.625775063940643,0.5137925520747506,0.5801209094598546,0.08878411749518823,0.842107555683101,1.8775022500484313,-0.8159181709837879
1773062936144598016,3.023668050765991,-3.1133110523223877,-0.6563860774040222,-1.0428180694580078,0.6424931287765503,-0.7459932565689087,0.17520473897457123,-0.5343235731124878,-0.7146543264389038,0.11414766311645508,0.6355319314693096,0.5030080219930456,0.5784334888260363,0.09217823543542072,0.8420251075723734,1.8370184542023724,-0.7724191908644714
1773062936154635264,3.033705234527588,-3.538527727127075,-0.46156105399131775,-1.1102874279022217,0.6516741514205933,-0.7441940903663635,0.14661593735218048,-0.504747211933136,-0.45093536376953125,0.14038659632205963,0.6459849560370179,0.48931168949453563,0.5778252669360793,0.09693075661721076,0.8393274673886295,1.7920950714183062,-0.7195953724552703
1773062936164672256,3.0437421798706055,-3.8778014183044434,-0.4570525884628296,-0.902529776096344,0.6597803831100464,-0.7424488663673401,0.11601576209068298,-0.3723199963569641,-0.1644572615623474,0.05805647373199463,0.6567525511822967,0.4745086986682075,0.5769309982808037,0.10328730176306726,0.8367185800940955,1.744856893657691,-0.6621189929348955
1773062936174710016,3.0537800788879395,-4.057634353637695,-0.3403484523296356,-0.8912470936775208,0.6667073369026184,-0.7406333088874817,0.08344876021146774,-0.2298634648323059,0.06700360774993896,0.06794893741607666,0.6677997621201122,0.4588895795575718,0.5754517660069512,0.11099159751488474,0.8340124453884308,1.6953142809607789,-0.6009176045440316
1773062936184747264,3.063817262649536,-3.776067018508911,-0.20731611549854279,-1.1541247367858887,0.6743682026863098,-0.736517608165741,0.05262501537799835,-0.14842826128005981,0.20572537183761597,-0.058530084788799286,0.6780053226207016,0.442887925573535,0.5745979396731088,0.11830611118583227,0.827907585933038,1.6486745218347985,-0.5413270358955187
1773062936194785024,3.07385516166687,-3.522442102432251,-0.5184765458106995,-1.4698890447616577,0.6841825246810913,-0.728930652141571,0.023542312905192375,-0.049905240535736084,0.2985565662384033,-0.32601726055145264,0.6877139886843741,0.4267745754010224,0.5741381526260831,0.12360522975681568,0.816758609853204,1.6051921595556566,-0.4864612060111991
1773062936204822016,3.0838921070098877,-3.121325969696045,-1.2360577583312988,-1.4766428470611572,0.6951535940170288,-0.7188291549682617,-0.006809440441429615,0.05142849683761597,0.3716764450073242,-0.22678738832473755,0.6981957761991567,0.4113509017454808,0.5721762974684989,0.12620432770406897,0.8021166601640374,1.5610010491552873,-0.43744546670211776
1773062936214859008,3.0939290523529053,-2.256976842880249,-1.7775321006774902,-1.0719233751296997,0.7040799260139465,-0.7091472148895264,-0.03717021271586418,0.08719509840011597,0.40661126375198364,-0.016037166118621826,0.70895745315896,0.39896485359994743,0.5676635797769842,0.12635038901268614,0.7882879893049823,1.5180526876789922,-0.3988270270736157
1773062936224897024,3.1039671897888184,-0.7641587257385254,-1.9816319942474365,-0.520249605178833,0.7087228298187256,-0.702804684638977,-0.06146182119846344,0.050707101821899414,0.36569225788116455,0.11526429653167725,0.7178723084479722,0.39247900751934456,0.5614528639058564,0.12405769109985632,0.7793324809271829,1.4842908137779225,-0.3780863635243217
1773062936234934016,3.114004135131836,0.38594332337379456,-1.6146173477172852,-0.3032521605491638,0.7101355791091919,-0.7000031471252441,-0.07551906257867813,-0.02692323923110962,0.22820138931274414,-0.08750581741333008,0.7235326331883174,0.3920653855792556,0.5554504512503499,0.11941565643607882,0.7754019244850232,1.4648499506024284,-0.37676697057075853
1773062936244971008,3.1240410804748535,0.5094596743583679,-0.9061049222946167,-0.5984984636306763,0.7121210098266602,-0.6973856687545776,-0.08085223287343979,-0.09995359182357788,0.06234532594680786,-0.3967783451080322,0.7262448824253764,0.39348131897387734,0.5520383456462029,0.1139939920846727,0.7717432779879851,1.4577432390322382,-0.38454339731403087
1773062936255009280,3.1340792179107666,-0.09736806899309158,-0.5925580859184265,-1.0427370071411133,0.7173017859458923,-0.6916313171386719,-0.0844060629606247,-0.12989944219589233,-0.019992828369140625,-0.2581995129585266,0.7282454955689815,0.392431741219158,0.5511753785221979,0.10891089309400478,0.7637452528399215,1.4536633599068145,-0.3890695353991056
1773062936265046016,3.144116163253784,-0.7715880274772644,-0.6284857392311096,-1.181286334991455,0.724612832069397,-0.6830255389213562,-0.09172013401985168,-0.0012241005897521973,-0.06435000896453857,-0.12585490942001343,0.7313506551112374,0.3879932737027721,0.551000139421384,0.10481601875757075,0.7518970071205396,1.4448877869372256,-0.3849229309080313
1773062936275084032,3.154154062271118,-1.194120168685913,-0.9567512273788452,-1.022888422012329,0.7314262390136719,-0.6739124655723572,-0.10420022904872894,0.22981643676757812,-0.1207195520401001,-0.22706812620162964,0.7360079443138011,0.38167069486420796,0.5497520952539053,0.10194333212179163,0.7394916823466297,1.4292868258945621,-0.37351682873609937
1773062936285121280,3.164191246032715,-1.5739754438400269,-1.0017304420471191,-0.9767444133758545,0.736818790435791,-0.6651439070701599,-0.12116766721010208,0.2935919761657715,-0.2223224639892578,-0.250124454498291,0.7419830121376568,0.37432210928423765,0.547082374195829,0.10022498269171544,0.7276865594029044,1.4078080634396342,-0.35684106251886155
1773062936295158272,3.1742281913757324,-1.4109587669372559,-0.4783918261528015,-1.2159394025802612,0.7430989146232605,-0.6550583839416504,-0.1367570012807846,0.102253258228302,-0.3940596580505371,-0.1533735990524292,0.7473944248272845,0.3660403314951211,0.5455602383647287,0.09889410246324137,0.7142598915090398,1.3887967487371506,-0.33942827634553996
1773062936305196032,3.1842660903930664,-1.4521900415420532,-0.31624844670295715,-1.2257462739944458,0.7506970763206482,-0.6437028050422668,-0.14866243302822113,-0.1573438048362732,-0.4951215982437134,-0.049274563789367676,0.7515571075170727,0.35749162215670943,0.5457733249231211,0.09743247806525063,0.6993270410906014,1.3752932801076332,-0.32418302837137847
1773062936315233024,3.194303035736084,-1.7055323123931885,-0.46092545986175537,-0.996495246887207,0.7571592926979065,-0.632887065410614,-0.16175149381160736,-0.11505430936813354,-0.3466203212738037,0.010582700371742249,0.7559803967582835,0.3487501254332708,0.5454334068121507,0.09679510963458467,0.685276467729871,1.3603305686675833,-0.3071527885872829
1773062936325270272,3.2043402194976807,-2.2099997997283936,-0.07468511164188385,-1.1119595766067505,0.7631322741508484,-0.621728241443634,-0.17630387842655182,0.027135610580444336,-0.1342378854751587,0.24370194971561432,0.760656309180692,0.33862848496767195,0.5451410933360086,0.09774392933167564,0.6709473377452363,1.3437531088141959,-0.2853854901727008
1773062936335308032,3.2143781185150146,-2.4119043350219727,0.16792233288288116,-1.3584662675857544,0.7709539532661438,-0.6078372597694397,-0.19016803801059723,0.0793420672416687,-0.2280544638633728,0.11271440982818604,0.7649675334147327,0.32620031465484667,0.5463600774511433,0.09954236162206805,0.6533340809729042,1.3289581020897439,-0.2600189030219383
1773062936345345280,3.2244153022766113,-2.4352827072143555,-0.00022139167413115501,-1.416912317276001,0.7795625329017639,-0.5921968221664429,-0.20392422378063202,0.2146390676498413,-0.45875227451324463,-0.0626162737607956,0.7692717908910794,0.313054758186846,0.5477541456434702,0.10091061432556778,0.6337823801864744,1.3149413650098585,-0.2350961889992633
1773062936355383040,3.2344532012939453,-2.797152519226074,-0.14310771226882935,-1.351365089416504,0.7875141501426697,-0.5757666230201721,-0.219805046916008,0.33615827560424805,-0.5486840009689331,-0.03480313718318939,0.7741989120324193,0.29922031543734934,0.5482377934248037,0.10255998512498885,0.6135414513711295,1.29861078249996,-0.20855504403721256
1773062936365420288,3.244490385055542,-3.056427240371704,-0.05781012028455734,-1.2725552320480347,0.7947050929069519,-0.5585792660713196,-0.23755645751953125,0.30484330654144287,-0.46324074268341064,-0.02948760986328125,0.7795280895630209,0.2841463620354702,0.5481629488630817,0.10542408092865199,0.5926719807104047,1.2803269489523064,-0.17835655558063362
1773062936375457280,3.2545273303985596,-2.944899320602417,0.12268815189599991,-1.245929479598999,0.8016863465309143,-0.5411084890365601,-0.25396960973739624,0.17922484874725342,-0.29865890741348267,-0.10389474034309387,0.7843053856021607,0.2688462509784483,0.5483948242119253,0.10885713940846038,0.5717547093723694,1.2640040663787888,-0.14812763439686477
1773062936385495296,3.2645652294158936,-2.5706820487976074,0.37917983531951904,-1.37047278881073,0.809259295463562,-0.523352861404419,-0.266835480928421,0.08653837442398071,-0.14920878410339355,-0.22837325930595398,0.7879974261934382,0.2541791304496693,0.5495227296736802,0.1117040521816287,0.5507809312399711,1.2522940488937757,-0.12153764831899717
1773062936395532032,3.274602174758911,-1.9322329759597778,0.6348253488540649,-1.5977303981781006,0.8183048963546753,-0.5050975680351257,-0.2743239402770996,0.07608908414840698,-0.06013369560241699,-0.2870011329650879,0.7902221829257371,0.24081893058477752,0.5521270401405616,0.11274277403406821,0.529495036024613,1.2473357865091999,-0.10183906552585362
1773062936405569280,3.284639358520508,-1.2264262437820435,0.6538072824478149,-1.7520283460617065,0.8285101056098938,-0.4868220090866089,-0.2767225205898285,0.1512872576713562,-0.07903492450714111,-0.2505907416343689,0.7911984661115012,0.2295247841420807,0.5558391085353117,0.11120365669849941,0.5084478135002078,1.2484457391429187,-0.09078207796946378
1773062936415607296,3.294677257537842,-0.8021528720855713,0.5165662169456482,-1.760650634765625,0.8386124968528748,-0.46932968497276306,-0.27651193737983704,0.30454546213150024,-0.20405593514442444,-0.21016716957092285,0.7916250240539077,0.22034012984382226,0.5596376171504548,0.10763764466227985,0.48853149517651157,1.2522963251823538,-0.0864064107914973
1773062936425644032,3.3047142028808594,-0.7907585501670837,0.14662757515907288,-1.7206419706344604,0.8476204872131348,-0.4524524211883545,-0.2771759629249573,0.4310966730117798,-0.3838360607624054,-0.1435851752758026,0.7924171726569057,0.2121897136964802,0.5624833776536919,0.10326250416677166,0.46951343991512146,1.2547522452076691,-0.0842590886493492
1773062936435682304,3.3147523403167725,-1.1220993995666504,-0.07670911401510239,-1.78815495967865,0.8553873300552368,-0.4349603056907654,-0.28128644824028015,0.4446309804916382,-0.5631933808326721,-0.12194228172302246,0.7942573135600208,0.20354349862216556,0.5638499951224358,0.09898774906353587,0.44999419662289686,1.2530942787502979,-0.08037140567879246
1773062936445719296,3.32478928565979,-1.6912223100662231,0.09675002843141556,-2.024627923965454,0.8634449243545532,-0.41462716460227966,-0.28731054067611694,0.29895442724227905,-0.699233889579773,-0.08050256967544556,0.7965927465846993,0.19260511837955993,0.5650203480221042,0.09536954806842675,0.42753303664821474,1.2495716354528388,-0.07227264035064337
1773062936455756288,3.3348262310028076,-2.372624635696411,0.3385016620159149,-2.314248561859131,0.8727906942367554,-0.38990193605422974,-0.293620228767395,0.054714739322662354,-0.8014127612113953,0.027766376733779907,0.7988897512468568,0.17827413315358473,0.5669287584349096,0.09265641284633665,0.40052508723191776,1.2462744700364567,-0.0587758386981251
1773062936465794304,3.3448643684387207,-3.1234793663024902,0.5236811637878418,-2.595557928085327,0.8831753134727478,-0.36030206084251404,-0.3003058433532715,-0.07693153619766235,-0.8926886320114136,0.0991034209728241,0.8011564950072263,0.1601100191236662,0.569396050943783,0.091110310104956,0.36859168694378514,1.2430312066025515,-0.03897148672978847
1773062936475831296,3.3549013137817383,-3.7007529735565186,0.6908196210861206,-2.7214112281799316,0.8940820693969727,-0.3263351023197174,-0.30679407715797424,-0.05742746591567993,-0.9450271725654602,0.20475855469703674,0.8032266514824538,0.1385378865887348,0.5721977065124901,0.09068583343207051,0.33242380588718695,1.2402471269985385,-0.013604766586608492
1773062936485868288,3.364938259124756,-4.236913681030273,0.7206230163574219,-2.7402710914611816,0.9046722054481506,-0.28944700956344604,-0.3127116858959198,0.06650394201278687,-0.8893097043037415,0.2500896453857422,0.8049614743725974,0.11435452936065939,0.5749497310889502,0.09161237627796254,0.2936490604143478,1.237990422269009,0.016708628193739347
1773062936495906048,3.37497615814209,-4.590337753295898,0.7476399540901184,-2.8146133422851562,0.9144436717033386,-0.2502824664115906,-0.3180431127548218,0.1642305850982666,-0.7362897396087646,0.16751518845558167,0.8063851265560217,0.08817197270356797,0.5772383757388349,0.09361932980139043,0.25297200452245633,1.236083141705809,0.05083304059853951
1773062936505943296,3.3850133419036865,-4.8235955238342285,0.8050470352172852,-3.084545850753784,0.9236730337142944,-0.20812846720218658,-0.3217308223247528,0.12465155124664307,-0.5727095603942871,-0.01332169771194458,0.8072813513149767,0.06022744208444392,0.5792298746647977,0.09571975707584844,0.2096611350147973,1.2356218253106561,0.08678136369695973
1773062936515981312,3.3950512409210205,-4.953287601470947,0.9064707159996033,-3.500635862350464,0.9325026273727417,-0.16167078912258148,-0.32295748591423035,-0.0484389066696167,-0.4321402311325073,-0.20411157608032227,0.8075272817005134,0.030422209932922228,0.5810298993775798,0.09684291193688817,0.16238347534553324,1.2373910415035472,0.1229776272832899
1773062936526018048,3.405088186264038,-5.044655799865723,1.1032887697219849,-3.8515241146087646,0.9407894015312195,-0.11089068651199341,-0.3203412890434265,-0.26738858222961426,-0.3179575800895691,-0.3051011860370636,0.806745023762026,-0.001080875163889153,0.5829478453983704,0.09660784522844322,0.1111192217484304,1.2426073219340243,0.158777414044862
