time,seconds_elapsed,rotationRateX,rotationRateY,rotationRateZ,gravityX,gravityY,gravityZ,accelerationX,accelerationY,accelerationZ,quaternionW,quaternionX,quaternionY,quaternionZ,pitch,roll,yaw
1773062928943305728,0.23077678680419922,-0.07390190660953522,-0.01639467664062977,-0.04497282952070236,0.07192204147577286,-0.1249270886182785,-0.9895556569099426,0.0023424774408340454,-0.0124020054936409,0.007606863975524902,0.045571545827506256,-0.033156127374971214,0.0642092733124183,0.9963439122729556,0.12525434029397903,0.07255357164844875,3.045627072049655
1773062928953341696,0.2408127784729004,-0.0068668825551867485,-1.7001992091536522e-05,-0.044301047921180725,0.07190535962581635,-0.12446059286594391,-0.9896156787872314,0.004693768918514252,-0.0034996122121810913,0.006430864334106445,0.04579744846295608,-0.03314349547456212,0.06398180942005403,0.9963485738537687,0.12478417969963473,0.07253241530915451,3.0451934360166395
1773062928963377664,0.25084877014160156,0.06145864725112915,0.011753637343645096,-0.04300781711935997,0.0720299705862999,-0.12473191320896149,-0.9895724654197693,0.0020514503121376038,0.010184183716773987,0.0001620650291442871,0.04601933763723655,-0.033185702789369206,0.06412865305212384,0.9963274951886341,0.1250576288691471,0.072660839354477,3.0447290115308983
1773062928973413632,0.26088476181030273,0.07683967053890228,0.02212941274046898,-0.033352483063936234,0.07225015759468079,-0.1254022717475891,-0.9894716739654541,-0.005630284547805786,0.008977711200714111,-0.008392095565795898,0.046215824602121924,-0.033268512171620926,0.06447767244987865,0.9962931762887588,0.12573328828169383,0.07288956852241679,3.044293185332742
1773062928983450624,0.2709217071533203,0.02789928764104843,0.007643414661288261,-0.01600065641105175,0.07245690375566483,-0.12593252956867218,-0.989389181137085,-0.006874635815620422,0.006761401891708374,-0.005621135234832764,0.04635476633742851,-0.03335132826152401,0.06475405819412283,0.9962659175105889,0.1262677952486869,0.07310346920802181,3.0439791983468196
1773062928993486592,0.2809576988220215,-0.0009011353831738234,-0.002015438163653016,0.013466732576489449,0.07247833162546158,-0.12604722380638123,-0.9893730282783508,-0.0026846379041671753,-0.0004023611545562744,-0.00727003812789917,0.0463519586681584,-0.033359695424310526,0.06481217119557632,0.996261982918294,0.12638341011951887,0.07312620775168484,3.043978769105779
1773062929003522560,0.29099369049072266,-0.03181431069970131,-0.009395856410264969,0.017156008630990982,0.07242532819509506,-0.125891774892807,-0.9893966913223267,0.0012593567371368408,-0.0140770822763443,0.0008255839347839355,0.04627411969986055,-0.03334164861877345,0.06473008529889498,0.9962715256001977,0.1262267026551458,0.07307117277857206,3.044144816373225
1773062929013558528,0.30102968215942383,-0.0412413664162159,-0.004920281004160643,0.01985006406903267,0.07232888042926788,-0.125519260764122,-0.9894511103630066,-0.0015280991792678833,-0.01615859568119049,0.008234679698944092,0.04618293196910491,-0.0333075034406604,0.06453733435140928,0.9962894961771072,0.12585121365666035,0.07297021387841536,3.0443493186913524
1773062929023594496,0.311065673828125,-0.021082302555441856,0.0009381405543535948,0.028481103479862213,0.07228677719831467,-0.12519650161266327,-0.989495038986206,-0.0006925463676452637,-0.002595841884613037,0.01009446382522583,0.04605966667981356,-0.0333015428124627,0.06436987735082803,0.9963061831834644,0.12552588471309767,0.07292466000134196,3.0446125610894237
1773062929033631488,0.3211026191711426,0.03019559755921364,0.00846320204436779,0.02904679998755455,0.0722937062382698,-0.1252586543560028,-0.9894866943359375,0.002657465636730194,-0.0038612186908721924,0.0055389404296875,0.045907060311881374,-0.03331350196125834,0.06439620018287988,0.9963111064491439,0.12558852916362148,0.07293223956013012,3.0449159331536872
1773062929043667456,0.33113861083984375,0.10781609266996384,0.022750794887542725,0.012213492766022682,0.07242937386035919,-0.12597432732582092,-0.9893859028816223,-0.004344657063484192,-0.009722068905830383,0.0046141743659973145,0.04580993517933758,-0.033372008855390906,0.06475615745587958,0.9962903833453383,0.1263099292020269,0.07307603744639524,3.0450730733833065
1773062929053703424,0.3411746025085449,0.12986986339092255,0.02328043058514595,-0.0007055012974888086,0.07266431301832199,-0.12720522284507751,-0.9892111420631409,-0.011385023593902588,-0.0008922964334487915,0.0038138628005981445,0.04579575423668655,-0.033463591581785024,0.06538046624187521,0.9962471352983185,0.1275508007224979,0.07332512764857659,3.0450360163249135
1773062929063739648,0.3512105941772461,0.10853261500597,0.01648750528693199,-0.002057854551821947,0.07284419983625412,-0.12840141355991364,-0.9890433549880981,-0.011015594005584717,0.004667907953262329,0.00303572416305542,0.045820655029543696,-0.033525783102524645,0.06598738329308691,0.9962038238242875,0.1287568881537078,0.07351842348266997,3.0449252310524413
1773062929073775872,0.36124682426452637,0.08200512826442719,0.016040360555052757,-0.00035165552981197834,0.0729992687702179,-0.12935252487659454,-0.9889079928398132,0.0011584535241127014,0.007846787571907043,-0.0015552639961242676,0.04583841281851717,-0.03358138901392365,0.0664702178198128,0.9961691430796171,0.12971599081150265,0.0736844112947896,3.044840267098346
1773062929083811840,0.37128281593322754,0.04861415550112724,0.0046343086287379265,0.013976949267089367,0.07310369610786438,-0.1299886852502823,-0.9888168573379517,0.003327585756778717,-0.0008401721715927124,0.0009323358535766602,0.04580984593269908,-0.03362164874957089,0.06679185724742191,0.9961475141862656,0.13035756285957706,0.073796213160392,3.044864436484992
1773062929093848832,0.3813197612762451,0.010620631277561188,-0.0010888581164181232,0.021987251937389374,0.07311656326055527,-0.13029268383979797,-0.988775908946991,-0.004604600369930267,-0.012850016355514526,0.005346953868865967,0.04572792348718982,-0.03362691389161243,0.06694235851026772,0.9961409992249832,0.13066416824574023,0.07381220687234218,3.045015555252332
1773062929103884800,0.3913557529449463,-0.007862504571676254,0.0019183835247531533,0.02574683353304863,0.07306527346372604,-0.13028371334075928,-0.9887808561325073,-0.0034546777606010437,-0.014430642127990723,0.010738253593444824,0.04561679987724177,-0.03360885942388288,0.06693285515067281,0.9961473078420263,0.13065512294253623,0.07376024665494404,3.0452425062478286
1773062929113920768,0.40139174461364746,0.021030660718679428,0.01663447916507721,0.04014361649751663,0.07308728992938995,-0.13036973774433136,-0.9887679219245911,0.0016044825315475464,-0.012437254190444946,0.015775978565216064,0.04544726865300861,-0.03362940796989539,0.06697094949784878,0.9961518770767901,0.1307418979642901,0.07378335368785909,3.045577873675465
1773062929123956736,0.41142773628234863,0.018113700672984123,0.023936066776514053,0.04872245714068413,0.07324004173278809,-0.1306227147579193,-0.9887232184410095,0.001146554946899414,-0.010994106531143188,0.02304023504257202,0.045207906003036515,-0.03371660608214721,0.0670938251834626,0.9961515076514198,0.13099705110687968,0.0739403269469391,3.0460376442599633
1773062929133992704,0.4214637279510498,0.001545177772641182,0.02049409970641136,0.05066012963652611,0.0734134241938591,-0.13074027001857758,-0.9886948466300964,-0.0041995570063591,-0.011914148926734924,0.013307273387908936,0.04496169508661906,-0.03381760060411769,0.06714877976640442,0.9961555475223488,0.13111561763491392,0.07411685422499675,3.046515318736106
1773062929144028672,0.431499719619751,0.04468012973666191,0.01777314767241478,0.08004278689622879,0.07352067530155182,-0.1309998631477356,-0.9886524677276611,0.003856644034385681,-0.0070006102323532104,0.003316223621368408,0.044633007418489454,-0.033887977669471714,0.06727078976754723,0.9961597237666961,0.13137746195396158,0.07422789672884286,3.0471572134074885
1773062929154065664,0.44153666496276855,0.12329744547605515,0.022933952510356903,0.0800853967666626,0.0735979750752449,-0.13188436627388,-0.9885291457176208,0.019862107932567596,-0.004819124937057495,-0.00941091775894165,0.04423414974396326,-0.03393491823310486,0.06770416221328526,0.996146497687416,0.1322697088934946,0.07431489155341647,3.04791618090624
1773062929164101632,0.4515726566314697,0.18917712569236755,0.04541103169322014,0.07705125957727432,0.07382378727197647,-0.13353370130062103,-0.9882908463478088,0.02003302425146103,0.0032999366521835327,-0.019399583339691162,0.04387360344604673,-0.034038011472911994,0.06852729918141569,0.996102646539232,0.13393377175346802,0.07455996902243303,3.0485561867440416
1773062929174137600,0.4616086483001709,0.2045889049768448,0.048752401024103165,0.10341197997331619,0.07420806586742401,-0.13557255268096924,-0.9879844188690186,0.015986628830432892,0.019895687699317932,-0.01738661527633667,0.04345479537824114,-0.0342171839293271,0.06954829618541963,0.996044149944702,0.135991320639853,0.07496978972847441,3.0492853242069864
1773062929184173568,0.47164463996887207,0.19196365773677826,0.025789562612771988,0.1807435303926468,0.07439431548118591,-0.13767383992671967,-0.9876797795295715,0.025901705026626587,0.019647106528282166,-0.012915313243865967,0.04277794446191567,-0.03431493588129173,0.07058740649076066,0.9959969871974317,0.13811250915305598,0.07518033632520812,3.0505432932011876
1773062929194209536,0.48168063163757324,0.1916079968214035,-0.004783461336046457,0.25717321038246155,0.07419092953205109,-0.1397046446800232,-0.9874098896980286,0.033261463046073914,-0.002919241786003113,-0.00210726261138916,0.04170472166050573,-0.03424856793051363,0.07156872967046514,0.9959747722269031,0.14016312773410997,0.0749959885138149,3.0526280997193127
1773062929204245504,0.4917166233062744,0.19871464371681213,-0.03295570984482765,0.3063812553882599,0.07358986139297485,-0.14184002578258514,-0.9871504306793213,0.031390607357025146,-0.023443177342414856,-0.0005967617034912109,0.04033679598129209,-0.03400428041094451,0.0725844428626255,0.9959659453859436,0.14231998071781263,0.07441012830668944,3.055330131044083
1773062929214282752,0.5017538070678711,0.23988284170627594,-0.03525974601507187,0.3392505943775177,0.07278764247894287,-0.1442173570394516,-0.9868654012680054,0.030300728976726532,-0.0352412611246109,-0.01992475986480713,0.03875573804551704,-0.033673207006145026,0.07371171400601917,0.9959571388550728,0.14472201424345105,0.07362309643249265,3.05846661876678
1773062929224318720,0.5117897987365723,0.30493879318237305,-0.006876839324831963,0.3391576409339905,0.07208048552274704,-0.14720359444618225,-0.9864763021469116,0.03248798847198486,-0.019819095730781555,-0.028492510318756104,0.03710329659682193,-0.03338818387366794,0.07514702217105845,0.9959224582781593,0.14774046569597335,0.0729390231534261,3.0617164628405065
1773062929234354688,0.5218257904052734,0.3494163453578949,-0.002975008450448513,0.32487455010414124,0.07155381888151169,-0.1506800353527069,-0.9859896302223206,0.032083868980407715,-0.00030566751956939697,-0.04750335216522217,0.03550282039012021,-0.03318643839657053,0.07683644014486889,0.9958586180894402,0.15125612859890283,0.07244356522589838,3.0648302894562596
1773062929244390656,0.5318617820739746,0.31342238187789917,-0.008127693086862564,0.36351463198661804,0.07098670303821564,-0.1542833000421524,-0.9854732751846313,0.023266837000846863,-0.002348169684410095,-0.04576146602630615,0.033840511299067,-0.03297279254630431,0.07858856462488452,0.995786900268373,0.15490202084084428,0.07190890881179082,3.0680684607146356
1773062929254426624,0.5418977737426758,0.21126890182495117,-0.029450390487909317,0.37352699041366577,0.07022249698638916,-0.1571650505065918,-0.9850725531578064,0.008222930133342743,-0.02539108693599701,-0.008472919464111328,0.03203421007428692,-0.03268853294639014,0.07996987183181205,0.9957459780026797,0.15781937173573923,0.07116623309510536,3.071642949971573
1773062929264462592,0.551933765411377,0.0775289535522461,-0.03207094222307205,0.37836888432502747,0.06925611943006516,-0.1589156985282898,-0.9848600625991821,0.004535384476184845,-0.036793529987335205,0.02279341220855713,0.030194641750549662,-0.032326403919963435,0.08077722544332801,0.9957501414539287,0.15959229810686343,0.07020520206525663,3.0753478908452503
1773062929274499584,0.5619707107543945,-0.15302656590938568,-0.004749206826090813,0.34172898530960083,0.06852849572896957,-0.1588447391986847,-0.9849224090576172,0.014830268919467926,-0.045226290822029114,0.04018980264663696,0.02837972260466403,-0.032109070651973354,0.08067088420666607,0.9958192109180113,0.15952042569491184,0.06946560290797033,3.079055753260423
1773062929284535552,0.5720067024230957,-0.44234544038772583,-0.0062078190967440605,0.31208881735801697,0.06796463578939438,-0.15611793100833893,-0.9853973984718323,0.01753035932779312,-0.05735252797603607,0.045013487339019775,0.026716437327158473,-0.03199399793666263,0.07923188961618512,0.9959844606622434,0.1567591605348573,0.06886274830350278,3.082546583992027
1773062929294571520,0.5820426940917969,-0.7640554308891296,-0.01596198044717312,0.29472383856773376,0.06737472116947174,-0.15038809180259705,-0.9863286018371582,0.004402622580528259,-0.07243600487709045,0.0452275276184082,0.025092333454135696,-0.031892594804118754,0.0762795637592677,0.9962603433683987,0.15096081508688405,0.06820264717706134,3.0860705055051434
1773062929304607744,0.592078685760498,-1.0800496339797974,-0.02234850637614727,0.2499028444290161,0.06680012494325638,-0.14141620695590973,-0.9876939058303833,0.003497116267681122,-0.08722148835659027,0.0445176362991333,0.023588579822825383,-0.03181568704047303,0.07169952954608995,0.9966395596981293,0.14189184740176272,0.06752957946327826,3.0894644346230717
1773062929314643712,0.6021146774291992,-1.420108437538147,-0.00026983581483364105,0.13060875236988068,0.06633470952510834,-0.12931697070598602,-0.9893820285797119,0.014094360172748566,-0.08178836107254028,0.02211219072341919,0.022374751185767653,-0.03179293885163427,0.0655605590564034,0.9970909927555088,0.12968013256905858,0.06694641261822205,3.0923716082216046
1773062929324679680,0.6121506690979004,-1.9728446006774902,-0.07211020588874817,-0.053635913878679276,0.0658755898475647,-0.11264661699533463,-0.9914489984512329,0.024212300777435303,-0.08326097577810287,0.00686037540435791,0.021940747265787076,-0.031759372678092,0.05715623674955843,0.997618739034729,0.1128862213558833,0.06634623152568686,3.0938633675731486
1773062929334716672,0.622187614440918,-2.664682626724243,-0.14308950304985046,-0.25668275356292725,0.06496363133192062,-0.0892929881811142,-0.9938845634460449,0.053551383316516876,-0.1218428760766983,-0.0013241767883300781,0.022313137387386807,-0.031524207800926844,0.045430735925555354,0.998220644677608,0.08941207586397495,0.06527051368523619,3.09397331139434
1773062929344752640,0.6322236061096191,-2.9013590812683105,-0.4011743366718292,-0.6252685189247131,0.06262373179197311,-0.06096320599317551,-0.9961735606193542,0.11659074574708939,-0.1916002780199051,-0.007305443286895752,0.021375238635968553,-0.03068188700338308,0.03117440126122557,0.9988142042238601,0.061001029306224835,0.06278166053688235,3.0968818562740426
1773062929354788608,0.6422595977783203,-2.9451723098754883,-0.624329686164856,-0.7309484481811523,0.057738520205020905,-0.03119613602757454,-0.9978442192077637,0.1740424931049347,-0.31450697779655457,-0.04423952102661133,0.024498195689894434,-0.028493615573193944,0.016309799853250425,0.9991606542280422,0.031201198467881656,0.05779881260631549,3.091662909143149
1773062929364824832,0.6522958278656006,-2.7495932579040527,-0.5718430280685425,0.19966523349285126,0.051535721868276596,-0.0021908681374043226,-0.9986687302589417,0.1980828046798706,-0.37317535281181335,-0.02023690938949585,0.025638598262243923,-0.025739858846743017,0.0017565302902679293,0.9993382875861992,0.0021908698968052293,0.05155868658373183,3.0902362642744476
1773062929374860800,0.6623318195343018,-2.257368326187134,-0.45356348156929016,0.8881844878196716,0.04651885852217674,0.02268201857805252,-0.9986598491668701,0.15958160161972046,-0.13053114712238312,0.017229855060577393,0.02235871587169662,-0.023515146605102948,-0.010821573540964809,0.9994147701944744,-0.022683963165312376,0.04654763487067092,3.0973845535103286
1773062929384897792,0.6723687648773193,-1.8319823741912842,-0.32321345806121826,0.9145234227180481,0.04291673004627228,0.04256116971373558,-0.9981716871261597,0.016668841242790222,0.09502732753753662,-0.03643524646759033,0.01743750210430891,-0.02183633503281615,-0.02091255842228098,0.9993906162931515,-0.04257403165766526,0.042968876012132534,3.1076148773677006
1773062929394933760,0.6824047565460205,-1.8028810024261475,-0.2127087265253067,0.7562832832336426,0.0406971350312233,0.06016922742128372,-0.9973582029342651,-0.058671984821558,0.12665939331054688,-0.04904377460479736,0.01303401121736311,-0.020752930012788814,-0.02983636907921456,0.9992542872031532,-0.06020559202303911,0.04078230661884967,3.1167348571934843
1773062929404969728,0.6924407482147217,-2.0961015224456787,-0.19364556670188904,0.6945597529411316,0.03919649124145508,0.07923255860805511,-0.9960852265357971,-0.0019192732870578766,0.05730307102203369,-0.026223063468933105,0.009215920034734745,-0.01998243717768067,-0.039472455250299694,0.9989782551064332,-0.07931569811766288,0.03933024566442401,3.124703255125261
1773062929415005696,0.7024767398834229,-2.592325210571289,-0.29589715600013733,0.72230464220047,0.03748243302106857,0.10230082273483276,-0.9940471053123474,0.08393175154924393,-0.08519572019577026,0.005765855312347412,0.005378677528437731,-0.019044841196187996,-0.051124858201914224,0.9984961575405774,-0.10248010416439493,0.03768904373920009,3.1327523095352197
1773062929425041664,0.712512731552124,-3.0881059169769287,-0.4464610815048218,0.7218851447105408,0.034653425216674805,0.13040441274642944,-0.9908550977706909,0.1344749927520752,-0.21708960831165314,0.04894530773162842,0.0013709110445574218,-0.017456244099071285,-0.0653278692354816,0.9977101597871546,-0.13077687152391976,0.034959005286677856,3.141133951272952
1773062929435077632,0.7225487232208252,-3.422797679901123,-0.548179030418396,0.6609513759613037,0.030695060268044472,0.16263052821159363,-0.9862094521522522,0.14070691168308258,-0.28021475672721863,0.0775790810585022,-0.002540063650738844,-0.015192687517423384,-0.0816360554393472,0.9965431826811617,-0.16335609146972865,0.0311142357026115,-3.1339476951467993
1773062929445114624,0.7325856685638428,-3.4851722717285156,-0.5455943942070007,0.6070290207862854,0.026351306587457657,0.1967063546180725,-0.9801082611083984,0.12735047936439514,-0.2677207589149475,0.06804472208023071,-0.006189659967065515,-0.012626524230612472,-0.09892642496995677,0.9949953405923323,-0.19799750568907182,0.026879643405602702,-3.1264812882907997
1773062929455150592,0.742621660232544,-3.29707407951355,-0.4179380238056183,0.5982372164726257,0.022846635431051254,0.22991524636745453,-0.9729424715042114,0.09336429834365845,-0.20290718972682953,0.055294156074523926,-0.009640176882370576,-0.010377430302967379,-0.11584939568970413,0.9931658187182093,-0.23199058808772643,0.02347768620214132,-3.1194445336599315
1773062929465186560,0.7526576519012451,-2.9939122200012207,-0.21975168585777283,0.5999166369438171,0.021223293617367744,0.2603859305381775,-0.9652713537216187,0.037614598870277405,-0.12206500768661499,0.05995213985443115,-0.012966370093082253,-0.008986118745185394,-0.13146704598234515,0.9911950120187981,-0.26342189542794403,0.02198332559387657,-3.1125186202381316
1773062929475222528,0.7626936435699463,-2.7279374599456787,0.0009075142443180084,0.6146854758262634,0.02183379791676998,0.28780269622802734,-0.9574407935142517,-0.01914825104176998,-0.04956725239753723,0.06736516952514648,-0.01617800799381611,-0.008654810400659144,-0.14561831322362428,0.9891706927396768,-0.29193166889649586,0.02280038034864623,-3.105533265939198
1773062929485258496,0.7727296352386475,-2.574838876724243,0.20514747500419617,0.6560752987861633,0.024767031893134117,0.3129565417766571,-0.9494444727897644,-0.056718938052654266,-0.008894652128219604,0.0986601710319519,-0.01935820563857108,-0.009432955057581426,-0.1587097523719088,0.9870904361119605,-0.31830435955498865,0.02607989923171347,-3.0981886153611295
1773062929495294464,0.7827656269073486,-2.5497779846191406,0.3674127161502838,0.7031220197677612,0.029735973104834557,0.33702194690704346,-0.9410271048545837,-0.0757107064127922,-0.017472386360168457,0.15826648473739624,-0.022605737469321947,-0.011163133766470374,-0.17135296890059415,0.9848870999324679,-0.3437520036661031,0.03158897572531938,-3.090211548734414
1773062929505331712,0.7928028106689453,-2.650224208831787,0.4999294877052307,0.7554683089256287,0.03640250489115715,0.36115750670433044,-0.9317940473556519,-0.08323172479867935,-0.060559362173080444,0.22010886669158936,-0.025975845320960145,-0.01365701188393501,-0.1841642546903982,0.9824572416122853,-0.3695088829063153,0.03904725839480958,-3.0814273582674514
1773062929515367680,0.8028388023376465,-2.7706384658813477,0.5482166409492493,0.8019230961799622,0.04419422894716263,0.38603028655052185,-0.9214268326759338,-0.08458423614501953,-0.10632145404815674,0.2544499635696411,-0.029505720347846622,-0.0166062423358263,-0.19751152273437653,0.9797156237880208,-0.3963244254747387,0.047926091099952176,-3.0717524020170126
1773062929525403648,0.8128747940063477,-2.8821802139282227,0.6230693459510803,0.8353449702262878,0.05282085761427879,0.41162315011024475,-0.9098221659660339,-0.08732098340988159,-0.12838950753211975,0.27279824018478394,-0.03317436698794438,-0.019861123707656022,-0.21141065195313513,0.9766322546424923,-0.4242343925533257,0.05799114971351731,-3.061190388072534
1773062929535439616,0.8229107856750488,-2.898646831512451,0.754357099533081,0.8619833588600159,0.06264659762382507,0.4374099671840668,-0.8970774412155151,-0.08236094564199448,-0.11064299941062927,0.27213847637176514,-0.036890052115408495,-0.023632936695931524,-0.2256164235607855,0.9732305882088343,-0.452716475445991,0.06972091115253364,-3.0497561907463666
1773062929545475840,0.83294677734375,-2.8207743167877197,1.0084301233291626,0.9451338648796082,0.07450766116380692,0.4623480439186096,-0.8835626244544983,-0.07845968008041382,-0.05344301462173462,0.2737451195716858,-0.0406281986251893,-0.028381594108555706,-0.23961047255183723,0.9696033319065864,-0.4806414450514957,0.08412737500499307,-3.0372104812175493
1773062929555512576,0.8429837226867676,-2.7575523853302,1.3930387496948242,1.0981327295303345,0.08993905037641525,0.48601165413856506,-0.8693121671676636,-0.08902350813150406,0.0069845616817474365,0.2690771818161011,-0.044547012442795526,-0.03488352949092467,-0.25323322448581864,0.9657492139830589,-0.5075203655552375,0.10309322543610303,-3.022644737300184
1773062929565548544,0.8530197143554688,-2.8639862537384033,1.61936354637146,1.202537178993225,0.1087801456451416,0.5090274214744568,-0.853848934173584,-0.1047518327832222,0.04646879434585571,0.23757696151733398,-0.04869139157784972,-0.04305145349811506,-0.26687471377754685,0.9615371651001373,-0.5340545155852846,0.12671713324224446,-3.0056931318942985
1773062929575584768,0.8630557060241699,-3.1613686084747314,1.6982252597808838,1.2583590745925903,0.12940183281898499,0.5330299735069275,-0.8361424803733826,-0.13643614947795868,0.05168682336807251,0.21633046865463257,-0.05304653697805903,-0.052023277264023775,-0.2814646254126531,0.9566908529562105,-0.5621776424985476,0.15354241651373463,-2.9863973889327857
1773062929585620736,0.8730916976928711,-3.4062905311584473,1.633659839630127,1.3325204849243164,0.15037935972213745,0.5585172772407532,-0.815747857093811,-0.15205782651901245,0.034118831157684326,0.20918047428131104,-0.05775743202364579,-0.061001352516021505,-0.29732964488924835,0.9510720591245143,-0.5925972109673578,0.18229875039589513,-2.9644908374136274
1773062929595656704,0.8831276893615723,-3.4966273307800293,1.5724281072616577,1.437108039855957,0.17122463881969452,0.5842127203941345,-0.7933332324028015,-0.12242704629898071,0.01640373468399048,0.1848585605621338,-0.06301729280415881,-0.06968136482706633,-0.3138118511846742,0.9448256966485392,-0.6239097093957062,0.2125687718172653,-2.9396131997362027
1773062929605692672,0.8931636810302734,-3.467954158782959,1.586503505706787,1.507134199142456,0.19242604076862335,0.6088773012161255,-0.7695717215538025,-0.07780201733112335,-0.0033627748489379883,0.12475055456161499,-0.06874008044814857,-0.07835996284854299,-0.3302633192420397,0.938115470838103,-0.6546445527671358,0.24501915957013073,-2.911741975497346
1773062929615729664,0.903200626373291,-3.36519455909729,1.6366829872131348,1.5154407024383545,0.21407800912857056,0.6317873001098633,-0.7449935674667358,-0.05285364389419556,-0.004437446594238281,0.10706937313079834,-0.07452646510264557,-0.08724538451293644,-0.346253471365814,0.93109750749332,-0.683856833101321,0.27981637383597663,-2.881690137656984
1773062929625765632,0.9132366180419922,-3.152277946472168,1.6994038820266724,1.505912184715271,0.2361440360546112,0.6523565053939819,-0.720185399055481,-0.0505513995885849,0.014284729957580566,0.09913742542266846,-0.0800994338330394,-0.09646112157547618,-0.3613897376872932,0.9239463715091372,-0.7106895061670155,0.3168466350585125,-2.8502037309536092
1773062929635801600,0.9232726097106934,-2.8074162006378174,1.6512997150421143,1.4572184085845947,0.2579309344291687,0.6699748635292053,-0.6961359977722168,-0.0360376238822937,0.03929942846298218,0.0405268669128418,-0.08539010254530065,-0.10570947156888695,-0.37517665283226065,0.9169386556990757,-0.734174931348494,0.35483551595386925,-2.818205853163382
1773062929645837568,0.9333086013793945,-2.780851125717163,1.409448504447937,1.357378602027893,0.2779913544654846,0.6856631636619568,-0.6727457046508789,-0.007453054189682007,0.06035423278808594,-0.008421838283538818,-0.09034538204380382,-0.11420894760224275,-0.3880508353334049,0.910060718308721,-0.755514318978905,0.39184991884604525,-2.786505114115545
1773062929655873536,0.9433445930480957,-2.471381902694702,1.2692571878433228,1.4016720056533813,0.2965264618396759,0.6987757682800293,-0.6509873270988464,0.0382361114025116,0.1069645881652832,-0.002485513687133789,-0.09545379956142958,-0.12187999102307501,-0.39956424982289124,0.9035388049497165,-0.7736847010228334,0.4274204847349173,-2.7547256116520287
1773062929665909760,0.953380823135376,-1.799107313156128,0.8790143728256226,1.3505334854125977,0.3131963312625885,0.7084248065948486,-0.6324889659881592,0.09795171022415161,0.1626231074333191,0.034191906452178955,-0.10087254855889273,-0.12847333670997638,-0.4089622341502887,0.897813527507115,-0.7872638456102654,0.45978472421173167,-2.724044116716654
1773062929675946752,0.9634177684783936,-1.3973270654678345,0.672240138053894,1.2604559659957886,0.32728081941604614,0.7141773104667664,-0.6187390089035034,0.16089358925819397,0.23060107231140137,0.013422906398773193,-0.1061689561007117,-0.1337813943844828,-0.415611633397749,0.8933631034499847,-0.7954481063584482,0.48653700544259537,-2.6972387710785273
1773062929685982720,0.9734537601470947,-1.0764508247375488,0.6813556551933289,1.3360474109649658,0.34047120809555054,0.7174631357192993,-0.6077218651771545,0.18522459268569946,0.3265584111213684,-0.11848962306976318,-0.11142162928653981,-0.1386765837750175,-0.42060417556044927,0.8896325033244477,-0.8001536758280128,0.5106723849182968,-2.672517151655564
1773062929696018688,0.9834897518157959,-1.1800075769424438,0.8702008128166199,1.5449579954147339,0.35566970705986023,0.7191317081451416,-0.5969493985176086,0.17294052243232727,0.4416806101799011,-0.22224915027618408,-0.11696883701876447,-0.14462989036011625,-0.42497941069576967,0.8858853458563613,-0.8025519075742698,0.5373345037090801,-2.646454445117242
1773062929706054656,0.9935257434844971,-1.5500609874725342,0.489927738904953,1.3086479902267456,0.37045159935951233,0.7217344641685486,-0.584692120552063,0.07235842943191528,0.33051156997680664,-0.08289510011672974,-0.12291567247641214,-0.1501122599316952,-0.4302560215978738,0.8816108591325963,-0.8063048899619747,0.5647483211102939,-2.6183006702771667
1773062929716090624,1.0035617351531982,-1.920634150505066,0.18274149298667908,0.9383572340011597,0.3804503083229065,0.7275254130363464,-0.5709328055381775,0.05405893921852112,0.05726456642150879,0.07906574010848999,-0.12840531007742007,-0.15290542449348835,-0.43721109007350456,0.8769141370675,-0.8147082049904006,0.5877945540925603,-2.591081011816375
1773062929726127616,1.0135986804962158,-2.1102511882781982,-0.36801353096961975,0.7192410826683044,0.38606151938438416,0.7358864545822144,-0.5562623143196106,0.14990341663360596,-0.061783671379089355,0.0722230076789856,-0.13374634570865931,-0.15305409104690737,-0.4454697398998163,0.8719192701532986,-0.8269749282916082,0.6067065372017272,-2.5641963926331575
1773062929736163584,1.023634672164917,-1.2446627616882324,-0.8895807862281799,0.7223277688026428,0.3878293037414551,0.7428464889526367,-0.5456809401512146,0.2505221664905548,-0.010393977165222168,0.0172995924949646,-0.13957152035573628,-0.15070469400188286,-0.45215883650863925,0.8679633826736279,-0.8373122510144707,0.6178879881800936,-2.540571424390389
1773062929746199552,1.0336706638336182,0.16426405310630798,-1.4490622282028198,0.6742510795593262,0.38676369190216064,0.7430030107498169,-0.5462238192558289,0.35488978028297424,0.16736692190170288,-0.03921014070510864,-0.14577341841212738,-0.14684330097391673,-0.4531281535009618,0.8670998521260262,-0.8375461258114842,0.6161203100716613,-2.5270933071493302
1773062929756235520,1.0437066555023193,0.9977909922599792,-1.4557006359100342,0.46680665016174316,0.38267379999160767,0.7372473478317261,-0.556800901889801,0.4105544090270996,0.3957330584526062,-0.298484742641449,-0.15119278461126184,-0.1420610244442554,-0.4487963918717537,0.8692188235083141,-0.8289869944841357,0.6021326270764606,-2.525603678854916
1773062929766271488,1.0537426471710205,1.2105027437210083,-1.0983539819717407,0.361576646566391,0.3785240352153778,0.7293545603752136,-0.5698784589767456,0.2514350712299347,0.6171420216560364,-0.4118872880935669,-0.15505134967380152,-0.13828914776575918,-0.44264757221862233,0.8722948799068029,-0.8173780718939954,0.586306060241592,-2.5297930813838767
1773062929776307456,1.0637786388397217,1.2562882900238037,-1.0452476739883423,0.3771499991416931,0.37503665685653687,0.7207704186439514,-0.5829558968544006,-0.07243961095809937,0.6472257971763611,-0.29169321060180664,-0.158057671272949,-0.13545565935107703,-0.4360892395669372,0.875497426965977,-0.8049130902912165,0.5716764286033189,-2.535454543814821
1773062929786344448,1.0738155841827393,0.9063314199447632,-1.0565639734268188,0.6664486527442932,0.3724161386489868,0.7123208045959473,-0.5948994159698486,-0.21673071384429932,0.36891698837280273,-0.05893969535827637,-0.16185990598540978,-0.1327751593187446,-0.4300244779984038,0.8782090208252993,-0.7927993584923608,0.5593290799782444,-2.5378067575626013
1773062929796380416,1.0838515758514404,0.2749194800853729,-0.9433117508888245,0.9623087048530579,0.3722772002220154,0.7056700587272644,-0.602859377861023,-0.15688413381576538,0.043246567249298096,0.07139575481414795,-0.16727566269435198,-0.13061732068278728,-0.42603924325017983,0.8794592138681505,-0.7833684170024781,0.5532017416867662,-2.5322457141141133
1773062929806416384,1.0938875675201416,-0.2588866651058197,-1.0918229818344116,0.8386639952659607,0.3728216588497162,0.7021358609199524,-0.606637716293335,-0.08066162467002869,-0.1589382290840149,0.19214797019958496,-0.17350598046221197,-0.12822247882566906,-0.42454697839074784,0.8793262278449794,-0.7783926892682116,0.5510642853848667,-2.5210964236014486
1773062929816452608,1.1039235591888428,-0.606690526008606,-1.352073073387146,0.5346598625183105,0.3701460659503937,0.7024438381195068,-0.6079182624816895,-0.045149147510528564,-0.22072386741638184,0.33339738845825195,-0.1794122641754155,-0.1238545503298393,-0.42508929978731425,0.8785046963570964,-0.7788253250620939,0.5469194957106863,-2.5094871471924542
1773062929826488576,1.113959550857544,-0.34890902042388916,-1.4664162397384644,0.4377343952655792,0.36476433277130127,0.7038643956184387,-0.6095259785652161,-0.01407158374786377,-0.09439784288406372,0.43665921688079834,-0.18481528313967605,-0.1181220325555752,-0.4257748022689255,0.8778419084654439,-0.78082321597789,0.539271143402789,-2.500090462673512
1773062929836524544,1.1239955425262451,0.39299166202545166,-1.4459959268569946,0.4973284602165222,0.35913076996803284,0.702056884765625,-0.6149319410324097,0.032348692417144775,0.12274169921875,0.33767974376678467,-0.1899693419908903,-0.11272826512503215,-0.42405939124214487,0.878281122483852,-0.7782817965382554,0.5285844791535148,-2.494528272554085
1773062929846561536,1.1340324878692627,0.8762046098709106,-1.4581655263900757,0.6038810014724731,0.35395997762680054,0.6959969997406006,-0.6247403621673584,0.045240432024002075,0.24989533424377441,0.1543424129486084,-0.19508028388504253,-0.10813553793378355,-0.4194478663639133,0.8799510994488267,-0.7698074603564807,0.5154768374285584,-2.4924920724412902
1773062929856597504,1.1440684795379639,0.9995130896568298,-1.506988525390625,0.671850323677063,0.34903615713119507,0.687653660774231,-0.6366367340087891,0.02184396982192993,0.28585708141326904,0.03328895568847656,-0.20052536901301393,-0.10386805019876497,-0.4133921469942524,0.8821043463596787,-0.7582523872126452,0.5014987204639316,-2.4911496078858755
1773062929866633472,1.154104471206665,1.0167032480239868,-1.5450756549835205,0.6744599342346191,0.3438303768634796,0.6787679195404053,-0.6488872766494751,-0.012516319751739502,0.26832979917526245,-0.025718986988067627,-0.20613203798822097,-0.09953799254632321,-0.40699943513638875,0.8842811640960929,-0.7460835680516943,0.4872624717620347,-2.48960539909593
1773062929876669696,1.1641407012939453,0.9053858518600464,-1.519287347793579,0.5974701046943665,0.338115394115448,0.6702112555503845,-0.6606775522232056,-0.018306434154510498,0.1469731330871582,-0.06716662645339966,-0.2116544135614006,-0.09503413823661046,-0.40078640481388184,0.8863075945330865,-0.734493428305328,0.47301973350838133,-2.4878515056101977
1773062929886705664,1.1741766929626465,0.9329993724822998,-1.5214567184448242,0.3466533422470093,0.33117586374282837,0.6625456213951111,-0.6718301773071289,0.023407846689224243,0.03209543228149414,-0.02276510000228882,-0.21639247021646413,-0.09021009530940265,-0.3949013352843183,0.8883069497426807,-0.7242122819299238,0.4579883528239783,-2.487567326592517
1773062929896742656,1.184213638305664,0.8953446745872498,-1.482853651046753,0.1526833027601242,0.32246145606040955,0.6554434299468994,-0.6829439997673035,0.08015695214271545,0.032010793685913086,-0.03476834297180176,-0.21999771511869723,-0.08495282894431687,-0.3889871662066596,0.8905464717245455,-0.7147696191822006,0.4411317384457172,-2.4901549605987237
1773062929906778624,1.1942496299743652,0.6753867864608765,-1.3367464542388916,0.16473489999771118,0.31369778513908386,0.6495227813720703,-0.6926137208938599,0.09520721435546875,0.08761399984359741,-0.04327183961868286,-0.22307595926276488,-0.07980568603637941,-0.38382833151896373,0.8924930781287227,-0.7069566537752816,0.4252785643205518,-2.492744869417824
1773062929916814592,1.2042856216430664,0.44305363297462463,-1.1698812246322632,0.19254696369171143,0.3060881793498993,0.6450812816619873,-0.7001286745071411,0.07457283139228821,0.1865227222442627,0.019296765327453613,-0.22609920131316222,-0.0751357246833188,-0.37985561371702503,0.89383639456508,-0.7011296627906162,0.41214894238953564,-2.493495850470764
1773062929926850560,1.2143216133117676,0.4413100481033325,-1.070304274559021,0.014627027325332165,0.2990666627883911,0.641721785068512,-0.7062239050865173,0.04543101787567139,0.217668354511261,0.06820815801620483,-0.22858911279404925,-0.0708853543636635,-0.3766474784212822,0.8949071609891986,-0.6967412097519797,0.40057643422944295,-2.494227534370836
1773062929936886528,1.2243576049804688,0.38152825832366943,-1.1320202350616455,-0.12665300071239471,0.29068484902381897,0.6389849185943604,-0.7121802568435669,0.02971920371055603,0.16300177574157715,0.1026221513748169,-0.23014883535409372,-0.06625561542548052,-0.3735238625251815,0.8961706486251034,-0.6931779419388161,0.38752263746514465,-2.49732826538572
1773062929946922496,1.23439359664917,0.43364793062210083,-1.121303915977478,0.11107593774795532,0.2824287414550781,0.6363251209259033,-0.7178609371185303,0.04653546214103699,0.12473750114440918,0.12931418418884277,-0.23201796110481204,-0.061574674276506536,-0.3705105755455689,0.8972726157953642,-0.6897250782129674,0.3748306563663463,-2.4994806903100892
1773062929956959488,1.2444305419921875,0.8625909090042114,-1.0275774002075195,0.3871525824069977,0.27626338601112366,0.6309722065925598,-0.7249501347541809,0.07233890891075134,0.18004769086837769,0.25310254096984863,-0.23500348458942014,-0.0579342547696384,-0.3662902784240351,0.8984700840959925,-0.6828057373831663,0.364089657661102,-2.499306896062443
1773062929966995456,1.2544665336608887,1.140702247619629,-0.8718841671943665,0.30129384994506836,0.27160167694091797,0.6224449872970581,-0.7340264320373535,0.04861927032470703,0.1819068193435669,0.22133111953735352,-0.23812927896464173,-0.05551562543929535,-0.3604230726413286,0.9001709507256168,-0.6718627443415656,0.3543941712779639,-2.4994737422540387
1773062929977031424,1.2645025253295898,1.0591129064559937,-0.824298083782196,-0.02450164407491684,0.2663419544696808,0.6138288378715515,-0.7431527972221375,-0.019866764545440674,0.04516768455505371,0.13766884803771973,-0.23993482209106684,-0.053363714615997794,-0.35436691512099094,0.9022237398646537,-0.6609016005923597,0.34413363446689893,-2.502664518215715
1773062929987067392,1.274538516998291,1.0987143516540527,-0.9498352408409119,-0.15221112966537476,0.2590709328651428,0.6061273217201233,-0.7519919276237488,-0.04499015212059021,-0.061541199684143066,0.12894511222839355,-0.24075829466154505,-0.050449294307751504,-0.3485095482549711,0.9044508492387484,-0.6511824876216958,0.3317782238579288,-2.5083435846780087
1773062929997103360,1.2845745086669922,1.2416346073150635,-1.0559240579605103,-0.11238223314285278,0.2505699396133423,0.5975066423416138,-0.7617089748382568,0.052652716636657715,-0.10325920581817627,0.14970946311950684,-0.2416292573283118,-0.04703789541466368,-0.3419546171565346,0.9069012315811856,-0.6403880671698174,0.3178072170771958,-2.5146399603904634
1773062930007139328,1.2946105003356934,1.2665072679519653,-1.0592803955078125,-0.09098772704601288,0.24182501435279846,0.5881258249282837,-0.7717698216438293,0.17567071318626404,-0.06741964817047119,0.16105204820632935,-0.24270781273320519,-0.043554684215261916,-0.3349896784271997,0.9093831799183324,-0.6287395769466186,0.30364837889053575,-2.5205498958685086
1773062930017176576,1.30464768409729,1.3113138675689697,-0.9534116983413696,-0.11652615666389465,0.23335394263267517,0.5783388018608093,-0.7817097306251526,0.21662773191928864,0.0839078426361084,0.16275227069854736,-0.24364179168509822,-0.040342850004943004,-0.3278987447910701,0.9118626047877277,-0.616690923908425,0.2900960450727992,-2.5264249683947786
1773062930027212544,1.3146836757659912,1.3610223531723022,-0.8049964308738708,-0.1690594106912613,0.22560420632362366,0.5681324005126953,-0.7914090752601624,0.22402653098106384,0.2390117645263672,0.15311866998672485,-0.24417104096218,-0.037716561174320484,-0.32073808734072723,0.914376841468984,-0.6042346095536703,0.2777006472429146,-2.532646241923995
1773062930037248512,1.3247196674346924,1.4141947031021118,-0.7121788859367371,-0.20929443836212158,0.21850819885730743,0.5574565529823303,-0.8009346723556519,0.16828683018684387,0.22588390111923218,0.07028281688690186,-0.24423246150089578,-0.0356562404427246,-0.31346656279848656,0.9169612582151591,-0.5913190187165464,0.2663351007254051,-2.5394197727773733
1773062930047284480,1.3347556591033936,1.3303240537643433,-0.7480378150939941,-0.23014113306999207,0.2114972472190857,0.546755313873291,-0.8101404309272766,0.0822649747133255,0.06773138046264648,-0.05933588743209839,-0.24409299648352664,-0.03370652932023517,-0.3062575117162858,0.9195045961266471,-0.5784841117965379,0.2553629811781806,-2.546267539263668
1773062930057320704,1.3447916507720947,1.150317668914795,-0.9897964000701904,-0.2753226161003113,0.20315974950790405,0.5371782183647156,-0.8186364769935608,0.03280214965343475,-0.09259814023971558,-0.1653265357017517,-0.24402784114393508,-0.03089793222250908,-0.2995447906231088,0.9218289693888947,-0.5670880844960018,0.2432541222173697,-2.5528172672335385
1773062930067357440,1.3548285961151123,0.8899299502372742,-1.1892682313919067,-0.3719887137413025,0.19236597418785095,0.5293161869049072,-0.8263290524482727,0.07716527581214905,-0.13634133338928223,-0.2081710696220398,-0.24406335000343918,-0.026578399196405145,-0.29347753085459255,0.9239034787413999,-0.5577943947505792,0.22872213546898365,-2.559300813237608
1773062930077393408,1.3648645877838135,0.6924301981925964,-1.151456356048584,-0.5645291209220886,0.18008947372436523,0.5236391425132751,-0.8326882719993591,0.18685390055179596,-0.06877464056015015,-0.2021932601928711,-0.24349310535589463,-0.02139993134567401,-0.2884404544684864,0.9257727784539532,-0.5511169975113783,0.21299429033862696,-2.5667757133662588
1773062930087429632,1.3749005794525146,0.5464064478874207,-1.1074128150939941,-0.6278002262115479,0.16750489175319672,0.5196295976638794,-0.8378109335899353,0.2582153081893921,0.057305216789245605,-0.2583957314491272,-0.24224615421539195,-0.016040522326293723,-0.28431887924557786,0.9274816642679242,-0.5464173510257547,0.19732979718200236,-2.575172660611281
1773062930097465600,1.3849365711212158,0.7296068668365479,-1.0492541790008545,-0.6836217045783997,0.15507115423679352,0.5154101848602295,-0.8427961468696594,0.20152674615383148,0.11682248115539551,-0.26656365394592285,-0.240697200295018,-0.010873980441694714,-0.28014941785870756,0.9292270878081413,-0.5414862374614692,0.18196086338700995,-2.5840414170673527
1773062930107501568,1.394972562789917,0.8731717467308044,-1.1890994310379028,-0.8295387029647827,0.1416817158460617,0.509655237197876,-0.8486329317092896,0.1074180155992508,0.07449698448181152,-0.30992114543914795,-0.23869212449389257,-0.005571267559294247,-0.2750500135901553,0.9313122183382482,-0.5347840368778021,0.16542716091424456,-2.594385588703957
1773062930117537536,1.4050085544586182,0.8536731600761414,-1.2645776271820068,-0.8730376958847046,0.12684017419815063,0.5034159421920776,-0.8546835780143738,0.07201236486434937,0.03271687030792236,-0.3087075352668762,-0.23630688966743787,0.0002965504113438597,-0.2695517254973854,0.9335421162182967,-0.527547663945788,0.1473306679532986,-2.6058932769317855
1773062930127574528,1.4150454998016357,0.8686984181404114,-1.3182668685913086,-0.7850583791732788,0.11163167655467987,0.49700987339019775,-0.8605344295501709,0.030992232263088226,0.11958253383636475,-0.2333376407623291,-0.23415109747273113,0.006410663031845727,-0.2639918092518997,0.9356497390297415,-0.5201494898311241,0.12900324028281177,-2.6167829061910006
1773062930137610496,1.425081491470337,0.9724214673042297,-1.3804227113723755,-0.7082127332687378,0.0961560383439064,0.48984286189079285,-0.8664917945861816,0.0338335856795311,0.21811917424201965,-0.15493154525756836,-0.2325022586649078,0.012713052473523227,-0.2580552159526083,0.9376505838336513,-0.5119095150417596,0.11051947902100985,-2.6265225144629882
1773062930147646464,1.435117483139038,1.003476619720459,-1.408320665359497,-0.7140623927116394,0.0806133896112442,0.48183155059814453,-0.8725479245185852,0.0907428041100502,0.18303963541984558,-0.1133071780204773,-0.23103862482022047,0.01899836444983256,-0.2517242791153567,0.9396249482079123,-0.5027436807334161,0.09212696935379187,-2.6357165702934444
1773062930157682432,1.4451534748077393,0.9968655705451965,-1.49701988697052,-0.8041252493858337,0.06432595103979111,0.4736511707305908,-0.8783602714538574,0.1315511167049408,0.06943964958190918,-0.13520479202270508,-0.22938112147295453,0.025596203696035075,-0.24528494087531635,0.9415755457974684,-0.4934318853681646,0.07310362672862311,-2.6452551600151466
1773062930167718656,1.4551897048950195,0.982028603553772,-1.6257983446121216,-0.9535014033317566,0.04648163542151451,0.46544763445854187,-0.8838540315628052,0.11565825343132019,-0.03002282977104187,-0.13184726238250732,-0.22728866301219516,0.032876061845371424,-0.23873026713896892,0.9435396027221357,-0.4841403032844157,0.05254131470115968,-2.655845333321613
1773062930177755648,1.465226650238037,0.9904969930648804,-1.7336477041244507,-1.0676634311676025,0.026943614706397057,0.45717552304267883,-0.888968288898468,0.1298862248659134,-0.07758262753486633,-0.14910238981246948,-0.2246727742443966,0.040889615799527344,-0.23204288814931165,0.9455190812947668,-0.4748168029325753,0.03029958419192437,-2.6676766750161693
1773062930187791616,1.4752626419067383,0.9794174432754517,-1.7627512216567993,-1.10438871383667,0.006451065186411142,0.4485781490802765,-0.8937203288078308,0.1505008190870285,-0.07235744595527649,-0.1683982014656067,-0.22173118828135302,0.0492953324111284,-0.22518836158483743,0.9474680084911807,-0.46517382391795187,0.007218089143045117,-2.68010741048418
1773062930197827584,1.4852986335754395,0.9294236302375793,-1.765852689743042,-1.095131754875183,-0.014175746589899063,0.4400063753128052,-0.8978827595710754,0.14634738862514496,-0.035938382148742676,-0.17348259687423706,-0.2187324373315057,0.05780134397576252,-0.21844366858205724,0.9492614809128771,-0.4556057762834848,-0.015786659491406462,-2.6923107218242754
1773062930207863552,1.4953346252441406,0.8874434232711792,-1.7960600852966309,-1.0673227310180664,-0.03489350527524948,0.4315788745880127,-0.901400089263916,0.14669466018676758,0.0019385814666748047,-0.16538763046264648,-0.2157930469054777,0.06643028179543135,-0.21186547316727314,0.9508592651682436,-0.44624232329543484,-0.038691024330428356,-2.7040421407685797
1773062930217899520,1.5053706169128418,0.8148481845855713,-1.9093388319015503,-1.0526721477508545,-0.0561399981379509,0.4234068989753723,-0.9041984677314758,0.139590322971344,-0.004278510808944702,-0.1565467119216919,-0.21296493377998818,0.07542758750860583,-0.20545421488127416,0.9522317414170278,-0.4372026690019208,-0.06200853885633187,-2.715317319711508
1773062930227935488,1.515406608581543,0.7576009035110474,-2.0177996158599854,-0.9684433937072754,-0.07827475666999817,0.41559842228889465,-0.906173825263977,0.12513449788093567,-0.03495267033576965,-0.12200915813446045,-0.21042086580267708,0.08502430548091126,-0.1992083172490107,0.9533152235068252,-0.42860063399642645,-0.08616552491013565,-2.7258727664939744
1773062930237972480,1.5254435539245605,0.7246514558792114,-2.0692391395568848,-0.8233466744422913,-0.10057443380355835,0.4080846905708313,-0.9073873162269592,0.11047737300395966,-0.0437658429145813,-0.04795020818710327,-0.20847865435195528,0.09491043434505309,-0.19312784013174797,0.9540599930956273,-0.4203551281405978,-0.11038899962586317,-2.734893332170688
1773062930248008448,1.5354795455932617,0.7185112833976746,-2.1008448600769043,-0.7522213459014893,-0.12270595878362656,0.400639146566391,-0.9079821109771729,0.12436915189027786,-0.02217540144920349,-0.0013501644134521484,-0.20710517438909998,0.10487470667697232,-0.18711020887105465,0.9545148986712274,-0.41221432532624536,-0.13432757148830474,-2.742392986691412
1773062930258044416,1.545515537261963,0.672809898853302,-2.200761556625366,-0.7924894094467163,-0.14530986547470093,0.39327889680862427,-0.9078638553619385,0.18215984106063843,0.005295932292938232,0.0042231082916259766,-0.2058043214206284,0.1151420098089397,-0.1811363882741583,0.9547652071650794,-0.40419514529706485,-0.15871073372652603,-2.749564257935158
1773062930268080384,1.555551528930664,0.7226578593254089,-2.2707130908966064,-0.8654765486717224,-0.1689378172159195,0.38573282957077026,-0.9070116877555847,0.2507859468460083,0.017221271991729736,0.0015246272087097168,-0.20425963213633716,0.12590585162657533,-0.17504820315555797,0.9548737443278976,-0.396001993721765,-0.18414747614064275,-2.7571652811683998
1773062930278116352,1.5655875205993652,0.9259700775146484,-2.233987331390381,-0.9342283010482788,-0.19288550317287445,0.3766818344593048,-0.9060386419296265,0.28907692432403564,0.03796049952507019,0.015398383140563965,-0.2024300513224868,0.1366494035674065,-0.1682487261971305,0.9550085837376897,-0.3862116833372561,-0.20975740444204302,-2.7650041576981876
1773062930288153600,1.575624704360962,1.2605900764465332,-2.1550140380859375,-0.9740455150604248,-0.2163282036781311,0.36486101150512695,-0.9055818915367126,0.2837415337562561,0.06624555587768555,-0.011120378971099854,-0.20043932724991348,0.14682799867740692,-0.1601580631900249,0.9553087837696023,-0.37348352794652134,-0.23448864413742354,-2.7724619934418193
1773062930298189568,1.585660696029663,1.5714571475982666,-2.065967321395874,-1.0087114572525024,-0.2390214055776596,0.34962815046310425,-0.9058856964111328,0.2324906587600708,0.10149791836738586,-0.05006211996078491,-0.1984205792401542,0.15626980812711946,-0.15045561634423288,0.9558096693479865,-0.35717418339280627,-0.257974457184309,-2.779037242116101
1773062930308225536,1.5956966876983643,1.736997127532959,-2.0717861652374268,-1.002545714378357,-0.2612006962299347,0.332040399312973,-0.9063792824745178,0.1786201298236847,0.12688294053077698,-0.09658092260360718,-0.1964300390565012,0.1652461979468951,-0.13965694120672234,0.9563497713243139,-0.33846588034066466,-0.28057811339240146,-2.784685484735119
1773062930318261504,1.6057326793670654,1.8075636625289917,-2.0875391960144043,-0.9674126505851746,-0.2832222580909729,0.313149094581604,-0.9064892530441284,0.1530648171901703,0.1299966275691986,-0.1086626648902893,-0.19462248590157658,0.1740991593644948,-0.12823746497653038,0.9567479790680264,-0.318507096051653,-0.3028289407927489,-2.78923111737962
1773062930328297728,1.6157686710357666,1.721099615097046,-2.127523183822632,-0.9464355111122131,-0.3052833080291748,0.29421865940093994,-0.905669629573822,0.1767737865447998,0.09559762477874756,-0.10234123468399048,-0.19292701490068476,0.18307547429559792,-0.11682702979510967,0.9568772191078436,-0.2986378866056673,-0.3251189558629717,-2.7930201457584807
1773062930338334464,1.6258056163787842,1.552488088607788,-2.134831428527832,-0.9366507530212402,-0.32730746269226074,0.2763679623603821,-0.9035986661911011,0.22896459698677063,0.05207744240760803,-0.08489614725112915,-0.19115538712918131,0.19224723002043093,-0.10602673835204413,0.9566916220895978,-0.2800128227925513,-0.34752531215573906,-2.796634309525995
1773062930348370432,1.6358416080474854,1.406653881072998,-2.1160693168640137,-0.9612279534339905,-0.3490659296512604,0.25977465510368347,-0.9003722071647644,0.2678586542606354,0.04311230778694153,-0.049777328968048096,-0.1891720161885083,0.2015046391535964,-0.095967566988138,0.9562427126452862,-0.26278883502743056,-0.3698500775786081,-2.8004120086301336
1773062930358406656,1.6458775997161865,1.32815420627594,-2.1064841747283936,-1.0251710414886475,-0.37057173252105713,0.24397915601730347,-0.8961867690086365,0.28097209334373474,0.05460482835769653,-0.04447174072265625,-0.18678337355621105,0.21078945109900063,-0.08645466078393402,0.9556178043695717,-0.24646689798918323,-0.39208841375603504,-2.8047297330458805
1773062930368442624,1.6559135913848877,1.382922887802124,-2.0683083534240723,-1.104093313217163,-0.3917557895183563,0.2277890145778656,-0.891425609588623,0.2610490024089813,0.0741213858127594,-0.03751420974731445,-0.18398694134738985,0.21994175340902833,-0.07689494835807473,0.9549144556171818,-0.2298063989944216,-0.4140636793995526,-2.809383058504286
1773062930378478592,1.6659495830535889,1.5188627243041992,-2.056802272796631,-1.0964170694351196,-0.4125325679779053,0.21046319603919983,-0.8862968683242798,0.22570395469665527,0.08815130591392517,-0.041300177574157715,-0.18106208685091957,0.22887000800745158,-0.06685869341526816,0.9541304924397882,-0.21204874681926764,-0.4356328740790916,-2.8136195727728444
1773062930388514560,1.67598557472229,1.7147583961486816,-2.0316660404205322,-1.0284606218338013,-0.43276605010032654,0.1915888488292694,-0.8809127807617188,0.18595513701438904,0.10322621464729309,-0.02739715576171875,-0.17849464229591172,0.23749718205932271,-0.05602421118997405,0.9532030662492461,-0.19278072895485676,-0.45663928061966585,-2.816293326458242
1773062930398551552,1.6860225200653076,1.8467111587524414,-2.004486083984375,-0.9627132415771484,-0.4523363411426544,0.17146813869476318,-0.875208854675293,0.16252616047859192,0.12725317478179932,-0.03575611114501953,-0.17641194893077494,0.2457943939687051,-0.044505054807198456,0.9520941170468001,-0.1723196848347028,-0.4770227308145355,-2.8171670572218774
1773062930408587520,1.6960585117340088,1.9209110736846924,-1.9605880975723267,-0.9256633520126343,-0.4711284041404724,0.15058015286922455,-0.8691166043281555,0.1466502547264099,0.13785673677921295,-0.06989401578903198,-0.17467905861340952,0.25373390616657143,-0.032570101470350485,0.950813079602293,-0.1511550946404262,-0.4967402096919303,-2.8166161049192517
1773062930418623488,1.70609450340271,1.8858798742294312,-1.9627162218093872,-0.9485030174255371,-0.4893938899040222,0.1295192986726761,-0.8623910546302795,0.1225878894329071,0.11556735634803772,-0.09537255764007568,-0.17296186491311188,0.2614980776758025,-0.020572286590868738,0.9493575307305492,-0.129884181733431,-0.5161681291606779,-2.815499662388004
1773062930428659456,1.7161304950714111,1.7692971229553223,-1.9965708255767822,-1.016504168510437,-0.5075280666351318,0.10887350887060165,-0.8547291159629822,0.10704588890075684,0.06275734305381775,-0.13237720727920532,-0.17087926591371727,0.26936357464720595,-0.008871971678200996,0.9477155785034691,-0.10908975442318872,-0.5358394658427489,-2.814787859738004
1773062930438695424,1.7261664867401123,1.6475820541381836,-2.0253851413726807,-1.0646717548370361,-0.525691032409668,0.08890727162361145,-0.8460168242454529,0.10033702850341797,0.009572945535182953,-0.13875490427017212,-0.16830228938600933,0.2774634484220119,0.002372503898998904,0.9458767381676307,-0.08902482125755362,-0.5559860593867818,-2.8148348687649554
1773062930448732672,1.736203670501709,1.5846039056777954,-2.0444631576538086,-1.0331553220748901,-0.5437101125717163,0.06966511160135269,-0.8363767862319946,0.08930337429046631,-0.03261677920818329,-0.11407792568206787,-0.1654981215093577,0.2857227519883946,0.013195318326258742,0.9438214042337146,-0.06972158323626239,-0.5764300105512906,-2.815102150147161
1773062930458768640,1.7462396621704102,1.6406878232955933,-2.0630056858062744,-0.9550892114639282,-0.5614267587661743,0.05076244845986366,-0.8259679675102234,0.07648718357086182,-0.052181508392095566,-0.06752562522888184,-0.16295063888645422,0.2940126759626507,0.02392800690022192,0.9415046472616019,-0.05078427370337932,-0.5969850054999118,-2.814467297536465
1773062930468804608,1.7562756538391113,1.7237592935562134,-2.0490775108337402,-0.8902915716171265,-0.5786952376365662,0.03168318793177605,-0.8149282336235046,0.05885881185531616,-0.040411222726106644,-0.05769139528274536,-0.1608173236036898,0.3021900740995232,0.034886066599584625,0.9389366166041655,-0.03168849031497173,-0.6174843438474757,-2.812440054332544
1773062930478840576,1.7663116455078125,1.8626558780670166,-2.0511624813079834,-0.8764530420303345,-0.5955278277397156,0.011956355534493923,-0.8032456636428833,0.04010796546936035,-0.0015956340357661247,-0.07248669862747192,-0.1590044845537745,0.3102144816777473,0.04630477794368403,0.9361305211313236,-0.011956640593343731,-0.6379755329560827,-2.8090471790346876
1773062930488876544,1.7763476371765137,1.9692707061767578,-2.051257371902466,-0.8854086995124817,-0.6119217276573181,-0.00871824100613594,-0.7908702492713928,0.018934667110443115,0.04320310056209564,-0.0729144811630249,-0.15735748366456867,0.31806417394702347,0.058309888122657735,0.933099004414757,0.008718351443325677,-0.6585174560933907,-2.804478172087135
1773062930498912512,1.7863836288452148,2.0028235912323,-2.06453537940979,-0.873080313205719,-0.6279043555259705,-0.02985839918255806,-0.7777175307273865,0.001927793025970459,0.05987243354320526,-0.09732818603515625,-0.1557959162073024,0.32580730520745305,0.0706457599110973,0.9298314157995189,0.029862837033613823,-0.6792175930863426,-2.799019944341438
1773062930508949504,1.7964205741882324,1.9913012981414795,-2.109586715698242,-0.8447450995445251,-0.6436675786972046,-0.05082183703780174,-0.7636159062385559,-0.00661623477935791,0.05806975066661835,-0.10889691114425659,-0.1542924200693277,0.3336199367294154,0.08300472946569781,0.9262839253078841,0.050843741491037174,-0.7003697175921366,-2.792907171968085
1773062930518985472,1.8064565658569336,1.9782419204711914,-2.175163984298706,-0.7808478474617004,-0.659399688243866,-0.07121825218200684,-0.7484116554260254,-0.010278046131134033,0.03760314732789993,-0.09709310531616211,-0.15292345442692834,0.34164655115275816,0.0952460722970362,0.9223991522498277,0.07127859254722106,-0.7222550331017932,-2.7860727590647048
1773062930529021440,1.8164925575256348,1.968937635421753,-2.222503185272217,-0.6831915974617004,-0.6751291155815125,-0.09073145687580109,-0.7320986390113831,-0.005428135395050049,0.01155359297990799,-0.08209502696990967,-0.15185168109152522,0.34991585115090434,0.10728264954348875,0.9181450858382644,0.0908564044358498,-0.744936748036754,-2.7782620355302456
1773062930539057408,1.826528549194336,2.016277313232422,-2.263916015625,-0.6407387256622314,-0.6907371282577515,-0.10969391465187073,-0.7147373557090759,0.003694891929626465,-0.0022445619106292725,-0.0803370475769043,-0.151103857470846,0.35832519510871363,0.1193078774331149,0.9135296049450019,0.10991510431387434,-0.7683235534015415,-2.7692775135822236
1773062930549093376,1.836564540863037,2.0283424854278564,-2.317817449569702,-0.6481527090072632,-0.7061787247657776,-0.12851093709468842,-0.6962733864784241,0.014360427856445312,-0.001158297061920166,-0.10194438695907593,-0.15041621562722243,0.3668555791064035,0.13145448260877185,0.9085768232928713,0.12886731926855288,-0.792460902912505,-2.7594917590369223
1773062930559130368,1.8466014862060547,2.093716621398926,-2.338329553604126,-0.6616452932357788,-0.7213098406791687,-0.14738695323467255,-0.676749050617218,0.0217553973197937,0.02307356894016266,-0.11269485950469971,-0.1496601266622603,0.37543563649100137,0.14378299130613417,0.9033142010858765,0.14792584298052583,-0.8172606949277772,-2.7490702808762064
1773062930569166336,1.8566374778747559,2.2073252201080322,-2.3507604598999023,-0.6591038107872009,-0.7359307408332825,-0.1665973663330078,-0.6562402248382568,0.026122450828552246,0.053743377327919006,-0.08466547727584839,-0.14899569897867976,0.383908888415863,0.15650512650411033,0.8977306847896717,0.1673777923145584,-0.8425776846285338,-2.7375071192992024
1773062930579202304,1.866673469543457,2.2828071117401123,-2.3683223724365234,-0.6428922414779663,-0.7500083446502686,-0.18604405224323273,-0.6347244381904602,0.012017011642456055,0.05941136181354523,-0.0912277102470398,-0.14850642013664203,0.3922551305377998,0.1696281202395282,0.8918004361401813,0.18713436002239142,-0.8684601464432254,-2.72458939698663
1773062930589238528,1.8767096996307373,2.3091280460357666,-2.3935110569000244,-0.6033480167388916,-0.7636616230010986,-0.20518799126148224,-0.6121428608894348,-0.024454832077026367,0.05021972954273224,-0.08803719282150269,-0.14819372883501464,0.4005939518978375,0.18290177983447076,0.8854998984924441,0.2066557823332462,-0.8950871450337089,-2.7104808137565923
1773062930599274752,1.8867456912994385,2.2444722652435303,-2.440476655960083,-0.5514134764671326,-0.776960015296936,-0.22338776290416718,-0.5885839462280273,-0.059633612632751465,0.044173285365104675,-0.057259559631347656,-0.14797589154735236,0.40903294521489336,0.19595938710837746,0.8788601489118736,0.22528868656019432,-0.9224824546910994,-2.6956515388407754
1773062930609311488,1.896782636642456,2.179453134536743,-2.530752182006836,-0.529940128326416,-0.7900773882865906,-0.24038931727409363,-0.5639066696166992,-0.06966382265090942,0.06013724207878113,-0.04494953155517578,-0.14768503919540216,0.41775903551516935,0.2086242061862948,0.8718615333785574,0.24276691380017,-0.9509109656376927,-2.6805564666321895
1773062930619347456,1.9068186283111572,2.162492036819458,-2.5905165672302246,-0.5627474784851074,-0.8028944730758667,-0.2566932141780853,-0.5380232930183411,-0.0564957857131958,0.09256964921951294,-0.04589998722076416,-0.14714260664696174,0.4267373313579082,0.22109633791464567,0.8645002742684011,0.25959920083214455,-0.9804173512628779,-2.665317789110098
1773062930629383680,1.9168546199798584,2.2080161571502686,-2.6342341899871826,-0.6439284086227417,-0.8150339126586914,-0.2730739116668701,-0.5110287666320801,-0.043807029724121094,0.12571978569030762,-0.05336332321166992,-0.14629002465435711,0.4357141185996044,0.23374951038431374,0.8568043195256584,0.2765869572921642,-1.0107579194106364,-2.6496584471962326
1773062930639419648,1.9268906116485596,2.268810272216797,-2.6380395889282227,-0.7035146355628967,-0.8262830972671509,-0.2898087799549103,-0.4829775094985962,-0.03342759609222412,0.1810288429260254,-0.05385720729827881,-0.14516614134565953,0.44454906757237167,0.2467536665327059,0.8487730327105623,0.294027027201462,-1.0418382769528565,-2.6332829819453196
1773062930649455616,1.9369266033172607,2.2447891235351562,-2.641622304916382,-0.7209775447845459,-0.8365603685379028,-0.30640116333961487,-0.4541861116886139,-0.014559626579284668,0.25441446900367737,-0.05542689561843872,-0.14388344838868694,0.45318700363683,0.2598624310699292,0.8404704390280646,0.31141004440740444,-1.0734043604104442,-2.6162450769833496
1773062930659491584,1.946962594985962,2.18287992477417,-2.652052164077759,-0.7176420092582703,-0.8459499478340149,-0.3222394287586212,-0.42488858103752136,0.009798884391784668,0.3161969780921936,-0.023750334978103638,-0.14241245592856144,0.4617262705309885,0.2726986741791789,0.8319632721243195,0.3280941416135012,-1.1053407152177508,-2.5990324428652287
1773062930669528576,1.9569995403289795,2.1545727252960205,-2.7068240642547607,-0.711693286895752,-0.8545916080474854,-0.3372376263141632,-0.39489760994911194,0.0137253999710083,0.3351624011993408,-0.0021513700485229492,-0.14076675018873372,0.4702962230950855,0.2852589235171451,0.8231850692520842,0.34398109090077955,-1.1379345565584291,-2.5815959642929585
1773062930679564544,1.9670355319976807,2.147494316101074,-2.764014482498169,-0.7413197755813599,-0.8624930381774902,-0.35168159008026123,-0.3639034628868103,-0.00560992956161499,0.297940194606781,0.00800749659538269,-0.13889035303263594,0.47896257862196656,0.2977299359289528,0.8140400200437651,0.35936685333600504,-1.1715369620421496,-2.563747289841392
1773062930689600512,1.9770715236663818,2.1187753677368164,-2.767874002456665,-0.75065678358078,-0.8694639801979065,-0.36562806367874146,-0.3321871757507324,-0.02869880199432373,0.25118720531463623,0.01410248875617981,-0.13682261516982908,0.48757433262760314,0.3101252690940964,0.8045949636808132,0.37430750419195585,-1.2058507229345996,-2.5454346930944833
1773062930699636480,1.987107515335083,2.073606491088867,-2.7726590633392334,-0.7666255235671997,-0.8754114508628845,-0.37891629338264465,-0.3001282513141632,-0.03327977657318115,0.24915564060211182,0.012439072132110596,-0.13456215312059225,0.49604878568182637,0.3222909760407774,0.7949572324548828,0.3886249926941371,-1.2405120753105416,-2.526921633951572
1773062930709672448,1.9971435070037842,1.9860596656799316,-2.8059744834899902,-0.8334812521934509,-0.8802622556686401,-0.39172473549842834,-0.2677503526210785,-0.012911081314086914,0.29248151183128357,-0.002009779214859009,-0.13191419461808196,0.5044141839264871,0.33420225587795577,0.785158567552004,0.4025054037257763,-1.2755172201738327,-2.508579168909669
1773062930719709696,2.007180690765381,1.8624199628829956,-2.8171353340148926,-0.9241166114807129,-0.883842945098877,-0.4043751358985901,-0.23516486585140228,0.016273975372314453,0.3400745987892151,0.023876428604125977,-0.1285859854249075,0.5126623160524989,0.34582497708625975,0.7752729723731138,0.41629551389367425,-1.3107502561359834,-2.490958174485642
1773062930729745664,2.017216682434082,1.762421727180481,-2.804429292678833,-1.0016663074493408,-0.8860349655151367,-0.41692349314689636,-0.2027728110551834,0.02315044403076172,0.36653897166252136,0.06480282545089722,-0.12458273496648978,0.5206686818711276,0.35709622747828307,0.7654185441426428,0.4300579676230286,-1.3458164540851767,-2.47420973834509
1773062930739781632,2.027252674102783,1.7120920419692993,-2.766362190246582,-1.0203901529312134,-0.8869564533233643,-0.42916008830070496,-0.17067494988441467,-0.002341032028198242,0.36228081583976746,0.06993645429611206,-0.12022198100481368,0.5283807307948435,0.36807108732147487,0.7555687911750697,0.4435626810175361,-1.3806923503706492,-2.457754421163923
1773062930749817600,2.0372886657714844,1.7295304536819458,-2.7126564979553223,-1.0347570180892944,-0.8867399096488953,-0.44091856479644775,-0.13886386156082153,-0.045236408710479736,0.33531248569488525,0.04615145921707153,-0.11582798128711057,0.5357443853856813,0.3788746821532836,0.745664682798754,0.45662182576815424,-1.415457518375618,-2.4408904666649702
1773062930759853568,2.0473246574401855,1.8088948726654053,-2.672757148742676,-1.0644623041152954,-0.8853880167007446,-0.4523555040359497,-0.10706270486116409,-0.0750153660774231,0.3125850260257721,0.029273398220539093,-0.11153753750695918,0.5427215930886674,0.38977162689388095,0.7355886333240474,0.46940474711589353,-1.4504587952904382,-2.422930531720477
1773062930769891328,2.0573623180389404,1.9542313814163208,-2.6427483558654785,-1.13417649269104,-0.8827935457229614,-0.4637449085712433,-0.0749395489692688,-0.06550955772399902,0.30882251262664795,-0.005840472877025604,-0.1074370906336878,0.5492270317866516,0.4010983601800179,0.7252081859496049,0.48221746585155195,-1.4861102632051901,-2.4030913730142376
1773062930779927296,2.0673983097076416,2.105712890625,-2.6428871154785156,-1.2389432191848755,-0.8787738680839539,-0.47537508606910706,-0.04213101416826248,-0.013712704181671143,0.32611361145973206,-0.061262547969818115,-0.10339914330644175,0.5552534352223519,0.4130715621857676,0.7144047339999541,0.4953903376282625,-1.5228900551837778,-2.381035886087903
1773062930789963264,2.0774343013763428,2.3346643447875977,-2.6201364994049072,-1.279550552368164,-0.8733850121498108,-0.4869576394557953,-0.008426939137279987,0.04606872797012329,0.3515511155128479,-0.0826985239982605,-0.09960682619230306,0.5608109334500886,0.42576710462514594,0.7030590393690893,0.508603093836028,-1.5611480302507832,-2.3561889672489644
1773062930799999232,2.087470293045044,2.584627866744995,-2.587294578552246,-1.2955354452133179,-0.8668578863143921,-0.49786174297332764,0.026295602321624756,0.10715317726135254,0.361066609621048,-0.09830176830291748,-0.09647043092941096,0.565890770810896,0.4392213983081537,0.6910469168522897,0.521131472596849,-1.6011214139541343,-2.32775377254752
1773062930810035200,2.097506284713745,2.7934610843658447,-2.5490410327911377,-1.3639414310455322,-0.8590759634971619,-0.5080903768539429,0.0619087889790535,0.15486758947372437,0.33676469326019287,-0.10892117023468018,-0.0938817174863301,0.5704136807104159,0.4534122056468919,0.6784039192750503,0.5329662357736329,-1.642736358402127,-2.2958679739950427
1773062930820072192,2.1075432300567627,2.9470741748809814,-2.6028378009796143,-1.4554650783538818,-0.8497403860092163,-0.517856776714325,0.0988217368721962,0.1670926809310913,0.29179781675338745,-0.08428013324737549,-0.09143029088471824,0.5745061883991485,0.46835190591063514,0.6650035022068254,0.5443437241925999,-1.6865726344022087,-2.2608527776820098
1773062930830108160,2.117579221725464,2.982372760772705,-2.597294807434082,-1.5286754369735718,-0.8388662934303284,-0.5269668102264404,0.13641633093357086,0.14852815866470337,0.23772120475769043,-0.04718291759490967,-0.08890080708372532,0.5781843040990686,0.48364354302894524,0.6510672039699744,0.5550276455898013,-1.732005023571677,-2.2238027879517444
1773062930840144128,2.127615213394165,2.9093823432922363,-2.6033735275268555,-1.6327815055847168,-0.8264042735099792,-0.5355988144874573,0.1737513244152069,0.1349676251411438,0.2044527530670166,-0.017577677965164185,-0.08596524803394523,0.5813676123719296,0.49888612059103504,0.6369726732559075,0.5652167047191275,-1.7780277404071871,-2.186114550147859
1773062930850180096,2.137651205062866,2.922595739364624,-2.665205955505371,-1.6656150817871094,-0.8122988343238831,-0.5436553359031677,0.2112092226743698,0.11131018400192261,0.205322265625,-0.06614390015602112,-0.08251092132046842,0.5842505600350331,0.5140582607907669,0.6225650608605416,0.5747861546148649,-1.8251776849210433,-2.1478234023144855
1773062930860216064,2.1476871967315674,3.0424070358276367,-2.6182973384857178,-1.5059781074523926,-0.7974590063095093,-0.5496419072151184,0.24890361726284027,0.0563700795173645,0.20679211616516113,-0.06102213263511658,-0.07942532921204379,0.5870369226953356,0.528998546452058,0.6076511040188649,0.5819355204871738,-1.8733357737294194,-2.1082791055189474
1773062930870252032,2.1577231884002686,3.1932857036590576,-2.6096932888031006,-1.3276017904281616,-0.7826412916183472,-0.5524480938911438,0.28683388233184814,0.05073821544647217,0.19125735759735107,-0.09899821877479553,-0.07736805048239404,0.5898624044582728,0.5435800649585585,0.5921124987073056,0.5852983460381592,-1.9220895381900611,-2.0673080747585173
1773062930880289024,2.167760133743286,3.2003719806671143,-2.664444923400879,-1.2952296733856201,-0.7673159837722778,-0.5527063012123108,0.32518014311790466,0.06817340850830078,0.15225458145141602,-0.17864999175071716,-0.07579657183992938,0.5927606287344368,0.5578753479622481,0.5759035381557347,0.5856081789588472,-1.971640874919451,-2.0255594376685364
1773062930890324992,2.1777961254119873,3.015122890472412,-2.727607011795044,-1.3720080852508545,-0.7506532073020935,-0.5520883202552795,0.3629298806190491,0.082180917263031,0.11225378513336182,-0.12927210330963135,-0.0736593721806724,0.5954923265167195,0.5717113118690897,0.5595617181387205,0.5848668229030951,-2.0211451873802164,-1.9848357550287146
1773062930900360960,2.1878321170806885,2.850395441055298,-2.767237901687622,-1.4303851127624512,-0.7323805689811707,-0.5513412952423096,0.39955177903175354,0.11168354749679565,0.12826085090637207,-0.10524022579193115,-0.0705664975682754,0.5979583202469704,0.584997209015571,0.5433640883242716,0.583971121296359,-2.070218252096062,-1.9458266922717629
1773062930910396928,2.1978681087493896,2.758561372756958,-2.8153791427612305,-1.4505220651626587,-0.7126890420913696,-0.5501031279563904,0.43527093529701233,0.1450926661491394,0.17003726959228516,-0.06753411889076233,-0.06681626162564569,0.6001940068475485,0.597831602608982,0.5271622911306497,0.5824877096897167,-2.11907879033174,-1.9079676408430468
1773062930920434176,2.2079052925109863,2.761018753051758,-2.766662836074829,-1.3685873746871948,-0.692196249961853,-0.5475521087646484,0.47016075253486633,0.17191731929779053,0.18330955505371094,-0.059165239334106445,-0.06296289552123065,0.6023044734350274,0.6101718538858777,0.5108378840028542,0.5794360543139598,-2.1674465365757194,-1.8710078918412056
1773062930930470144,2.2179412841796875,2.726106643676758,-2.748657464981079,-1.3378797769546509,-0.6713730096817017,-0.5433483719825745,0.5040144920349121,0.14145058393478394,0.1493512988090515,-0.045075953006744385,-0.05939114927923832,0.6042110137712163,0.6220420471711038,0.4944343986948214,0.5744205126568819,-2.2147593858359977,-1.8348064914278337
1773062930940506112,2.2279772758483887,2.6279990673065186,-2.7465431690216064,-1.2414137125015259,-0.6499504446983337,-0.5379270315170288,0.5368418097496033,0.059435248374938965,0.07016873359680176,-0.06211036443710327,-0.05569234437630134,0.6060854128981407,0.633309870402858,0.4779932117380511,0.5679760781540425,-2.2611753364155276,-1.8001274617876832
1773062930950542336,2.23801326751709,2.509451150894165,-2.6848459243774414,-1.1920355558395386,-0.6284231543540955,-0.5314933657646179,0.5679782629013062,0.009541928768157959,0.032073140144348145,-0.004486441612243652,-0.05195292228884359,0.607906667256997,0.6437690684021488,0.4618569166694644,0.5603625534573645,-2.305715147362919,-1.7677127746247323
1773062930960578304,2.248049259185791,2.44507098197937,-2.599809169769287,-1.22441565990448,-0.6065268516540527,-0.5244399309158325,0.5975683331489563,0.08557653427124023,0.06368553638458252,0.024578213691711426,-0.04815862208171757,0.6093990144217146,0.6537713652926174,0.4459782269708678,0.5520572233651558,-2.3487545788807904,-1.736600363881106
1773062930970614272,2.258085250854492,2.319898843765259,-2.5430281162261963,-1.2096593379974365,-0.584400475025177,-0.5171324610710144,0.6253399848937988,0.1069071888923645,0.054653823375701904,0.06232786178588867,-0.04428431751461968,0.6104461908094432,0.6633441302870553,0.43054488943406066,0.5434972517435062,-2.3900231491306645,-1.7067754286639085
1773062930980651264,2.2681221961975098,2.2633399963378906,-2.468547821044922,-1.116167426109314,-0.5623195767402649,-0.5091773867607117,0.651563823223114,0.04967004060745239,-0.016106486320495605,0.10531800985336304,-0.04040855192024826,0.6113928395748204,0.6722951022937169,0.4154339304575712,0.5342287375242466,-2.4295820490641136,-1.6787989384372035
1773062930990687232,2.278158187866211,2.2638185024261475,-2.303969621658325,-1.0892468690872192,-0.5408323407173157,-0.5001581907272339,0.6762707233428955,0.01953113079071045,-0.07962995767593384,0.12959164381027222,-0.03698269823808923,0.612151721279389,0.6807390427029516,0.40062063809048015,0.5237814294723201,-2.4670178516383285,-1.6522473476720105
1773062931000723200,2.288194179534912,2.188436985015869,-2.167898178100586,-1.1210370063781738,-0.5199331641197205,-0.4906196892261505,0.699258029460907,0.062200069427490234,-0.1041831374168396,0.11321145296096802,-0.034014713344100465,0.6123278124011938,0.6889729081284751,0.3862822347341268,0.5128007626641373,-2.502232496892595,-1.6262758761388578
1773062931010759168,2.2982301712036133,1.9621208906173706,-2.1534106731414795,-0.9958800077438354,-0.49933141469955444,-0.4812719523906708,0.720447838306427,0.081301748752594,-0.10236135125160217,0.06866031885147095,-0.030860486440285106,0.612386359299678,0.6965679088970631,0.3725904026512943,0.502105190589422,-2.5355228717628897,-1.602380669685557
1773062931020795136,2.3082661628723145,1.7592719793319702,-2.0760750770568848,-0.8538171648979187,-0.47942066192626953,-0.47220733761787415,0.7397133111953735,0.0741778314113617,-0.10768759250640869,0.08159089088439941,-0.027435098960553298,0.612774230771558,0.7031105066273258,0.3597090218165576,0.49179321346724997,-2.5665423970947123,-1.5818751877137494
1773062931030832128,2.318303108215332,1.6117876768112183,-1.892640471458435,-0.8104481101036072,-0.46063390374183655,-0.4634649455547333,0.7569786906242371,0.09730681777000427,-0.1230219304561615,0.08770215511322021,-0.024122138012348943,0.6131347497778525,0.7089112339746794,0.34774818510283767,0.4819014857533069,-2.5949346753893945,-1.5637159737027901
1773062931040868096,2.328339099884033,1.460072636604309,-1.7218719720840454,-0.7328880429267883,-0.44313424825668335,-0.4552266001701355,0.7722699046134949,0.09102246165275574,-0.14319255948066711,0.07102233171463013,-0.021033415976993004,0.6132918492546814,0.7141484845357563,0.33678279319578874,0.4726266942074972,-2.620655043321237,-1.5473199027806455
1773062931050904320,2.3383753299713135,1.2418659925460815,-1.5178871154785156,-0.586171567440033,-0.4275074303150177,-0.4474868178367615,0.7854892015457153,0.07127568125724792,-0.1129227876663208,0.12939739227294922,-0.01830216500838386,0.6134856423031103,0.7185958336615015,0.32698704771789,0.463953117116747,-2.643169899937937,-1.5334063958670774
1773062931060940288,2.3484113216400146,0.9485271573066711,-1.372437834739685,-0.5143105387687683,-0.4136265516281128,-0.4410989284515381,0.7964580655097961,0.09943276643753052,-0.041109442710876465,0.21024078130722046,-0.015572710683253523,0.6137644987124719,0.7221649151862524,0.3186355898866978,0.4568228005980128,-2.6625989233504734,-1.5222747753040407
1773062931070976256,2.358447313308716,0.7742461562156677,-1.1568586826324463,-0.5068574547767639,-0.40124791860580444,-0.43632739782333374,0.8053685426712036,0.12308019399642944,-0.02113109827041626,0.2361811399459839,-0.012806717392605632,0.6138664863402455,0.7251566846787156,0.3116917000806768,0.4515129981411823,-2.6793728369636436,-1.5129366014023495
1773062931081013248,2.3684842586517334,0.699963390827179,-1.0260051488876343,-0.4960903227329254,-0.3901733458042145,-0.43233785033226013,0.8129260540008545,0.13965454697608948,-0.09512796998023987,0.223588228225708,-0.01030980319983907,0.6136864931159284,0.7279092843529921,0.3056643371368622,0.44708384367418086,-2.694103835274653,-1.504299928793541
1773062931091049216,2.3785202503204346,0.6924977898597717,-0.8183646202087402,-0.45678073167800903,-0.38054707646369934,-0.4285595715045929,0.8194636702537537,0.16446733474731445,-0.16377142071723938,0.1778966188430786,-0.00831610022183792,0.6133187440196922,0.7304601049352694,0.3003315453816193,0.4428979346018739,-2.7068403168708617,-1.4962600889015665
1773062931101085184,2.3885562419891357,0.6422156095504761,-0.7712011337280273,-0.4393460154533386,-0.37254101037979126,-0.42442557215690613,0.8252734541893005,0.20034554600715637,-0.09473952651023865,0.16538822650909424,-0.007108784697677153,0.6127515413289724,0.7329203783602461,0.2954873502789772,0.4383273792764989,-2.7175624505095275,-1.488485190273903
1773062931111121152,2.398592233657837,1.0209534168243408,-0.26745250821113586,-0.6734488010406494,-0.36679133772850037,-0.41912415623664856,0.8305416703224182,0.2107243537902832,-0.0060315728187561035,0.11150556802749634,-0.007392466678663503,0.611558975461948,0.735708126980136,0.2909890474551008,0.43248044302619754,-2.725721778189864,-1.479647648632139
1773062931121157120,2.408628225326538,0.1233857274055481,-0.3581429123878479,-0.8499805927276611,-0.3602285087108612,-0.41690313816070557,0.8345219492912292,0.2022237777709961,-0.05900317430496216,-0.038089632987976074,-0.00670940439720436,0.6090972773830022,0.7390950489639526,0.28756551421013526,0.43003557179478186,-2.734095724614242,-1.4687290228094758
1773062931131194112,2.4186651706695557,-0.4356224536895752,-0.12324754893779755,-0.5467416048049927,-0.3553600609302521,-0.4211902618408203,0.8344565629959106,0.14420896768569946,-0.12940779328346252,0.0954596996307373,-0.004223976153423833,0.6067729113303213,0.7409823968544588,0.2876696305034782,0.4347572828121417,-2.738995434042317,-1.462371620580808
1773062931141230080,2.428701162338257,-0.3254393935203552,-0.00439144391566515,-0.38927945494651794,-0.3529554307460785,-0.4263060390949249,0.8328779935836792,0.3059278428554535,0.15962818264961243,0.2516251802444458,-0.002079709342433088,0.6051823581692221,0.7417501697408001,0.28906177133535926,0.4404051929644651,-2.74075746099934,-1.459581644178847
1773062931151266048,2.438737154006958,0.44119465351104736,-0.009907916188240051,-0.3856085538864136,-0.3513086438179016,-0.42744937539100647,0.8329883813858032,0.3671624958515167,0.1998034417629242,0.09882020950317383,-0.0015890860647843753,0.6037790319030361,0.7429300543567704,0.28896952836110235,0.4416695303785367,-2.742482284773594,-1.455618766672793
1773062931161302016,2.448773145675659,1.0189584493637085,0.040520403534173965,-0.4523351788520813,-0.3495824635028839,-0.422353059053421,0.8363077640533447,0.19197437167167664,0.015538394451141357,-0.13966745138168335,-0.003377626255006259,0.6022129235174015,0.7453143379374717,0.2860679959951001,0.4360397126923327,-2.74566003115601,-1.4480195147790056
1773062931171337984,2.4588091373443604,0.8524664044380188,0.09399641305208206,-0.44791701436042786,-0.34824618697166443,-0.41579586267471313,0.8401420712471008,0.16240936517715454,-0.14523935317993164,-0.1624685525894165,-0.0059149381397759935,0.6003715252743825,0.7480809160319664,0.28265538040661214,0.42881773277808755,-2.7486416832659675,-1.4392180449209866
1773062931181375232,2.468846321105957,0.2310202419757843,0.04883948713541031,-0.3768365681171417,-0.34719082713127136,-0.41245973110198975,0.8422204852104187,0.17543792724609375,-0.07980400323867798,-0.10953927040100098,-0.007310726124009665,0.5987355478602954,0.7500839772199863,0.2807779737777174,0.4251525274393046,-2.750585515401744,-1.4327487521829596
1773062931191411200,2.478882312774658,-0.5677450895309448,-0.05314892902970314,-0.41678690910339355,-0.345566064119339,-0.4153262674808502,0.8414797782897949,0.2606814205646515,0.04310336709022522,-0.10542631149291992,-0.00622723480576141,0.5972592731872604,0.7510134892433173,0.28146285678922,0.4283014267221123,-2.75192648387014,-1.4294845508038116
1773062931201447168,2.4889183044433594,-1.2540875673294067,-0.006619744002819061,-0.49169406294822693,-0.3432464599609375,-0.4245838522911072,0.8378009796142578,0.36199951171875,0.04067271947860718,-0.1501483917236328,-0.002666003631788269,0.5956472905048377,0.7510690956845074,0.2847673063083795,0.4385022000279635,-2.7527528896696487,-1.4286956680182936
1773062931211483136,2.4989542961120605,-1.9486042261123657,0.2606774866580963,-0.5060064196586609,-0.34206023812294006,-0.439685195684433,0.8304648995399475,0.4039193391799927,0.003619462251663208,-0.10493993759155273,0.002365743396782868,0.5935481315171874,0.750288656828622,0.29113916205370544,0.4552481311764362,-2.750878442953212,-1.4301820660178293
1773062931221519104,2.5089902877807617,-2.0547211170196533,0.2526879906654358,-0.24449890851974487,-0.34269630908966064,-0.4583127796649933,0.8200662732124329,0.36709511280059814,0.030013829469680786,0.016405224800109863,0.008066722971169343,0.5916059266862252,0.7483552416413963,0.2998362944680133,0.4760959215908768,-2.7457608543114027,-1.435139332834437
1773062931231556096,2.5190272331237793,-1.7675364017486572,0.2976682484149933,-0.03600215166807175,-0.3443567156791687,-0.47427430748939514,0.8102359771728516,0.3425714373588562,0.06984010338783264,0.16521263122558594,0.012858754385122231,0.5906180001348613,0.7458474176182328,0.3077607218307766,0.4941395459159821,-2.7397153021022413,-1.4421931920500362
1773062931241592064,2.5290632247924805,-1.4060112237930298,0.4684605002403259,-0.04018224775791168,-0.3470964729785919,-0.4873379170894623,0.8012654781341553,0.39978498220443726,0.11111706495285034,0.15436214208602905,0.01632989104790493,0.5898567692344803,0.7434391203897031,0.3148027195231513,0.5090385341675593,-2.732809410990278,-1.4491788034692663
1773062931251628288,2.5390992164611816,-0.8762685060501099,0.9743990302085876,-0.18696556985378265,-0.3522596061229706,-0.4969342350959778,0.7930763363838196,0.4368084669113159,0.27861136198043823,0.3608240485191345,0.017240245279376582,0.5881893882599127,0.7420049909244689,0.32119271162880253,0.5200623539170698,-2.7235987007457427,-1.4532890115565822
1773062931261664256,2.549135208129883,-0.21494412422180176,1.4236721992492676,-0.2166009545326233,-0.3607518970966339,-0.5020829439163208,0.7859842777252197,0.43043872714042664,0.48029327392578125,0.4695853590965271,0.014724571578103095,0.5853897895719593,0.7418294411528876,0.3267892226498931,0.5260056458822874,-2.711295201628517,-1.4536775748140178
1773062931271700224,2.559171199798584,0.4691668450832367,1.617085576057434,-0.10032308101654053,-0.3720052242279053,-0.501659095287323,0.7809932231903076,0.4398458003997803,0.515300452709198,0.3918430805206299,0.00888620730499501,0.582241260591737,0.7426248810822997,0.33079368671763487,0.5255155752075862,-2.697065207103535,-1.4512825367358666
1773062931281737216,2.5692081451416016,0.9505243897438049,1.5030711889266968,0.08556023240089417,-0.38428840041160583,-0.49599626660346985,0.7786592245101929,0.43999823927879333,0.36879900097846985,0.37734663486480713,0.0008976569976751611,0.5795886273474627,0.743913054411638,0.3326704083192749,0.5189817951198337,-2.6831378064958673,-1.447471390656428
1773062931291773184,2.5792441368103027,1.000264286994934,1.3878220319747925,0.27828529477119446,-0.39650189876556396,-0.48736533522605896,0.7779857516288757,0.4558890163898468,0.13601630926132202,0.24835115671157837,-0.0077517915948907955,0.5778531764763377,0.7450359682628138,0.33308735225423947,0.5090699286726922,-2.6702534054891816,-1.4441672365796256
1773062931301809152,2.589280128479004,0.4690825343132019,1.2312002182006836,0.3778401017189026,-0.40831321477890015,-0.48004186153411865,0.7764279842376709,0.45379960536956787,-0.07527133822441101,0.11282384395599365,-0.015421762531288121,0.5768552871424283,0.7452864935149711,0.33398840805560187,0.500702416236543,-2.657450711400553,-1.4434877741379886
1773062931311845120,2.599316120147705,-0.2568376362323761,1.0046507120132446,0.452931672334671,-0.4190358519554138,-0.47755542397499084,0.7722371220588684,0.44061174988746643,-0.20161333680152893,0.023920893669128418,-0.02059823623845889,0.576514798388898,0.7441432975990371,0.33683418314400965,0.4978702526116256,-2.6444285638313825,-1.4471642647251182
1773062931321881088,2.6093521118164062,-0.7188405990600586,0.8301407694816589,0.45361021161079407,-0.42822176218032837,-0.4794330298900604,0.7660093307495117,0.4365987777709961,-0.25768861174583435,0.00014984607696533203,-0.023312544506345977,0.5767496246666461,0.7418655775395044,0.34125051617828933,0.5000085249706926,-2.6318434960130683,-1.454515313686248
1773062931331918336,2.619389295578003,-1.1987699270248413,0.8003022074699402,0.3410290777683258,-0.4364270865917206,-0.4850713014602661,0.7577844262123108,0.4186353385448456,-0.3055628538131714,0.023511290550231934,-0.024269017336513002,0.5769118235899042,0.7389620919257776,0.34715817483790223,0.5064446960683743,-2.6190634210867554,-1.4638911450453185
1773062931341954304,2.629425287246704,-1.4743622541427612,0.6902748346328735,0.3019977807998657,-0.4436176121234894,-0.49391505122184753,0.7478311061859131,0.3396289646625519,-0.29444554448127747,0.030138254165649414,-0.023667954721534715,0.5769193517897354,0.7355811434051142,0.35429405665471464,0.5165866200548651,-2.606184021255627,-1.4748717216307012
1773062931351990272,2.6394612789154053,-1.3775137662887573,0.5466609001159668,0.3715156018733978,-0.4498074948787689,-0.5033098459243774,0.7378025650978088,0.26259735226631165,-0.15565627813339233,0.06377214193344116,-0.022287436724141216,0.5771908122061046,0.7319508608835903,0.36138904554587065,0.5274248832774746,-2.594101696300407,-1.4867988046987604
1773062931362026240,2.6494972705841064,-0.7139337062835693,0.6017662286758423,0.4828125834465027,-0.4560737907886505,-0.509254515171051,0.7298334836959839,0.22739022970199585,0.012611329555511475,0.12209540605545044,-0.02199979136576192,0.5778649608371185,0.7286898066518892,0.3668778920374516,0.5343183783056129,-2.5830644099659565,-1.4975910313114167
1773062931372062208,2.6595332622528076,0.07966940850019455,0.8388384580612183,0.5178478360176086,-0.46387359499931335,-0.5091823935508728,0.724951446056366,0.17905303835868835,0.0947079062461853,0.10622525215148926,-0.024640061870764528,0.5784349283924349,0.7265595401258341,0.37002316717796846,0.5342345290910768,-2.5723727696940704,-1.504529042302886
1773062931382099200,2.669570207595825,0.6451817154884338,1.0844546556472778,0.5264979004859924,-0.4735226631164551,-0.5039907097816467,0.7223362922668457,0.07775545120239258,0.08509117364883423,0.0644221305847168,-0.03022541662622864,0.578471077337471,0.7256303082883676,0.3713735416189645,0.5282130436944783,-2.5613304609690077,-1.5071836362355788
1773062931392135168,2.6796061992645264,0.9214332699775696,1.2041033506393433,0.645100474357605,-0.4847453236579895,-0.4954201281070709,0.7208195924758911,-0.014918982982635498,0.05114522576332092,0.06957042217254639,-0.03781520935833089,0.5782819056586556,0.7252584614622973,0.37169909098499254,0.5183184089593338,-2.5495680521193145,-1.5075994591633224
1773062931402171136,2.6896421909332275,0.8673231601715088,1.2249171733856201,0.8473749160766602,-0.4972419738769531,-0.4851919114589691,0.719262957572937,-0.029644012451171875,-0.011298567056655884,0.11873447895050049,-0.04628316296486013,0.5785215884427418,0.7245303737718881,0.37178808244699796,0.5065826157521086,-2.5367149492176333,-1.508802931811242
1773062931412207104,2.6996781826019287,0.5616948008537292,0.9481740593910217,0.8676724433898926,-0.5095805525779724,-0.4753372073173523,0.7172044515609741,0.022855699062347412,-0.08638456463813782,0.19092237949371338,-0.05418000608981799,0.5794426690507818,0.7230825896793857,0.37210523695650294,0.4953472844494597,-2.5238481510590445,-1.5121498994741969
1773062931422243072,2.70971417427063,-0.044193413108587265,0.22088530659675598,0.11942223459482193,-0.516472578048706,-0.47058793902397156,0.7154037952423096,0.0963371992111206,-0.10677400231361389,0.1951184868812561,-0.058115426053994494,0.5803016933909401,0.7217699317013148,0.37272049774919,0.48995698717353864,-2.5162986266157548,-1.5156217538733274
1773062931432280064,2.7197511196136475,-0.9834679365158081,-0.5372375249862671,-0.8234611749649048,-0.5137345194816589,-0.47586703300476074,0.7138817310333252,0.07248091697692871,-0.022530704736709595,0.15171879529953003,-0.05554316897834265,0.5793860830244988,0.7219782785694216,0.37413100548767336,0.4959495830838234,-2.5178098093334684,-1.5154245837411855
1773062931442316032,2.7297871112823486,-2.2680318355560303,-0.3942338228225708,-1.2842559814453125,-0.5045543909072876,-0.49346038699150085,0.708464503288269,-0.17113536596298218,0.23537316918373108,0.03505057096481323,-0.04665187960963418,0.5768497137550719,0.7221334121727303,0.3789345838337595,0.5160638157104083,-2.5227387719496384,-1.5163803061309338
1773062931452352000,2.73982310295105,-1.8904155492782593,0.15666688978672028,-0.7128172516822815,-0.4981798529624939,-0.5144280195236206,0.6979833245277405,-0.4127088189125061,0.6447075605392456,0.08653199672698975,-0.037697960307185883,0.5737618889468603,0.720963906540158,0.38676507123349607,0.5403404951722373,-2.521703436485945,-1.521308505875302
1773062931462387968,2.749859094619751,-0.16591379046440125,0.4396366775035858,0.45444440841674805,-0.4998113214969635,-0.5223832726478577,0.6908723711967468,-0.5071314573287964,0.9908890724182129,-0.05049145221710205,-0.03565544437762755,0.5727835339963576,0.7192740888051388,0.3915259542318337,0.5496434699117667,-2.515301483113161,-1.5270948087435872
1773062931472424192,2.7598953247070312,1.064541220664978,0.30705174803733826,1.4925824403762817,-0.5076406598091125,-0.5138581395149231,0.6915566921234131,-0.3810311555862427,0.8190034627914429,-0.13549596071243286,-0.040409904140439684,0.5755765027754658,0.717279609511888,0.3906259951508296,0.5396760849417537,-2.5083746531353355,-1.533199199799223
1773062931482461184,2.769932270050049,1.5901504755020142,-0.014674972742795944,1.901379942893982,-0.517914891242981,-0.49531880021095276,0.6974406838417053,-0.13345229625701904,0.37086811661720276,-0.22512006759643555,-0.04850621722624099,0.5811841179188032,0.714804413865696,0.3859103886686085,0.5182017876946013,-2.5028485857326404,-1.5401756324395286
1773062931492497152,2.77996826171875,1.670839786529541,-0.7364646196365356,1.2480831146240234,-0.5229359269142151,-0.4749656617641449,0.7077755331993103,0.04870790243148804,-0.02863556146621704,-0.3111078143119812,-0.055057969623428196,0.5874086431182672,0.7133294090672601,0.378260518313188,0.49492499689002206,-2.5052694833467872,-1.5438157685005343
1773062931502533120,2.790004253387451,0.6843737959861755,-1.0516670942306519,0.47948986291885376,-0.5203397274017334,-0.461707204580307,0.7183824777603149,0.09046906232833862,-0.5379724502563477,-0.4054092764854431,-0.0570684854094501,0.591705382088081,0.7134955958800303,0.3708801207693123,0.47991886265438205,-2.5147294317356654,-1.5429861469136747
1773062931512569088,2.8000402450561523,-0.3462996184825897,-1.2142879962921143,0.505098819732666,-0.5142075419425964,-0.45860058069229126,0.7247592806816101,0.07632607221603394,-0.8801292777061462,-0.4477970600128174,-0.05416921348681502,0.5953700634918931,0.7126809394074766,0.36699594825923165,0.4764197713946948,-2.52452767786388,-1.5463780934266769
1773062931522606080,2.81007719039917,-0.21357186138629913,-1.4264165163040161,0.7715091705322266,-0.5076075196266174,-0.4578058123588562,0.7298963665962219,0.14026737213134766,-0.6602667570114136,-0.3112866282463074,-0.04961651258678506,0.6002137640832071,0.7104165079830633,0.36412922612822457,0.47552560310393727,-2.533925891000211,-1.5547035662732627
1773062931532642048,2.820113182067871,0.4560738801956177,-1.5014598369598389,0.6376323103904724,-0.5000442266464233,-0.45322921872138977,0.7379289269447327,0.24458158016204834,-0.43187209963798523,-0.2560868263244629,-0.04603324559914502,0.6054730101888206,0.708778449300468,0.35904943625630575,0.4703846905336152,-2.546037048044013,-1.560731166116679
1773062931542678016,2.8301491737365723,0.8881176114082336,-1.3907973766326904,0.41070646047592163,-0.4915134906768799,-0.44547128677368164,0.7483112812042236,0.23435714840888977,-0.31682726740837097,-0.2320454716682434,-0.043908043787458745,0.6097280347805741,0.7087928980529979,0.35201764914549716,0.46170059749530645,-2.5604308443819765,-1.5611562432976318
1773062931552713984,2.8401851654052734,0.982155442237854,-1.2582436800003052,0.35865870118141174,-0.48316681385040283,-0.4363856315612793,0.7590237855911255,0.075970858335495,-0.09518468379974365,-0.01901841163635254,-0.042788419837534335,0.6131834844496491,0.7095899497543726,0.34446651037456283,0.4515777169672553,-2.5747212012338365,-1.5589065653817675
1773062931562750208,2.8502211570739746,0.6791709065437317,-1.0217862129211426,0.6706874966621399,-0.47668370604515076,-0.4274600148200989,0.7681475281715393,-0.06298914551734924,0.12287932634353638,0.13900268077850342,-0.042255489391292686,0.6167012172198509,0.7097558545710931,0.33784719577416555,0.4416813060994943,-2.586190560469623,-1.5585423231775968
1773062931572786944,2.860258102416992,0.31225764751434326,-0.8172775506973267,0.8805453777313232,-0.4729534983634949,-0.4198837876319885,0.7746049165725708,-0.1299518346786499,0.22167205810546875,0.21251678466796875,-0.04184881418367464,0.6209650864649999,0.7083112546723793,0.3330859817870837,0.43331727691812394,-2.5934345377396055,-1.5631801797770564
1773062931582822912,2.8702940940856934,0.013206228613853455,-0.6483827829360962,0.8619423508644104,-0.47094404697418213,-0.41443875432014465,0.7787505984306335,-0.09320396184921265,0.2707313895225525,0.2733125686645508,-0.04122805440512607,0.6252798394204246,0.7059747938878296,0.3300379073309141,0.4273260046026328,-2.5976928790034837,-1.570576340772739
1773062931592859392,2.8803303241729736,-0.2822733521461487,-0.505601704120636,0.7242680788040161,-0.46974119544029236,-0.4117853045463562,0.780881941318512,-0.04835584759712219,0.20238885283470154,0.30348414182662964,-0.04006682002357753,0.6290699764939618,0.7033576057862806,0.32856328770459253,0.42441231603524787,-2.6000326382956915,-1.5788792546097363
1773062931602895360,2.890366315841675,-0.4753618538379669,-0.37524330615997314,0.5467602610588074,-0.4688916802406311,-0.4118140637874603,0.7813768982887268,-0.0054277777671813965,0.08378061652183533,0.2688854932785034,-0.038333203789261625,0.6321138520546818,0.7007999203039315,0.32839326902855276,0.42444386261674805,-2.6011114803856255,-1.5870602324633079
1773062931612931328,2.900402307510376,-0.565140962600708,-0.23173968493938446,0.392863392829895,-0.4684410095214844,-0.41377124190330505,0.7806127667427063,0.021892547607421875,-0.013123899698257446,0.19866573810577393,-0.036355413394182814,0.6343461225919402,0.6985065455646948,0.32919883421720264,0.4265926784573052,-2.601104093162677,-1.594452096217815
1773062931622968320,2.9104392528533936,-0.3204061686992645,-0.03897518664598465,0.3932951092720032,-0.4689202308654785,-0.41570690274238586,0.7792956829071045,0.02484363317489624,-0.08996942639350891,0.15135324001312256,-0.03497147959562739,0.6360024533377209,0.6965261769180386,0.330347099298462,0.42871991812465393,-2.5999071067492925,-1.6007696906156514
1773062931633004288,2.9204752445220947,0.2909453809261322,0.0444379486143589,0.5135650634765625,-0.4708869755268097,-0.41371914744377136,0.7791678309440613,0.02104252576828003,-0.1787949800491333,0.07823902368545532,-0.035702337962841,0.6375612006152396,0.69505368083908,0.3303658566621603,0.42653545978598323,-2.5979836541698935,-1.6051304060911857
1773062931643040256,2.930511236190796,0.5531914234161377,0.0816296935081482,0.627293050289154,-0.4737190306186676,-0.4073931872844696,0.7807825207710266,0.016001135110855103,-0.3482830822467804,-0.07959532737731934,-0.03834295938615363,0.6393609104523175,0.6939804687134099,0.3288443856649726,0.4195978079199764,-2.596244146252404,-1.6078613672673205
1773062931653076224,2.940547227859497,0.1900169551372528,0.15787068009376526,0.6461905837059021,-0.47726115584373474,-0.40116095542907715,0.7818515300750732,0.01745280623435974,-0.49388909339904785,-0.10355257987976074,-0.04111577727818519,0.6413146891998838,0.6925613585588348,0.32769462637695335,0.4127839160523907,-2.593543484675995,-1.6115677600767802
1773062931663112192,2.9505832195281982,-0.24755971133708954,0.20508351922035217,0.6600409150123596,-0.48130613565444946,-0.3983975052833557,0.7807841300964355,0.05747801065444946,-0.4491214156150818,0.006676197052001953,-0.04267451585126749,0.6432733581267109,0.6903560374881058,0.32830903822873586,0.40976903568304623,-2.589172949288392,-1.6178855434601729
1773062931673149184,2.960620164871216,-0.34382206201553345,0.1933291256427765,0.7464722394943237,-0.48569488525390625,-0.39748600125312805,0.7785277366638184,0.11257171630859375,-0.31535884737968445,0.10936594009399414,-0.043510498746256926,0.6454194699228357,0.6875300520717265,0.32991360492399735,0.40877547263675335,-2.5838111575552865,-1.626206215297683
1773062931683185152,2.970656156539917,-0.18965460360050201,0.14018040895462036,0.8475115895271301,-0.49015432596206665,-0.39575013518333435,0.7766147255897522,0.17306149005889893,-0.23800835013389587,0.07632100582122803,-0.04450312782678598,0.6479425766900637,0.6844543683538111,0.3312281333159526,0.40688453783265677,-2.5785886525453,-1.6351766018184346
1773062931693221120,2.980692148208618,0.08892188966274261,0.1315845251083374,0.9039535522460938,-0.49466586112976074,-0.3917803466320038,0.7757667899131775,0.20853298902511597,-0.2059827744960785,-0.07172620296478271,-0.04624879881823414,0.6507779447130628,0.6814480666349907,0.3316288994524703,0.40256583487114467,-2.5739500719025354,-1.6436597333851237
1773062931703257088,2.9907281398773193,0.24153581261634827,0.15717172622680664,0.6998997330665588,-0.4990014433860779,-0.3862764835357666,0.7757497429847717,0.19136908650398254,-0.16783112287521362,-0.18462443351745605,-0.04871427043621485,0.6532715214206988,0.6790516939285898,0.3312883061541308,0.3965913156236964,-2.5699768718151756,-1.6500559956021512
1773062931713293056,3.0007641315460205,0.2232564091682434,0.20066194236278534,0.4666377007961273,-0.5024964213371277,-0.38170871138572693,0.7757548093795776,0.11692219972610474,-0.058293670415878296,-0.2386608123779297,-0.050958663135875576,0.6548558900366371,0.6775257705556988,0.3309467226326103,0.39164427476977753,-2.5667996412293137,-1.6539011332036486
1773062931723330304,3.010801315307617,0.13227149844169617,0.1774905025959015,0.29705145955085754,-0.5052655339241028,-0.37843799591064453,0.7755587697029114,0.02043282985687256,0.11769583821296692,-0.15600615739822388,-0.05273126688767705,0.6558287959508992,0.6765116132026988,0.33081721461153046,0.3881082168990742,-2.564173615180251,-1.6563594229799246
1773062931733366272,3.0208373069763184,0.21950386464595795,0.2906647324562073,0.17847979068756104,-0.5079712867736816,-0.37592005729675293,0.7750157713890076,-0.03060293197631836,0.30397480726242065,-0.09447371959686279,-0.0544690670139551,0.6562016240651078,0.6759491993241231,0.33094604978780534,0.38538945471390434,-2.5614072205880896,-1.657508881280875
1773062931743402240,3.0308732986450195,0.31117621064186096,0.5145773887634277,0.14558029174804688,-0.5115571618080139,-0.3731258809566498,0.7740068435668945,-0.08773183822631836,0.4486263394355774,-0.06209266185760498,-0.05689444867186224,0.6559932496365989,0.6757782801532448,0.3312999599518747,0.3823759549919558,-2.557578594542417,-1.6573186308039791
1773062931753438208,3.0409092903137207,0.6004420518875122,0.7928609848022461,0.28258368372917175,-0.5174779891967773,-0.3685470521450043,0.7722625136375427,-0.16681760549545288,0.48278966546058655,-0.027496337890625,-0.0609691992704477,0.6554748392695028,0.6756359946860723,0.3318906900377934,0.37744555683059583,-2.5512304332626146,-1.6565258889465906
1773062931763474688,3.05094575881958,0.5650197863578796,0.9280676245689392,0.4208783507347107,-0.5254940986633301,-0.36190757155418396,0.7699862718582153,-0.20808744430541992,0.37553367018699646,0.03460967540740967,-0.06653941202912461,0.655021516921874,0.6752332541446439,0.3325347728123244,0.37031337289075195,-2.542727530247354,-1.6559280158083225
1773062931773511680,3.0609827041625977,-0.04659831523895264,1.0245981216430664,0.5618062019348145,-0.534770131111145,-0.35708925127983093,0.765838086605072,-0.17874598503112793,0.1857331097126007,0.0570988655090332,-0.07159090332171685,0.6549681919781103,0.6737475076363689,0.33459772464407184,0.36514981589521245,-2.5320213621490066,-1.6585661322162126
1773062931783547648,3.071018695831299,-0.6442821025848389,1.0367543697357178,0.5010342001914978,-0.544775664806366,-0.35688620805740356,0.7588486671447754,-0.14519613981246948,0.01313626766204834,0.09430062770843506,-0.07485747614223537,0.6552085292040698,0.6709143949017221,0.3390750867285279,0.3649324564109341,-2.518955557446896,-1.665720678501967
1773062931793583616,3.0810546875,-0.674091637134552,0.6991546154022217,0.05255146324634552,-0.5525150299072266,-0.3605295419692993,0.7514955401420593,-0.12753862142562866,-0.1601460874080658,-0.031219661235809326,-0.07604149123551257,0.6549479427147971,0.6684242293129793,0.3441945726407953,0.36883555958811814,-2.507617636107181,-1.672664890115105
1773062931803619584,3.091090679168701,-0.4202893376350403,0.3058968484401703,-0.44364801049232483,-0.555481493473053,-0.3658055365085602,0.7467441558837891,-0.1403346061706543,-0.3352290391921997,-0.2459506392478943,-0.07553713021740485,0.653609278348424,0.667957321877458,0.347738582769661,0.3744981702523163,-2.502025509558467,-1.6744040837129825
1773062931813656576,3.1011276245117188,-0.30097654461860657,0.2137054055929184,-0.5873526930809021,-0.5552196502685547,-0.3714078366756439,0.7441689372062683,-0.19903749227523804,-0.3214479684829712,-0.3072945475578308,-0.07425217790715503,0.6514900786178979,0.6690628903125394,0.3498602054401714,0.3805248695304111,-2.500596358122164,-1.6718687171998659
1773062931823692544,3.11116361618042,-0.4595142602920532,0.4440382122993469,-0.24488581717014313,-0.5559069514274597,-0.37674304842948914,0.740966796875,-0.27539175748825073,0.04704645276069641,-0.25305187702178955,-0.07327579612589434,0.6495890891731281,0.6697144224261748,0.3523452369780345,0.3862777628268434,-2.497934475975163,-1.6705238336011046
1773062931833728512,3.121199607849121,-0.02452870085835457,0.6810315847396851,0.17532451450824738,-0.5600916743278503,-0.37899231910705566,0.7366560697555542,-0.31217700242996216,0.5307257175445557,-0.1116255521774292,-0.07422416597065687,0.6486224093605683,0.6690418548172677,0.3551939542851132,0.3887071502345435,-2.491521698095068,-1.6722753238092514
1773062931843764480,3.1312355995178223,0.7396825551986694,0.7962154746055603,0.2762448191642761,-0.5664370656013489,-0.3749367892742157,0.7338747382164001,-0.2814176678657532,0.710004448890686,-0.005374133586883545,-0.0783114356105964,0.6479801979500651,0.6686247273751662,0.35627256554873543,0.38432857329753095,-2.4842571117604013,-1.6719524051120107
1773062931853800704,3.1412718296051025,1.1346266269683838,0.7947981357574463,0.12425689399242401,-0.5732391476631165,-0.3666115403175354,0.7327980995178223,-0.21985173225402832,0.436252623796463,-0.00495380163192749,-0.08456766436899961,0.6468465922110138,0.6693194492656247,0.35559712933071985,0.37536435353879394,-2.4777623329919494,-1.6673803801557527
1773062931863837696,3.15130877494812,1.0801689624786377,0.5158607363700867,-0.1201486736536026,-0.5780667066574097,-0.3583410680294037,0.7330962419509888,-0.19392108917236328,0.02812570333480835,-0.021991074085235596,-0.0904253310883923,0.6451734145783976,0.6710435129759844,0.3539420990068093,0.36649034022971555,-2.473886251815898,-1.659868994317682
1773062931873873664,3.1613447666168213,0.8568790555000305,0.3965311348438263,-0.15883560478687286,-0.580758273601532,-0.3520834743976593,0.7340008020401001,-0.2132481336593628,-0.2622811794281006,-0.10478931665420532,-0.0947953709455355,0.6433901724727322,0.6730895183387537,0.3521554623819066,0.35979619016791753,-2.4722265582149077,-1.6520087644019754
1773062931883909632,3.1713807582855225,0.504231870174408,0.4547157883644104,0.17105524241924286,-0.5837618708610535,-0.34713447093963623,0.7339755892753601,-0.24485152959823608,-0.4176819324493408,-0.04868799448013306,-0.09838184819445879,0.642266427121261,0.6741525346091827,0.3511884540984117,0.35451381727163467,-2.469698228083079,-1.6473028040136348
1773062931893945600,3.1814167499542236,0.09788809716701508,0.536565363407135,0.6980199813842773,-0.588954508304596,-0.34240052103996277,0.7320483326911926,-0.21776247024536133,-0.4480505883693695,0.026939213275909424,-0.1018048281665419,0.6426874567826545,0.6730356619940396,0.3515845499723587,0.349470656363399,-2.464095886935307,-1.6489103313943592
1773062931903981568,3.191452741622925,-0.14688676595687866,0.45341256260871887,1.077901840209961,-0.5957400798797607,-0.3372921049594879,0.7289225459098816,-0.10816311836242676,-0.3746982514858246,0.13638818264007568,-0.1049802755465435,0.6448720770726424,0.6697770325614754,0.352871018585981,0.34403896071067536,-2.456398417371976,-1.6566846461693352
1773062931914018560,3.2014896869659424,-0.14289548993110657,0.2936471402645111,1.1499770879745483,-0.6022940278053284,-0.3316713273525238,0.7261101603507996,0.01966768503189087,-0.3025754988193512,0.26319336891174316,-0.10772746208422491,0.6480786615737506,0.6656193639967531,0.3540334617814866,0.33807462243058306,-2.4491326568130742,-1.667077905529777
1773062931924054528,3.2115256786346436,0.03936506062746048,0.18806356191635132,1.0577716827392578,-0.6076096296310425,-0.3254062235355377,0.7245144248008728,0.12556928396224976,-0.2794979214668274,0.2543521523475647,-0.11026304473616062,0.6513740570442397,0.661792295265969,0.3543794633701729,0.3314413012227267,-2.4437284020171606,-1.6764800973869995
1773062931934090496,3.2215616703033447,0.37349218130111694,0.2361312210559845,0.9752210974693298,-0.6123770475387573,-0.3177122473716736,0.723915159702301,0.1720694899559021,-0.25044873356819153,0.22055810689926147,-0.11340704765205478,0.6542703197363002,0.6587016924028434,0.3538096024126389,0.3233157332895957,-2.4394697791303637,-1.6833553229675278
1773062931944126720,3.231597661972046,0.6659524440765381,0.3194456696510315,0.5827189683914185,-0.6169265508651733,-0.3088746964931488,0.7238767743110657,0.1339859962463379,-0.16576513648033142,0.2848968505859375,-0.11747430337696459,0.6561792700096972,0.6567854751957778,0.3525071069993742,0.314009641627202,-2.4357917567860183,-1.686356364168083
1773062931954163456,3.2416346073150635,-0.24671335518360138,0.5300009846687317,-0.5669500827789307,-0.6200569868087769,-0.30585163831710815,0.722484290599823,0.011994361877441406,0.04199671745300293,0.3857918381690979,-0.12017320662315777,0.6553421974930983,0.657091128677176,0.3525848652412911,0.31083279320873836,-2.432340585407798,-1.6840319011854787
1773062931964199424,3.2516705989837646,-2.6845741271972656,0.7841166853904724,-1.3209335803985596,-0.6216644644737244,-0.32330650091171265,0.7134464383125305,-0.18457931280136108,0.5695682168006897,0.36321359872817993,-0.11550478275090718,0.6516939860498294,0.6572808881458083,0.3604654074218687,0.3292215691169217,-2.424831344975149,-1.6865373893062847
1773062931974235648,3.261706829071045,-2.135114908218384,0.7863526940345764,-0.5260249972343445,-0.6238098740577698,-0.34824976325035095,0.699702262878418,-0.33181750774383545,1.4402297735214233,0.22438520193099976,-0.10766489005766033,0.6483836417609914,0.6553241729249387,0.37223261972033234,0.355703336595311,-2.41347339702239,-1.696921705829414
1773062931984271872,3.271742820739746,0.11673808097839355,0.7155473232269287,0.7342817187309265,-0.6296660304069519,-0.35446441173553467,0.6912854909896851,-0.1130097508430481,1.7174252271652222,0.01614248752593994,-0.10716894329435017,0.6479004029123233,0.6525854948324602,0.3779842032845404,0.3623412279409961,-2.4028085030261086,-1.705194863491875
1773062931994307840,3.2817788124084473,1.6609605550765991,0.5699900984764099,1.0300379991531372,-0.6374596953392029,-0.34166064858436584,0.690589189529419,0.3102959394454956,0.821717381477356,-0.5165626406669617,-0.11423418293364318,0.6492749027732932,0.6509506109597504,0.37637220212743216,0.3486833162688798,-2.396178866538486,-1.7057283909969285
1773062932004344576,3.291815757751465,2.210705280303955,0.3666157126426697,0.2250601053237915,-0.6427491307258606,-0.32339704036712646,0.6944695711135864,0.3119385838508606,-0.15321123600006104,-0.4569512605667114,-0.1234472979002177,0.6494861048455227,0.6522289452430735,0.37084496355342533,0.3293172362738042,-2.394852881525754,-1.6965858583009206
1773062932014380800,3.301851749420166,1.7656817436218262,0.21486002206802368,-0.7168296575546265,-0.6439651250839233,-0.31099143624305725,0.6989941596984863,0.08686685562133789,-0.7657296657562256,-0.21164387464523315,-0.13054983952796725,0.646679629894131,0.6567362843370469,0.36532112884145984,0.3162360200680034,-2.3971475683846006,-1.679709729481769
1773062932024416768,3.311887741088867,0.5793986916542053,0.328903466463089,-0.5845820903778076,-0.643869161605835,-0.30724072456359863,0.7007394433021545,0.009362876415252686,-1.1390330791473389,0.05196136236190796,-0.13410131910458487,0.6429680660173139,0.6610308483234851,0.3628321203254596,0.31229214207941763,-2.398464343075975,-1.665628552023168
1773062932034452736,3.3219237327575684,-0.787601888179779,0.22092027962207794,0.029528746381402016,-0.645110011100769,-0.3097338378429413,0.6984968781471252,0.1355276107788086,-1.1537518501281738,0.27429670095443726,-0.1342604446791198,0.6415804757334929,0.6615307512144428,0.36431533531799415,0.31491308854918265,-2.395907575587006,-1.6642222170781316
1773062932044488704,3.3319597244262695,-2.1287097930908203,-0.02740664780139923,0.4581286311149597,-0.6466431021690369,-0.31792768836021423,0.6933790445327759,0.35077524185180664,-0.7816358804702759,0.40061503648757935,-0.13051948901985216,0.6431900984235434,0.6580243256731968,0.3691545722260906,0.3235429690161456,-2.3910573217875366,-1.6763987076319142
1773062932054525696,3.341996669769287,-3.7472951412200928,-0.40859073400497437,0.5720503926277161,-0.6468261480331421,-0.33506521582603455,0.6850892305374146,0.4160522222518921,-0.11964669823646545,0.33975207805633545,-0.12112440435104962,0.6472638624480646,0.6508410721423349,0.3778680605160247,0.34167443751316545,-2.384914439317471,-1.7022189179176888
1773062932064561664,3.3520326614379883,-3.8577122688293457,-0.6197488307952881,0.3083168864250183,-0.6448420882225037,-0.3589448630809784,0.674787163734436,0.31493163108825684,0.6406677961349487,0.2322259545326233,-0.10745237022203834,0.6520589780847678,0.6420379076320534,0.3886650867223392,0.36713718457551703,-2.378882623322916,-1.7349019902874843
1773062932074597632,3.3620686531066895,-1.5735095739364624,-0.3122466504573822,-0.23400577902793884,-0.6414865255355835,-0.3778507709503174,0.6676256656646729,0.03250819444656372,1.1151249408721924,-0.14705675840377808,-0.09654664649985824,0.6546499181631147,0.6365895967914347,0.39606309100397713,0.38747388546800354,-2.3761589102526948,-1.7564062359724468
1773062932084633600,3.3721046447753906,1.3585890531539917,0.47130802273750305,-0.4189373850822449,-0.6405559182167053,-0.3806964159011841,0.6669020652770996,-0.3489002585411072,0.9048205614089966,-0.3661818504333496,-0.09579457331486355,0.6533846449826193,0.6376045369566609,0.3967018759847851,0.3905493162799522,-2.376342423306356,-1.7541158807772843
1773062932094669568,3.382140636444092,3.0389416217803955,0.9256893992424011,-0.10338687151670456,-0.6445509195327759,-0.36692458391189575,0.6707614064216614,-0.5626025795936584,0.3503839373588562,-0.3834382891654968,-0.10524675602315299,0.6498214619853219,0.6427385005291217,0.39184503531486103,0.37570084332987025,-2.376119069353285,-1.734516035075058
1773062932104706816,3.3921778202056885,2.777468681335449,0.6318456530570984,0.24347379803657532,-0.6503342986106873,-0.3460352420806885,0.6762583255767822,-0.4003554582595825,-0.0177496075630188,-0.27417391538619995,-0.11782721800088687,0.6468295511952556,0.6478739868865274,0.38469169236770884,0.3533419547266746,-2.375733837923058,-1.7127663283122445
1773062932114742784,3.4022138118743896,1.4552216529846191,0.054189011454582214,0.2671884298324585,-0.6536073088645935,-0.3296271860599518,0.6812811493873596,-0.01353764533996582,-0.09891602396965027,-0.015356838703155518,-0.1264282091070272,0.6457532327487996,0.6508788931497985,0.3786495775645645,0.33590866475496195,-2.3769227361021943,-1.6990408286344765
1773062932124778752,3.412249803543091,0.2908668518066406,-0.29786595702171326,0.12326562404632568,-0.6532447338104248,-0.32252344489097595,0.685018002986908,0.27536094188690186,-0.06916961073875427,0.22289514541625977,-0.12907318714363666,0.6461230804785826,0.6519462830635522,0.3752746182944994,0.3283941979045837,-2.379932175877061,-1.6943056498202642
1773062932134814720,3.422285795211792,-0.37260085344314575,-0.465253621339798,0.034399133175611496,-0.6508538722991943,-0.32256075739860535,0.6872724294662476,0.34126847982406616,-0.1499733328819275,0.3029159903526306,-0.1277169534430506,0.6471324489744903,0.6518096364443637,0.3742352836001909,0.3284336082882816,-2.3834038474635095,-1.695428147796715
1773062932144851712,3.4323227405548096,-0.697965681552887,-0.43536871671676636,0.19935177266597748,-0.6478354930877686,-0.32573428750038147,0.6886268258094788,0.24025779962539673,-0.2615155875682831,0.22136181592941284,-0.12452365570597218,0.6487145805155299,0.650755561971304,0.3744070163176462,0.3317882551539541,-2.386706875205331,-1.700218571957972
1773062932154887680,3.4423587322235107,-0.9108944535255432,-0.10140084475278854,0.4275258481502533,-0.6470986604690552,-0.32924309372901917,0.6876498460769653,0.057560086250305176,-0.18363532423973083,-0.12136566638946533,-0.1216187540349146,0.6507882512251878,0.6483051514314654,0.3760105885312471,0.3355018603775525,-2.3865662707703716,-1.7087171855233763
1773062932164923648,3.452394723892212,-0.6286984086036682,0.018950730562210083,0.34134042263031006,-0.6482575535774231,-0.33224982023239136,0.6851075291633606,-0.09519648551940918,0.08600345253944397,-0.2330811619758606,-0.11963374018888272,0.6526270006643616,0.6454701826538309,0.3783306017763035,0.3386879107680328,-2.383824270241312,-1.7177553346369543
1773062932174959616,3.462430715560913,0.11365480720996857,-0.04249665141105652,0.18520036339759827,-0.6490781307220459,-0.3323521316051483,0.6842801570892334,-0.15200817584991455,0.2892308533191681,-0.30715930461883545,-0.11925735182202418,0.6536247833246549,0.6441387439110862,0.37899541102588286,0.338796382163728,-2.382589371173802,-1.7216353518275183
1773062932184995584,3.4724667072296143,0.6192106008529663,-0.11756160855293274,0.1795455515384674,-0.6490718126296997,-0.32856112718582153,0.6861149072647095,-0.08106130361557007,0.22811248898506165,-0.3020358681678772,-0.12058296505371971,0.6541129602563128,0.6443552497066524,0.37736240989269626,0.33477973276993195,-2.3839311247264594,-1.720143765970492
1773062932195032576,3.482503652572632,0.7907543778419495,-0.1258445680141449,0.19419533014297485,-0.648802638053894,-0.3223721385002136,0.6892979145050049,0.04847604036331177,0.051788002252578735,-0.14787030220031738,-0.12288299649887484,0.6545272494633817,0.645169008232044,0.3745008395365325,0.32823433579091393,-2.3864485485738256,-1.7163676980533145
1773062932205068544,3.492539644241333,0.5610334873199463,-0.01666821725666523,0.20213526487350464,-0.6489542722702026,-0.31614887714385986,0.6920320391654968,0.09545689821243286,-0.08987230062484741,0.08917218446731567,-0.1253728664073902,0.6548447984221364,0.6459058003323409,0.37184091033930755,0.32166738416939733,-2.3883073620320294,-1.712700773325236
1773062932215104512,3.502575635910034,0.11511854827404022,-0.052322085946798325,0.22117526829242706,-0.6494114398956299,-0.3126131296157837,0.6932084560394287,0.03919714689254761,-0.2067350447177887,0.30775290727615356,-0.12669458138837406,0.6553810821240379,0.6458171966298385,0.3705999121423001,0.3179427996898279,-2.388803483692924,-1.7120595047054836
1773062932225140480,3.5126116275787354,-0.06690558791160583,-0.08072429895401001,0.3185018301010132,-0.6497879028320312,-0.3106326162815094,0.6937457323074341,-0.05928802490234375,-0.2166348397731781,0.11939513683319092,-0.12708750087428727,0.6563520812666952,0.6450386034104091,0.37010257876742775,0.31585849368983426,-2.3889008923080732,-1.7138866015859833
1773062932235177728,3.522648811340332,-0.37168946862220764,-0.1566651314496994,0.31701895594596863,-0.6499499678611755,-0.3101010322570801,0.6938319802284241,-0.12434208393096924,-0.1468539834022522,-0.16049140691757202,-0.12654515612904518,0.6577735005143059,0.6436225604766874,0.37023028241895806,0.315299292984063,-2.3888384741286477,-1.718032608356011
1773062932245213696,3.532684803009033,-0.18999968469142914,-0.18634852766990662,0.24580587446689606,-0.6495910286903381,-0.31056031584739685,0.6939626336097717,-0.13547372817993164,-0.031785935163497925,-0.27063804864883423,-0.12540871478407778,0.659216719983963,0.6421951714752813,0.3705285997895681,0.3157824344119995,-2.3892080459514133,-1.7225704812533675
1773062932255249664,3.5427207946777344,0.33391520380973816,-0.04398046433925629,0.22683803737163544,-0.6494125127792358,-0.30854424834251404,0.6950278282165527,-0.13281399011611938,0.061351895332336426,-0.3265891671180725,-0.12566908935389703,0.6601480137226323,0.6416529650947188,0.3697206076443875,0.3136622314188933,-2.3901103311980285,-1.7238064028753595
1773062932265285632,3.5527567863464355,0.4809602200984955,0.1428261399269104,0.27323612570762634,-0.6505275964736938,-0.3037923574447632,0.6960774064064026,-0.0994265079498291,-0.02782684564590454,-0.06810200214385986,-0.12778100721921812,0.6605637211567252,0.6416340635183467,0.36828417393176666,0.3086706124399885,-2.3900072404619523,-1.7224736576337814
1773062932275321600,3.5627927780151367,0.01516564842313528,0.29582393169403076,0.2893192172050476,-0.652919590473175,-0.30005696415901184,0.6954581141471863,-0.04977816343307495,-0.12087199091911316,0.282157301902771,-0.12988873087517067,0.6609237203232732,0.6410217625781134,0.36796726168573407,0.3047523636616993,-2.387731969815067,-1.722798215811684
1773062932285358592,3.5728297233581543,-0.1443113535642624,0.18774859607219696,0.20917759835720062,-0.6556360125541687,-0.299221396446228,0.6932591795921326,0.008495450019836426,-0.06795087456703186,0.37365061044692993,-0.13085930388390926,0.6613057618110546,0.639768927138365,0.369115629468589,0.3038765611617701,-2.384079096558542,-1.725622711695441
1773062932295394560,3.5828657150268555,0.05334925279021263,-0.014909698627889156,0.1817864626646042,-0.6565202474594116,-0.2981730103492737,0.6928737759590149,0.0705522894859314,-0.04485979676246643,0.4015781283378601,-0.1312891088857202,0.661799856701875,0.6391070633892806,0.36922392176128294,0.30277801900134865,-2.3831285912445717,-1.7271251827415441
