time,seconds_elapsed,rotationRateX,rotationRateY,rotationRateZ,gravityX,gravityY,gravityZ,accelerationX,accelerationY,accelerationZ,quaternionW,quaternionX,quaternionY,quaternionZ,pitch,roll,yaw
1773062285635973120,0.029706239700317383,0.06412599980831146,0.0552145317196846,0.02045855112373829,0.11427389085292816,-0.4286555051803589,-0.8962119817733765,0.011946819722652435,0.03178966045379639,-0.010541558265686035,0.5990333980555533,0.08915574683097173,0.2096312282474759,0.7676360229258898,0.4430041012684447,0.12682330057521798,1.787694404804344
1773062285646009088,0.039742231369018555,0.029124874621629715,0.057284869253635406,0.027977189049124718,0.11466749012470245,-0.42911118268966675,-0.8959436416625977,-0.0001350194215774536,0.015872657299041748,-0.007971763610839844,0.5988629229369039,0.08911163862515076,0.2099697700369086,0.767681600015225,0.44350851393041163,0.1272931430801158,1.7878880326957691
1773062285656045312,0.04977822303771973,0.001155823701992631,0.05811963602900505,0.04150178283452988,0.11502806842327118,-0.42929065227508545,-0.8958114385604858,-0.006446510553359985,0.0035551786422729492,-0.00883638858795166,0.5986443111336281,0.0889712768295216,0.21018657180265846,0.7678091477541155,0.4437072185437526,0.12770773410999997,1.7882962636971351
1773062285666081280,0.0598142147064209,-0.01534645352512598,0.04254920035600662,0.035650018602609634,0.115305095911026,-0.42927315831184387,-0.8957841992378235,-0.003702305257320404,-0.010515689849853516,-0.007688701152801514,0.598432916520252,0.08879750224507028,0.21029243885927387,0.7679649687871566,0.4436878494436051,0.1280157992159871,1.7887669449705643
1773062285676117248,0.06985020637512207,-0.031573694199323654,0.024845272302627563,0.015194147825241089,0.11550198495388031,-0.4291011095046997,-0.8958412408828735,0.0005105882883071899,-0.01705065369606018,-0.003588080406188965,0.5983079310455597,0.08862539972382506,0.21029718968695668,0.7680809623960854,0.4434973587065355,0.12822393260247003,1.7890817098705996
1773062285686153216,0.07988619804382324,-0.033572129905223846,0.021979976445436478,0.011301938444375992,0.1156567633152008,-0.428798109292984,-0.8959663510322571,0.007542692124843597,-0.01640760898590088,-0.0008842349052429199,0.598258650138939,0.08844526798325514,0.21022429546298815,0.7681600336953445,0.44316193503014684,0.12837614711343945,1.7892495294432422
1773062285696189184,0.08992218971252441,-0.018399102613329887,0.021267680451273918,0.002386340405791998,0.11581679433584213,-0.42857298254966736,-0.8960534334182739,0.010251343250274658,-0.011917740106582642,-0.0027807950973510742,0.5982197499881804,0.08829295500778102,0.21018479719725383,0.768218718133858,0.44291275000043095,0.12853947125660994,1.7893666542346316
1773062285706224128,0.09995722770690918,-0.0006091860122978687,0.0162257831543684,0.0040873014368116856,0.11597973853349686,-0.42847657203674316,-0.8960784077644348,0.006670422852039337,-0.008031606674194336,-0.0016724467277526855,0.5982046276365577,0.08819072428204831,0.21019795497208743,0.7682385999822626,0.44280605090751274,0.12871477668081122,1.789383787873753
1773062285716260096,0.10999321937561035,0.014509978704154491,0.026020824909210205,0.012906093150377274,0.11612747609615326,-0.4285447895526886,-0.8960266709327698,0.0009074285626411438,-0.0037367045879364014,-0.008636415004730225,0.5981547075683252,0.08814218098732139,0.21027987808462048,0.7682605720424626,0.4428815716730295,0.1288842860137639,1.7894489112146093
1773062285726296064,0.12002921104431152,0.026850268244743347,0.03104833886027336,0.025074342265725136,0.11628209054470062,-0.42877721786499023,-0.8958954215049744,-0.0047556012868881226,0.004079341888427734,-0.011315882205963135,0.5980382789572998,0.0881296749077796,0.2104410893933165,0.7683085500885609,0.4431388199489029,0.12907268422413357,1.7896382034985294
1773062285736332288,0.1300652027130127,0.011377568356692791,0.021725278347730637,0.019046097993850708,0.11641807854175568,-0.42899391055107117,-0.8957740068435669,-0.007226184010505676,0.000328749418258667,-0.008278727531433105,0.5979086258045008,0.08811545379458295,0.2105912165038534,0.7683699284808018,0.4433786813926158,0.12923927951655828,1.7898717976277516
1773062285746368256,0.14010119438171387,-0.0232645645737648,0.012303547002375126,0.016690265387296677,0.1164882555603981,-0.4289522171020508,-0.895784854888916,-0.009020589292049408,-0.013598442077636719,-0.0018744468688964844,0.5978273260199659,0.08805085117798027,0.21060536046658213,0.76843677819589,0.4433325441751875,0.1293147683819411,1.7900741062418613
1773062285756404224,0.15013718605041504,-0.023246120661497116,0.01578686200082302,0.004850784782320261,0.11655274033546448,-0.42875418066978455,-0.8958712816238403,-0.0065063610672950745,-0.020342469215393066,0.010754704475402832,0.5977875015553474,0.08794562931464812,0.21054675373846538,0.7684958059281504,0.4431133341024242,0.12937322021447387,1.7902147133060502
1773062285766440192,0.1601731777191162,-0.005234630778431892,0.02365623600780964,0.0057871523313224316,0.11669864505529404,-0.4286084771156311,-0.8959220051765442,-0.00320376455783844,-0.019633710384368896,0.01524573564529419,0.597759020208288,0.0878293865187754,0.2105350511058123,0.7685344026204234,0.44295204793779197,0.12952611330754102,1.790285883284806
1773062285776476160,0.17020916938781738,0.005567017011344433,0.025523310527205467,0.012262273579835892,0.1168750450015068,-0.42862874269485474,-0.8958892822265625,-0.0040362924337387085,-0.018255382776260376,0.0117950439453125,0.5976878871450273,0.08774694495766379,0.2106082371575957,0.7685791108413481,0.4429744943903203,0.12972440238347593,1.7904112857292895
1773062285786512128,0.18024516105651855,0.015027630142867565,0.019838793203234673,0.01742853969335556,0.11702421307563782,-0.4287450909614563,-0.8958141207695007,-0.006489560008049011,-0.014843165874481201,0.011033236980438232,0.5976004689852655,0.08770418908557243,0.21071523749862026,0.768622561864359,0.4431032723279995,0.12989888856568568,1.790559455740108
1773062285796548096,0.19028115272521973,0.02191869169473648,0.015452900901436806,0.02211019955575466,0.11709700524806976,-0.42893296480178833,-0.8957147002220154,-0.00541793555021286,-0.00943678617477417,0.005776345729827881,0.5975037712489949,0.08771397453456226,0.2108291266195616,0.7686653827843606,0.4433112282179748,0.12999305223106744,1.7907347443036186
1773062285806584064,0.2003171443939209,0.027789629995822906,0.02437662146985531,0.025545144453644753,0.11718247085809708,-0.42915552854537964,-0.8955968618392944,-0.0031077638268470764,-0.010007649660110474,0.006726682186126709,0.5973907446698135,0.08772626580370692,0.2109636412929104,0.7687149493766559,0.4435576230768451,0.13010377932030767,1.7909386915638632
1773062285816620288,0.21035337448120117,0.03593790531158447,0.02673049084842205,0.027259642258286476,0.11728804558515549,-0.42947274446487427,-0.8954309821128845,-0.002557210624217987,-0.014298588037490845,0.009429454803466797,0.5972544956032748,0.08775700328439512,0.21114735583912064,0.7687669440417443,0.44390885424211535,0.13024353210182862,1.7911696831011343
1773062285826655232,0.22038817405700684,0.019988499581813812,0.01871810294687748,0.027796534821391106,0.1173643171787262,-0.42979609966278076,-0.8952658176422119,-0.00042095035314559937,-0.01524171233177185,0.01178199052810669,0.5971107072635008,0.08779941851340797,0.21132519707355768,0.7688249054508306,0.4442669379665191,0.1303510404239207,1.7914270700503074
1773062285836691200,0.230424165725708,-0.010901304893195629,0.022651558741927147,0.028742093592882156,0.11742735654115677,-0.42992639541625977,-0.8951950073242188,-0.0012469440698623657,-0.021016597747802734,0.01795196533203125,0.5969793265149708,0.08778347865250705,0.2114155937717645,0.7689039062889689,0.44441125225389594,0.13043046961614874,1.7917119185910597
1773062285846727168,0.24046015739440918,-0.03866742178797722,0.02370590530335903,0.021074585616588593,0.11751754581928253,-0.42979052662849426,-0.8952484130859375,-0.004053182899951935,-0.030841797590255737,0.0216827392578125,0.5968613711280585,0.08766812267009662,0.2114003151297594,0.7690128170263504,0.44426078069109914,0.13052181072799485,1.7920301490271906
1773062285856763136,0.25049614906311035,-0.06427311897277832,0.02284027636051178,0.027849799022078514,0.117605060338974,-0.4294050931930542,-0.8954218626022339,-0.008977748453617096,-0.0379410982131958,0.025503039360046387,0.5967620000914923,0.0874724328299535,0.2112762280522104,0.769146255967277,0.44383393756219097,0.13059289615714303,1.792372621004806
1773062285866799104,0.2605321407318115,-0.07059226930141449,0.019338220357894897,0.03776688128709793,0.1176130548119545,-0.42886194586753845,-0.8956810832023621,-0.010404810309410095,-0.03926244378089905,0.02100151777267456,0.5966338638082909,0.08724586131223604,0.2110630804768594,0.7693299289583494,0.44323262807225416,0.13056430766766317,1.7928597277087341
1773062285876835328,0.2705683708190918,-0.04904482886195183,0.03179425746202469,0.03217180073261261,0.11766553670167923,-0.42838528752326965,-0.8959022760391235,-0.010014772415161133,-0.03209444880485535,0.017026543617248535,0.5964922498311275,0.08702109313197413,0.210893795546146,0.7695116726152196,0.442705036446965,0.13059001804102172,1.7933489403420446
1773062285886871296,0.28060436248779297,-0.010405290871858597,0.04102024808526039,0.0350823700428009,0.11783133447170258,-0.4281857907772064,-0.8959758281707764,-0.009204007685184479,-0.02019372582435608,0.008814573287963867,0.5963343775607055,0.08684292206729607,0.21088002333853834,0.7696578933106922,0.44248426220477316,0.13076132268594806,1.7937656865117606
1773062285896907264,0.29064035415649414,0.03224117308855057,0.04975125566124916,0.04756908491253853,0.11805913597345352,-0.42838022112846375,-0.8958529233932495,-0.011186562478542328,-0.004862576723098755,-0.0019742250442504883,0.5961085833499288,0.08675780627169805,0.21106072160752537,0.7697928752493041,0.44269943162694675,0.13102901226819977,1.7942269019449322
1773062285906943232,0.3006763458251953,0.06233835592865944,0.0594417005777359,0.05534737929701805,0.1183052584528923,-0.42892926931381226,-0.8955576419830322,-0.010990209877490997,0.011570900678634644,0.002292931079864502,0.5958173971557301,0.08677006422959531,0.21140511350582442,0.7699223777100276,0.44330715350481653,0.13134184334204205,1.7947500273643435
1773062285916979200,0.3107123374938965,0.05375072732567787,0.053440529853105545,0.055542416870594025,0.1185680404305458,-0.42952924966812134,-0.8952353000640869,-0.008597955107688904,0.018411695957183838,0.002031564712524414,0.5955072066904302,0.08678793707765067,0.21177867874739537,0.7700575814980659,0.4439714120558711,0.1316770806876714,1.7953020069792291
1773062285927015424,0.32074832916259766,0.029990799725055695,0.038529492914676666,0.04704267159104347,0.11874725669622421,-0.42996880412101746,-0.8950005173683167,-0.006167896091938019,0.005316704511642456,0.00642019510269165,0.5952296382906531,0.08679230681851029,0.2120538329197469,0.7701961409639747,0.4444582129417082,0.13190799911138515,1.7958415168659734
1773062285937051392,0.33078432083129883,0.007602937053889036,0.03486098721623421,0.03781312704086304,0.11888891458511353,-0.43018344044685364,-0.8948785662651062,-0.004936277866363525,-0.015678375959396362,0.007396876811981201,0.595019166790975,0.08675224429248608,0.2122139598062109,0.770319147105661,0.444695980618746,0.13208133303020306,1.7962823571481057
1773062285947086336,0.3408193588256836,0.004697428550571203,0.033100105822086334,0.03865921497344971,0.11902302503585815,-0.4302702844142914,-0.8948190212249756,-0.005482368171215057,-0.026516824960708618,0.007352590560913086,0.5948278086596177,0.08667619465261284,0.21231518695645576,0.7704475891578172,0.4447921570272549,0.13223729183799915,1.7967127616598757
1773062285957122304,0.35085535049438477,0.026257647201418877,0.03865056484937668,0.038357168436050415,0.11916451901197433,-0.4304409623146057,-0.8947180509567261,-0.006966635584831238,-0.021844834089279175,0.0030249357223510742,0.5946258884057005,0.08662325752183314,0.21245559856127708,0.7705706273937999,0.44498124379487897,0.13240743164532842,1.7971437551253768
1773062285967158272,0.36089134216308594,0.043645694851875305,0.043692730367183685,0.04819062352180481,0.11935450881719589,-0.4308166801929474,-0.894511878490448,-0.0037081316113471985,-0.008331269025802612,0.00013321638107299805,0.5943961675772472,0.08661414158473074,0.2127017889499433,0.7706810111500426,0.4453975589194156,0.132646276340235,1.7975728205050017
1773062285977194240,0.3709273338317871,0.030238540843129158,0.04435998201370239,0.05681207403540611,0.1195385605096817,-0.4312259256839752,-0.8942900896072388,-0.0009472295641899109,0.0009280741214752197,-0.0016144514083862305,0.5941235211819464,0.08660702192586818,0.21296521554420775,0.7708193137360945,0.4458511044360562,0.13288098751659555,1.798105029767043
1773062285987230208,0.3809633255004883,-0.01770022138953209,0.04480952396988869,0.06668362021446228,0.11966799199581146,-0.43137025833129883,-0.8942031264305115,-0.0023126527667045593,0.0003552436828613281,-0.0006638169288635254,0.5938228841283734,0.08652228681370586,0.2131016605476731,0.7710226812912612,0.4460110616977851,0.13303596113061747,1.7988029079145473
1773062285997266176,0.39099931716918945,-0.05464285984635353,0.032327521592378616,0.07180394232273102,0.11970854550600052,-0.431094229221344,-0.8943308591842651,-0.005038730800151825,-0.011593759059906006,0.0005015134811401367,0.5935347320420498,0.08633119782291408,0.21302934626144182,0.7712859672523575,0.4457051171541815,0.1330617383894448,1.799617849840541
1773062286007302400,0.4010353088378906,-0.04230283573269844,0.023658931255340576,0.06772930920124054,0.11966652423143387,-0.43072938919067383,-0.8945122361183167,-0.006934598088264465,-0.018886089324951172,0.00512319803237915,0.5932574737051929,0.08614552358945138,0.21289159917161873,0.7715580257365132,0.4453008323396799,0.1329889193545194,1.8004551981416692
1773062286017338368,0.4110713005065918,0.0013487697578966618,0.024245761334896088,0.06736897677183151,0.1195615828037262,-0.430611789226532,-0.8945828676223755,-0.00328962504863739,-0.01703527569770813,0.011968731880187988,0.5929739596615425,0.08606859865773826,0.21283975536067637,0.7717987810985174,0.44517053750393404,0.13286329766200802,1.801256206080573
1773062286027374336,0.42110729217529297,0.0577598474919796,0.0411541685461998,0.07711135596036911,0.11955427378416061,-0.43097245693206787,-0.8944101333618164,0.0017683804035186768,-0.004284501075744629,0.007920265197753906,0.5926492470040114,0.08610623171899608,0.21302731676239653,0.771992246270152,0.44557017944554317,0.1328806180617574,1.8019957206412796
1773062286037410304,0.43114328384399414,0.08642943948507309,0.05831458047032356,0.08660898357629776,0.11964849382638931,-0.43172526359558105,-0.8940344452857971,0.003444172441959381,0.016014814376831055,0.005896627902984619,0.5922378983955754,0.08621444522229936,0.21342412200529112,0.7721862333924803,0.44640459919404424,0.1330393424849441,1.8028145502918353
1773062286047446272,0.4411792755126953,0.06535371392965317,0.06114978343248367,0.094408318400383,0.11980195343494415,-0.43254613876342773,-0.8936169743537903,0.002924494445323944,0.024541378021240234,0.007050812244415283,0.5917856052848302,0.08631091792293623,0.213873630001865,0.7723977699454457,0.44731486543373644,0.1332694572557939,1.8037004252772741
1773062286057481216,0.4512143135070801,0.012943307869136333,0.061515603214502335,0.09541317820549011,0.1199323982000351,-0.43301355838775635,-0.8933730721473694,0.002183675765991211,0.011520057916641235,0.017381250858306885,0.5913400944205325,0.08629643281309084,0.2141643971756103,0.772659911305103,0.4478333596849134,0.13344885327859843,1.8046775325224371
1773062286067517184,0.46125030517578125,-0.04431891441345215,0.050678666681051254,0.10047131776809692,0.12000411748886108,-0.4329887330532074,-0.8933755159378052,0.002188265323638916,-0.012339025735855103,0.026859402656555176,0.5909024507743772,0.08613794151366388,0.21422537091898441,0.7729954669486032,0.44780579461989484,0.13352734900305804,1.8057951582418734
1773062286077553152,0.4712862968444824,-0.09107556939125061,0.055947959423065186,0.12683524191379547,0.11998725682497025,-0.4325225055217743,-0.8936035633087158,0.005073770880699158,-0.030215531587600708,0.035357773303985596,0.5904354165014153,0.08585501546614961,0.21407273378052336,0.7734259333145594,0.4472886282926167,0.13347513935213068,1.8071433452474002
1773062286087589376,0.4813222885131836,-0.12952177226543427,0.06008651480078697,0.15497766435146332,0.11989376693964005,-0.4316893219947815,-0.8940188884735107,0.010797753930091858,-0.036221444606781006,0.04059481620788574,0.5898701472501721,0.08545001370231937,0.21374950082627392,0.7739913069061457,0.44636477036451055,0.13331113759463603,1.8088741456039907
1773062286097625344,0.49135828018188477,-0.16950400173664093,0.07152695953845978,0.20052264630794525,0.11972520500421524,-0.43055450916290283,-0.8945885300636292,0.021250739693641663,-0.02694973349571228,0.044841885566711426,0.5891765722770604,0.08493724077988118,0.21328710352314834,0.7747033225532189,0.44510706991103954,0.13304214688500968,1.81104405814694
1773062286107661312,0.5013942718505859,-0.2166006714105606,0.0808568075299263,0.2491234689950943,0.11943301558494568,-0.42910945415496826,-0.8953216671943665,0.031339071691036224,-0.013929516077041626,0.052563488483428955,0.588305828277961,0.08432088055834513,0.21267149645374106,0.7756011432981347,0.4435066005840208,0.13261386382818544,1.8137936547063753
1773062286117697280,0.5114302635192871,-0.2981407642364502,0.0948159322142601,0.29858851432800293,0.11902891099452972,-0.4271491765975952,-0.8963122963905334,0.041249409317970276,-0.014119744300842285,0.06481510400772095,0.5872536322741307,0.0835269109287244,0.2118185841935073,0.7767170658243333,0.4413374922613075,0.1320259873332844,1.8171844270933988
1773062286127733248,0.5214662551879883,-0.41447746753692627,0.1078672856092453,0.35997891426086426,0.11854211241006851,-0.4243714511394501,-0.8976951837539673,0.051288217306137085,-0.02310776710510254,0.08145678043365479,0.5860095816784802,0.08244109413368744,0.21060835111132503,0.7781004833009654,0.4382676296466708,0.13129200787643724,1.8213120427287481
1773062286137769216,0.5315022468566895,-0.5563499331474304,0.11367164552211761,0.42449942231178284,0.11785594373941422,-0.4204707145690918,-0.8996189832687378,0.062396109104156494,-0.032349079847335815,0.09979909658432007,0.5845588155113284,0.08100829268381546,0.20887355776843708,0.7798078983085998,0.43396407208716,0.1302646616026671,1.8263221767960218
1773062286147805184,0.5415382385253906,-0.7398276329040527,0.11026972532272339,0.5045510530471802,0.11690109968185425,-0.41517961025238037,-0.9021973013877869,0.07648878544569016,-0.03535136580467224,0.12801218032836914,0.5828802719027089,0.07916971785460258,0.20647879998160326,0.7818881954310339,0.4281402197960073,0.12885582850693605,1.8323409541440927
1773062286157841152,0.5515742301940918,-0.9715148210525513,0.11462002992630005,0.6067683696746826,0.11562196910381317,-0.408098042011261,-0.905586838722229,0.09607846289873123,-0.035474956035614014,0.1581045389175415,0.5809147575752087,0.0768124477749611,0.20323983184114297,0.7844305885457764,0.4203697620008403,0.12698923750636712,1.839607417092537
1773062286167877120,0.561610221862793,-1.2430944442749023,0.1163441613316536,0.7314327955245972,0.1139562800526619,-0.39879900217056274,-0.909930408000946,0.11677186191082001,-0.039799630641937256,0.20146483182907104,0.5785778654446435,0.073820298934588,0.19896073217699017,0.7875358795758741,0.41020683528154694,0.12458761904199168,1.8484094848398307
1773062286177913088,0.5716462135314941,-1.5692272186279297,0.10964887589216232,0.8355859518051147,0.11190982162952423,-0.38684526085853577,-0.915328860282898,0.13685420155525208,-0.05540022253990173,0.24812304973602295,0.5758675887106074,0.07007963621662967,0.19345391399537376,0.7912274042691981,0.39720803593588794,0.12165809064699257,1.8587764990208977
1773062286187948288,0.5816812515258789,-1.9603800773620605,0.10725922137498856,0.9488410949707031,0.10952427983283997,-0.37161749601364136,-0.9219028353691101,0.15368983149528503,-0.08823662996292114,0.2949802279472351,0.5728060649322917,0.06542292977148159,0.1864629040493242,0.7955153302210439,0.38075068483583757,0.11824816652611583,1.8706754589179
1773062286197984256,0.5917172431945801,-2.3500537872314453,0.11139064282178879,1.043468713760376,0.10691596567630768,-0.3526555895805359,-0.9296252131462097,0.16284415125846863,-0.1261194348335266,0.3427721858024597,0.5694079006802852,0.059717749925057795,0.1778234825938618,0.800366936706057,0.3604075078449573,0.11450665478132999,1.8839930536511724
1773062286208020224,0.6017532348632812,-2.948730945587158,0.2498401403427124,1.5667177438735962,0.10421837121248245,-0.32956579327583313,-0.9383628964424133,0.17445290088653564,-0.15500757098197937,0.38909226655960083,0.56510103971275,0.05273760709306594,0.1674434114731439,0.8061279957909556,0.33584364159211494,0.11061071799971643,1.900021201844772
1773062286218056192,0.6117892265319824,-3.3586134910583496,-0.12022017687559128,1.4855810403823853,0.09910805523395538,-0.3010442554950714,-0.9484460353851318,0.18209615349769592,-0.1806451678276062,0.4192407727241516,0.5593045924487213,0.045048337258743035,0.15410261120011756,0.8132658022012421,0.3057875154858848,0.10411732660037194,1.9206517278120394
1773062286228092160,0.6218252182006836,-3.595319986343384,-0.0812046006321907,1.1542431116104126,0.09462141990661621,-0.2688843607902527,-0.9585134387016296,0.2467787265777588,-0.21503287553787231,0.44944971799850464,0.5549039128966932,0.036597505078881695,0.13929792017457132,0.8193523513018732,0.27223454082638093,0.09839803829113006,1.937521444935772
1773062286238128128,0.6318612098693848,-3.913689613342285,0.05028292164206505,1.8414673805236816,0.09131048619747162,-0.23404301702976227,-0.9679288268089294,0.3220806121826172,-0.27300652861595154,0.4618864059448242,0.549621572316572,0.02705102618010807,0.1237085963632569,0.8257605557239188,0.23623412653610978,0.09405759236879574,1.9559029685603242
1773062286248164096,0.6418972015380859,-4.045499801635742,-0.06670814752578735,2.100675344467163,0.08665129542350769,-0.1969689279794693,-0.9765729904174805,0.06349518895149231,-0.3077002763748169,0.42605113983154297,0.5415458943369212,0.01741836096492214,0.10681810530469839,0.8336753549394693,0.1982653165257978,0.08849821110570442,1.9806133791449396
1773062286258200064,0.6519331932067871,-4.04403829574585,-0.060176607221364975,2.059824228286743,0.08234560489654541,-0.15885041654109955,-0.9838626980781555,0.1476806402206421,-0.24489712715148926,0.4195316433906555,0.5331679515165685,0.007774012498648342,0.08948871651390924,0.8412273267754912,0.15952617540224734,0.08350162671170958,2.005112910526236
1773062286268236288,0.6619691848754883,-4.142233371734619,0.017016975209116936,2.1110646724700928,0.0792178213596344,-0.12012135982513428,-0.9895935654640198,0.2829800546169281,-0.2600818872451782,0.4087372422218323,0.5244287486403633,-0.002117404252220494,0.07210230155748752,0.8483932730753457,0.12041212654571377,0.07988053003248693,2.0294677525349725
1773062286278272256,0.6720051765441895,-4.325031757354736,0.03460206091403961,2.346021890640259,0.07730583846569061,-0.07973277568817139,-0.9938141107559204,0.1411084681749344,-0.2897130250930786,0.3838440179824829,0.5147781512643176,-0.012584834891155226,0.05417162718261722,0.8555176987456213,0.0798174992403142,0.0776306952124947,2.055131628422455
1773062286288308224,0.6820411682128906,-4.558548927307129,-0.009112129919230938,2.5560412406921387,0.07602798193693161,-0.037300605326890945,-0.9964077472686768,0.1653355360031128,-0.27736613154411316,0.33719760179519653,0.5037701346347598,-0.023445022386644254,0.03530516240590338,0.8627974620507578,0.037309259900703086,0.0761545184206483,2.0832067367187057
1773062286298343168,0.6920762062072754,-4.808928966522217,-0.0683160275220871,2.6603472232818604,0.07520928978919983,0.0075829592533409595,-0.9971389174461365,0.21740850806236267,-0.30580073595046997,0.31877899169921875,0.4917333585938557,-0.034627116311956106,0.01521492612429159,0.8699239415413874,-0.007583032069904142,0.0752825408875508,2.1129106583913817
1773062286308379136,0.7021121978759766,-5.009720802307129,-0.1369321197271347,2.7413737773895264,0.07503245025873184,0.05468136444687843,-0.9956806898117065,0.23511768877506256,-0.33376461267471313,0.3194875121116638,0.4789086698148249,-0.046081198530368475,-0.006013908869741113,0.8766338509100614,-0.054708649912349874,0.07521577952871758,2.143649184429135
1773062286318415104,0.7121481895446777,-5.129735946655273,-0.22952556610107422,2.886415958404541,0.07542765885591507,0.10318248718976974,-0.9917984008789062,0.21868549287319183,-0.36433666944503784,0.31621551513671875,0.4651702554505122,-0.057532251563150894,-0.028121979198956336,0.8829019922097641,-0.10336646090268059,0.07590529089933219,2.175705156479005
1773062286328451072,0.7221841812133789,-5.141108512878418,-0.3299773335456848,3.0794074535369873,0.07645337283611298,0.15194888412952423,-0.9854270219802856,0.21541675925254822,-0.3744678199291229,0.30332863330841064,0.4502243140593432,-0.0686828695775414,-0.050686804612916594,0.8888259603608174,-0.15253976224725987,0.07742889450628712,2.2097835946333766
1773062286338487040,0.7322201728820801,-5.153780937194824,-0.3742947280406952,3.200300693511963,0.07853162288665771,0.20013687014579773,-0.9766156077384949,0.24464952945709229,-0.35974380373954773,0.2795483469963074,0.4341281663128799,-0.07948882912605403,-0.07330571645064274,0.8943381034038356,-0.20149761524328794,0.08023936398752544,2.245879684354345
1773062286348523264,0.7422561645507812,-5.3161091804504395,-0.3673052489757538,3.2449898719787598,0.08208554238080978,0.24839843809604645,-0.9651736617088318,0.2737494111061096,-0.33786070346832275,0.2418307662010193,0.41721983865300677,-0.09029530012409981,-0.09622852674333869,0.8991743907863462,-0.25102651815245774,0.0848432671652571,2.2834286889674433
1773062286358559232,0.7522921562194824,-5.694658279418945,-0.3940620422363281,3.257448673248291,0.08746650069952011,0.2984837591648102,-0.9503983855247498,0.2832610607147217,-0.3084782660007477,0.20123761892318726,0.3996701170201489,-0.10166123645296986,-0.12027389795947785,0.9030298635499696,-0.30310359885732263,0.09177289139789661,2.322272100395684
1773062286368595200,0.7623281478881836,-6.171991348266602,-0.5514649748802185,3.3279926776885986,0.09378179162740707,0.35150429606437683,-0.9314771294593811,0.27319207787513733,-0.2691679298877716,0.20303785800933838,0.38122547902030823,-0.1133569897320221,-0.1463270846256827,0.9057624721804195,-0.3591774681583127,0.10034258513724507,2.363057144162565
1773062286378631168,0.7723641395568848,-6.708394527435303,-0.7497168183326721,3.417438507080078,0.10063590854406357,0.407677561044693,-0.9075634479522705,0.25129279494285583,-0.246544748544693,0.2171642780303955,0.36147477313710424,-0.12511663128276504,-0.17482591555755228,0.9072583737136009,-0.4199092225354673,0.11043465953453753,2.4068521717911726
1773062286388667392,0.782400369644165,-7.226274013519287,-0.9639734625816345,3.469862222671509,0.10802578926086426,0.4665033221244812,-0.877898097038269,0.25725436210632324,-0.2466394305229187,0.18342483043670654,0.3403634326075954,-0.13674171578591995,-0.20579758742644977,0.90724960703817,-0.4853334407167753,0.12243501461869515,2.454115218033022
1773062286398703360,0.7924363613128662,-7.743276119232178,-1.180021047592163,3.3997695446014404,0.11598795652389526,0.5272680521011353,-0.8417453765869141,0.28565388917922974,-0.27017271518707275,0.14396095275878906,0.3181667982072113,-0.14810289644043065,-0.23915026682763293,0.9053411905386061,-0.5553821172053666,0.13693227299057673,2.504780443882884
1773062286408739328,0.8024723529815674,-8.158254623413086,-1.4509189128875732,3.290250301361084,0.1239004135131836,0.5887771248817444,-0.7987428903579712,0.2988443374633789,-0.2817702889442444,0.1358705759048462,0.295182405262751,-0.15870027610519238,-0.2746684824830337,0.9012429711839267,-0.6295451143957181,0.1538927642156084,2.5587548790468726
1773062286418775296,0.8125083446502686,-8.420571327209473,-1.7213321924209595,3.2191905975341797,0.1317726969718933,0.6491028666496277,-0.7492005228996277,0.3145774006843567,-0.22969985008239746,0.14014595746994019,0.27136674040067527,-0.16812066270063405,-0.31166519530844783,0.8949638654416718,-0.706404519521154,0.17410368337054405,2.617110443800178
1773062286428810240,0.8225431442260742,-8.565950393676758,-1.9396504163742065,3.159628391265869,0.14020641148090363,0.7062885761260986,-0.693901002407074,0.32259267568588257,-0.15872693061828613,0.17469024658203125,0.24671640116197913,-0.1762568717762591,-0.3492606509678201,0.8866124303441153,-0.7842417366032903,0.19937106142229344,2.6814620053057485
1773062286438846464,0.8325793743133545,-8.775283813476562,-2.0673508644104004,3.0259695053100586,0.14965076744556427,0.7594934701919556,-0.6330673694610596,0.3065107464790344,-0.08923590183258057,0.18674778938293457,0.22147745504979457,-0.1832831707001562,-0.38713511462879824,0.8760601752556886,-0.8625341361690526,0.23212877527357867,2.753542761825545
1773062286448882432,0.8426153659820557,-9.072704315185547,-2.1516551971435547,2.8027281761169434,0.15991121530532837,0.8086745738983154,-0.5661041736602783,0.24658291041851044,-0.01863551139831543,0.16540837287902832,0.1960948062091271,-0.18936446342210464,-0.425545551301675,0.8629015084629177,-0.9418954653203552,0.2753038341449411,2.835513934035583
1773062286458918400,0.8526513576507568,-9.245504379272461,-2.258206367492676,2.551417112350464,0.17052939534187317,0.8530963659286499,-0.49309879541397095,0.16672036051750183,0.0747295618057251,0.12389713525772095,0.17084910490498098,-0.19435029689156813,-0.4644120678125773,0.8469710895707264,-1.0218912986822986,0.33295696148127696,2.9313446284717513
1773062286468954368,0.862687349319458,-8.80826473236084,-2.4682748317718506,2.208719491958618,0.18068405985832214,0.8903151154518127,-0.41796210408210754,0.10300734639167786,0.17593854665756226,0.09774112701416016,0.14617102071815175,-0.1974425882662918,-0.5020312527689209,0.8292256100559273,-1.098036733470261,0.4080356102719824,3.0444303181660857
1773062286478990336,0.8727233409881592,-8.1284761428833,-2.708160877227783,1.802234172821045,0.18897464871406555,0.9190860390663147,-0.34578824043273926,0.08754511177539825,0.2313656210899353,0.11313748359680176,0.12275062827139595,-0.19771988546396727,-0.53666816984919,0.8110650196428981,-1.1657548145378898,0.5001551726283909,-3.108336378680229
1773062286489026304,0.8827593326568604,-7.263781547546387,-2.870689868927002,1.5231349468231201,0.19564811885356903,0.9400845766067505,-0.27921822667121887,0.11277778446674347,0.2623995542526245,0.15984874963760376,0.10074017832764406,-0.19537609377184814,-0.5676434332525507,0.7933854902934987,-1.222878275918819,0.6111953712839462,-2.9588559958884253
1773062286499062272,0.8927953243255615,-6.139139175415039,-2.911177635192871,1.4425221681594849,0.20237895846366882,0.9540015459060669,-0.22118736803531647,0.13993671536445618,0.4054192304611206,0.20748496055603027,0.07997028440614554,-0.19129033934472447,-0.5939817514039772,0.7773020251827074,-1.2663114775770303,0.7410224321885484,-2.791157830050743
1773062286509098240,0.9028313159942627,-5.037328720092773,-2.749525785446167,1.4698790311813354,0.21076525747776031,0.9620203971862793,-0.17347872257232666,0.13042126595973969,0.6597752571105957,0.20633089542388916,0.06043387765233472,-0.18669214772307363,-0.6151476872567476,0.7636014345825947,-1.2943094378937987,0.8821339745249033,-2.6141708888753628
1773062286519134208,0.9128673076629639,-4.3299736976623535,-2.5172667503356934,1.4431854486465454,0.22085511684417725,0.9660330414772034,-0.1341751664876938,0.06628476083278656,0.8676460385322571,0.14233864843845367,0.042317705128247556,-0.18245237283849852,-0.6321578506351363,0.7518621250017156,-1.3094114291487222,1.0248615693250076,-2.4387265894281467
1773062286529170176,0.922903299331665,-4.147277355194092,-2.4096930027008057,1.2989728450775146,0.23134516179561615,0.9678325653076172,-0.09889126569032669,-0.04978083074092865,0.925630509853363,0.06289578229188919,0.025501867321198152,-0.17841956241975052,-0.6470864130165439,0.7408071692976331,-1.3164682701656643,1.1668421794844297,-2.266520111186063
1773062286539206144,0.9329392910003662,-4.47896671295166,-2.522150993347168,1.1264604330062866,0.24110431969165802,0.9684349298477173,-0.0632641538977623,-0.1888734996318817,0.8101141452789307,-0.00027345865964889526,0.009068722152454805,-0.17358388922268322,-0.6619943777582192,0.7290745794532899,-1.3188734894558094,1.3141878309583892,-2.088517939508983
1773062286549241344,0.942974328994751,-5.20877742767334,-2.4083659648895264,0.981621265411377,0.25029104948043823,0.9679117202758789,-0.022389287129044533,-0.30769461393356323,0.5685415267944336,-0.04752647876739502,-0.007189699251938601,-0.16821844428850227,-0.6786073322902583,0.7149426191957159,-1.3167830742073046,1.4815807715802343,-1.89009721975043
1773062286559277312,0.9530103206634521,-6.072591304779053,-2.103769063949585,0.7919064164161682,0.25896671414375305,0.9655216932296753,0.02653343603014946,-0.36806708574295044,0.30481821298599243,-0.14462125301361084,-0.022845149283701245,-0.16283770791301094,-0.6976751382024428,0.6972885498964173,-1.3074399119631772,1.6728988962897389,-1.6687349388609358
1773062286569313280,0.9630463123321533,-6.810990810394287,-1.8895111083984375,0.5569577813148499,0.26656946539878845,0.9601730108261108,0.0837181806564331,-0.42280420660972595,0.08162087202072144,-0.1715019941329956,-0.03740666232117961,-0.15741648313963874,-0.7190821517937355,0.6758266982476939,-1.2876206674994428,1.87509965191814,-1.4381391877575243
1773062286579349248,0.9730823040008545,-7.301004409790039,-1.8855366706848145,0.3571889102458954,0.27305954694747925,0.9507757425308228,0.14650574326515198,-0.49129074811935425,-0.06739866733551025,-0.1326354742050171,-0.05126519898736414,-0.15124500086912657,-0.7418745325077962,0.6512441992633943,-1.2557297868009514,2.063242243047194,-1.2216385306104691
1773062286589385216,0.9831182956695557,-7.35795259475708,-2.02123761177063,0.24808797240257263,0.27937009930610657,0.9367801547050476,0.2107025533914566,-0.4785583019256592,-0.04948145151138306,-0.12871703505516052,-0.06502852865861102,-0.14398000636005664,-0.7646051493564836,0.6248360695514565,-1.2133121957462158,2.2169837291446264,-1.038132257095473
1773062286599421184,0.9931542873382568,-6.915463447570801,-2.165807008743286,0.20425106585025787,0.2865588366985321,0.9187378287315369,0.27167049050331116,-0.3882281482219696,0.12725216150283813,-0.09369194507598877,-0.0789138245023055,-0.1358463653542009,-0.7857359692636168,0.5982786652627352,-1.164872047919402,2.329530180207737,-0.8942877082500756
1773062286609457152,1.003190279006958,-5.929842472076416,-2.265493631362915,0.0755213126540184,0.29455801844596863,0.8990567326545715,0.32393312454223633,-0.28721854090690613,0.37727993726730347,-0.07991456985473633,-0.09245303172443047,-0.12714468793983102,-0.8036173139245223,0.57400864875845,-1.1176103696471593,2.4036536102239565,-0.7882929671484936
1773062286619493120,1.0132262706756592,-4.9307780265808105,-2.2866785526275635,-0.18111242353916168,0.3020387291908264,0.8804590702056885,0.36546507477760315,-0.23523572087287903,0.5390051603317261,-0.15149101614952087,-0.1049447350276916,-0.11780182304138387,-0.8178357196749859,0.5534023661811011,-1.0768296108548228,2.4509302602881657,-0.709414667909818
1773062286629529344,1.0232622623443604,-4.22611141204834,-2.1893012523651123,-0.4643388092517853,0.3077993094921112,0.8639583587646484,0.3985413908958435,-0.2524252235889435,0.5250948071479797,-0.1901368796825409,-0.11591404748361876,-0.10779581906356983,-0.829247106884307,0.5359973338882306,-1.0430781826525988,2.4839625285850997,-0.6457373408598717
1773062286639565312,1.0332982540130615,-3.69627046585083,-2.0592525005340576,-0.709409236907959,0.31146955490112305,0.8494549989700317,0.4259260594844818,-0.31523850560188293,0.48156917095184326,-0.1373060941696167,-0.1252515559606707,-0.09729163175141112,-0.838747502195423,0.520911756109326,-1.014951596428419,2.5101829048923334,-0.5902878001173969
1773062286649601280,1.0433342456817627,-3.3544223308563232,-1.9611624479293823,-0.7947649359703064,0.31383273005485535,0.836414635181427,0.4493546485900879,-0.36952731013298035,0.4880329966545105,-0.07093679904937744,-0.13340036459228652,-0.08659486318660073,-0.8468640141954439,0.5074712061072806,-0.9907087139038043,2.531936172198372,-0.5405644802838134
1773062286659637248,1.0533702373504639,-3.1142051219940186,-1.8838366270065308,-0.7659772038459778,0.3161660432815552,0.8239821791648865,0.4702044725418091,-0.38031402230262756,0.464469850063324,-0.03191107511520386,-0.14093346525442324,-0.07621597291641205,-0.853986744432684,0.49501058572152407,-0.9684035582356453,2.549630488542403,-0.49608656399370826
1773062286669673216,1.063406229019165,-2.9332151412963867,-1.8601925373077393,-0.7599584460258484,0.31890377402305603,0.8118842840194702,0.48902347683906555,-0.3296460211277008,0.38986730575561523,-0.023401707410812378,-0.1481834926915486,-0.06615209016344,-0.8603113619672688,0.48324919861186233,-0.9473723809482074,2.5637259828344603,-0.4559073863180872
1773062286679708160,1.0734412670135498,-2.8505051136016846,-1.8298718929290771,-0.7554346919059753,0.32199627161026,0.7999176979064941,0.5064094066619873,-0.24139928817749023,0.2986084818840027,-0.016388535499572754,-0.15524877804840187,-0.05625113070615913,-0.8660487965274978,0.4719038485612621,-0.9271580332716268,2.575234933485195,-0.4186433224769417
1773062286689744128,1.083477258682251,-2.765127420425415,-1.8083170652389526,-0.8142274618148804,0.3251577913761139,0.7879303693771362,0.5229135155677795,-0.166359543800354,0.22046208381652832,0.02330547571182251,-0.16206540765885677,-0.046355973928178563,-0.8713827444683158,0.46073656924587725,-0.9074406942679409,2.585283769884478,-0.3830217070115402
1773062286699780352,1.0935132503509521,-2.7417819499969482,-1.748835563659668,-0.8432072997093201,0.3280942738056183,0.7760564684867859,0.5386002063751221,-0.11099228262901306,0.21275871992111206,0.07536756992340088,-0.16854412686648781,-0.0363395658232,-0.876344418378237,0.4497695679468165,-0.8883885294682095,2.5944642982613297,-0.34839842291763234
1773062286709816320,1.1035492420196533,-2.838209390640259,-1.6028066873550415,-0.8115992546081543,0.33089104294776917,0.7635037899017334,0.5545923709869385,-0.10005614161491394,0.23280346393585205,0.10881388187408447,-0.17453432405078168,-0.02654360597032725,-0.8812443608069711,0.43845349038775544,-0.8687213285406062,2.6036486573242925,-0.3145972462437576
1773062286719852288,1.1135852336883545,-2.9715805053710938,-1.4462491273880005,-0.7971519231796265,0.33339163661003113,0.7497955560684204,0.5715392231941223,-0.13406601548194885,0.21719986200332642,0.168237566947937,-0.17986039299980197,-0.017095175244136243,-0.8862716035458587,0.42647482966765826,-0.8477530677043792,2.6135263319243447,-0.2813489892419427
1773062286729888256,1.1236212253570557,-3.0866963863372803,-1.3444641828536987,-0.7927345633506775,0.335589736700058,0.734760582447052,0.5894969701766968,-0.1656830906867981,0.17399191856384277,0.217326819896698,-0.1845887107008262,-0.007837951892263993,-0.89145222071635,0.4137373724807363,-0.8253136921767988,2.6240665871805944,-0.24832081596181213
1773062286739924480,1.133657455444336,-3.004272699356079,-1.1585326194763184,-0.848915696144104,0.33718374371528625,0.7191145420074463,0.607603132724762,-0.17437249422073364,0.11821150779724121,0.2410144805908203,-0.1886227115780966,0.001291523505268755,-0.8965488808398484,0.4007741899309636,-0.8025272126587096,2.6349640659155997,-0.2159149140257158
1773062286749960448,1.143693447113037,-2.706435441970825,-1.0388294458389282,-0.9003096222877502,0.33764001727104187,0.7043970227241516,0.6243590116500854,-0.14081689715385437,0.07758539915084839,0.25904858112335205,-0.19172025898033604,0.010160915973413162,-0.9011527465621691,0.38866935797162294,-0.781573296000156,2.6458567701507496,-0.18521802731938863
1773062286759996416,1.1537294387817383,-2.220212459564209,-1.0295252799987793,-0.9329150915145874,0.33770906925201416,0.6918479800224304,0.6381999850273132,-0.09538421034812927,0.08885276317596436,0.22903341054916382,-0.1944285632867042,0.018699807942857975,-0.9048482297348754,0.37828246706129887,-0.7640453215779287,2.654891131579317,-0.15750650152342893
1773062286770032384,1.1637654304504395,-1.7076563835144043,-0.999421238899231,-0.9146152138710022,0.33787238597869873,0.6823667287826538,0.6482425332069397,-0.07075199484825134,0.19876742362976074,0.15942054986953735,-0.19708981156102812,0.026760922675274263,-0.9074167300543227,0.37018167582582545,-0.7509953407808737,2.661119090715124,-0.13357070805072294
1773062286780068352,1.1738014221191406,-1.3744702339172363,-0.9218185544013977,-0.8914456963539124,0.3380129635334015,0.6754348874092102,0.6553890705108643,-0.04434233903884888,0.25074303150177,0.10474270582199097,-0.19957267812984175,0.03415688659267715,-0.9091357601912031,0.3639727753190379,-0.741554294394824,2.6654293275824874,-0.11302778238597193
1773062286790104320,1.1838374137878418,-1.219232201576233,-0.8357252478599548,-0.8888363242149353,0.33779793977737427,0.6699341535568237,0.6611210703849792,-0.03054693341255188,0.20375365018844604,0.06261855363845825,-0.20171746553430933,0.04110548149466676,-0.9104234521020975,0.3588169723128778,-0.7341201014214024,2.669225703436734,-0.09430807636481511
1773062286800140288,1.193873405456543,-1.1856929063796997,-0.7457960247993469,-0.8782441020011902,0.3371436595916748,0.6649745106697083,0.666440486907959,-0.029267072677612305,0.12147867679595947,0.07200855016708374,-0.20348512120958576,0.047776135206380826,-0.9115578378923904,0.354081218068305,-0.7274596540450923,2.6732464670314635,-0.07639197647698452
1773062286810175488,1.2039084434509277,-1.2384727001190186,-0.6600944399833679,-0.8781633973121643,0.3360013961791992,0.6598490476608276,0.672088086605072,-0.02472206950187683,0.05348414182662964,0.09918266534805298,-0.2048318778778479,0.05427654630456055,-0.9127420753404526,0.34928482850997494,-0.7206178540876541,2.6779958026667035,-0.05860216225219794
1773062286820211456,1.213944435119629,-1.31588876247406,-0.5694772601127625,-0.8694086074829102,0.3343556225299835,0.6541671752929688,0.6784332990646362,-0.008321046829223633,0.0005264878273010254,0.1088743805885315,-0.205737430980718,0.06067256270143123,-0.9140763112784313,0.34417362498024556,-0.7130809510855317,2.6836935223465326,-0.04060094583821708
1773062286830247424,1.22398042678833,-1.3592681884765625,-0.50868821144104,-0.8568227887153625,0.3323651850223541,0.6478706002235413,0.6854178309440613,0.007448136806488037,-0.045178771018981934,0.09992164373397827,-0.20627900411054975,0.06694257299892707,-0.9155477102749454,0.3387332492158906,-0.7047856930526231,2.69009067018542,-0.022540622619450276
1773062286840283392,1.2340164184570312,-1.3628045320510864,-0.4729638695716858,-0.8346543312072754,0.33024734258651733,0.6412689089775085,0.6926116347312927,0.02465680241584778,-0.07580870389938354,0.081024169921875,-0.20661175557616665,0.07307836128787258,-0.9170416367596567,0.33317529686106867,-0.6961508582177955,2.6966647813863496,-0.004749123751781372
1773062286850319360,1.2440524101257324,-1.3280484676361084,-0.43552860617637634,-0.8116680979728699,0.3281254768371582,0.6345919370651245,0.6997333765029907,0.0383448600769043,-0.07705104351043701,0.05566823482513428,-0.20681509400154785,0.07902879696159855,-0.9184885028706329,0.3276596402003682,-0.6874803852156931,2.7031091008196872,0.012479067164650087
1773062286860355328,1.2540884017944336,-1.2445241212844849,-0.4089902937412262,-0.7920620441436768,0.3259856104850769,0.6281177997589111,0.7065417766571045,0.04518440365791321,-0.06543475389480591,0.027909457683563232,-0.2069071049857537,0.08476857091512326,-0.9198288852099842,0.3223639708387895,-0.6791319600975663,2.7093139423940378,0.02897956039412686
1773062286870391296,1.2641243934631348,-1.1179368495941162,-0.39473360776901245,-0.7563636898994446,0.32396501302719116,0.6222487092018127,0.7126381993293762,0.05098921060562134,-0.055842459201812744,0.009606003761291504,-0.20699093529696236,0.09022058964278269,-0.9209665278442606,0.3175462889342108,-0.6716119930767407,2.7149203127021515,0.04436944845245876
1773062286880427264,1.274160385131836,-1.013087511062622,-0.39032647013664246,-0.728168249130249,0.3221432864665985,0.6170322895050049,0.7179798483848572,0.05783107876777649,-0.06821942329406738,-0.015419363975524902,-0.20712491617232964,0.09538211922103315,-0.9218959741589877,0.3132242002191747,-0.664965883189886,2.7198369039023613,0.05862996586148187
1773062286890463232,1.284196376800537,-0.923799455165863,-0.37007418274879456,-0.6717859506607056,0.3205417990684509,0.6123287677764893,0.7227078080177307,0.07995560765266418,-0.08458828926086426,-0.03531455993652344,-0.2073091703018545,0.10024247091611777,-0.9226620994875641,0.30930414310978593,-0.6590028253810502,2.7241331019263857,0.07182553371768825
1773062286900499456,1.2942323684692383,-0.8784658908843994,-0.3531942069530487,-0.6070322394371033,0.31924089789390564,0.6078464984893799,0.7270540595054626,0.10759320855140686,-0.08881884813308716,-0.0383945107460022,-0.20752985913600325,0.10470780314442933,-0.9233435465521792,0.30562108016277295,-0.6533457304718403,2.727849907612217,0.08386019823775885
1773062286910535424,1.3042683601379395,-0.8644472360610962,-0.35402989387512207,-0.5250316262245178,0.3183574378490448,0.603310763835907,0.7312077283859253,0.13348588347434998,-0.11704361438751221,-0.04094594717025757,-0.20782700981619312,0.10878393277549932,-0.9239967172978141,0.3020001437278377,-0.6476460154786796,2.730958188540093,0.09481766343752353
1773062286920571392,1.3143043518066406,-0.8518090844154358,-0.36591801047325134,-0.4023754894733429,0.3181748688220978,0.5985117554664612,0.7352203726768494,0.1579451858997345,-0.15655601024627686,-0.048940956592559814,-0.20830962119630908,0.11238248187813299,-0.9246514902119183,0.29832376520791914,-0.6416420694679706,2.7331665975472994,0.10447201131579165
1773062286930606336,1.3243393898010254,-0.8913149237632751,-0.3546251356601715,-0.2768559157848358,0.3188301622867584,0.5931825041770935,0.7392440438270569,0.18101724982261658,-0.1788758635520935,-0.05224764347076416,-0.20899288882752423,0.11540242009457649,-0.9253671145343978,0.2944485071558796,-0.6350061942975882,2.734404587068437,0.11265587394059579
1773062286940642304,1.3343753814697266,-0.9066359400749207,-0.28136298060417175,-0.21737873554229736,0.31982123851776123,0.5871492028236389,0.7436199188232422,0.20082393288612366,-0.20154428482055664,-0.04937547445297241,-0.2096154467987089,0.11796487806369436,-0.926225815654592,0.29026110829182267,-0.6275325324102353,2.735421206281583,0.11991702534964668
1773062286950678272,1.3444113731384277,-0.9704580903053284,-0.27159956097602844,-0.22411440312862396,0.3204312026500702,0.5813629031181335,0.7478911876678467,0.2145114541053772,-0.22064507007598877,-0.033123672008514404,-0.20997147308824604,0.12030857336109814,-0.9270768195126508,0.28629783641655443,-0.6204027611002534,2.736806583822762,0.12673552057620818
1773062286960714240,1.354447364807129,-0.9324886202812195,-0.32794180512428284,0.019137224182486534,0.32199570536613464,0.5737906694412231,0.7530491352081299,0.21560195088386536,-0.19522011280059814,0.0013148784637451172,-0.21054841623487147,0.1223915036018704,-0.9281944201706672,0.281326835267487,-0.6111267955484262,2.737530943347323,0.13316503571037502
1773062286970750208,1.36448335647583,-0.6169335842132568,-0.38956815004348755,0.20416860282421112,0.32541748881340027,0.5679093599319458,0.7560310363769531,0.2160559892654419,-0.10291290283203125,0.0787469744682312,-0.2119507967680766,0.1231020323429594,-0.9289033299276691,0.27759949747107593,-0.603963615885489,2.7351328144084768,0.1353001691587108
1773062286980786432,1.3745193481445312,-0.8510286808013916,-0.45665761828422546,0.27718016505241394,0.3300152122974396,0.5615435242652893,0.7587877511978149,0.27176088094711304,-0.09155762195587158,-0.09016281366348267,-0.21380327413246625,0.12331535425714132,-0.9296166872325186,0.2736682065070493,-0.5962500170337789,2.7313461769071177,0.1360774159719757
1773062286990822400,1.3845553398132324,-0.8979264497756958,-0.4856642186641693,0.3017904460430145,0.33526280522346497,0.5538440346717834,0.7621392011642456,0.2942996621131897,-0.3364824652671814,-0.16385716199874878,-0.21586876081387826,0.12356156598029834,-0.9304848940852605,0.26894466074733014,-0.5869739994680364,2.727172022340758,0.1371434633157567
1773062287000858368,1.3945913314819336,-0.9462886452674866,-0.4690852463245392,0.2949383854866028,0.3405672311782837,0.5457842350006104,0.7655935287475586,0.2469266653060913,-0.34781670570373535,-0.0706319808959961,-0.21792369678394594,0.12379756256578264,-0.9313811960029628,0.2640312061228085,-0.5773247671747731,2.723037411229154,0.1383145406993929
1773062287010894336,1.4046273231506348,-0.9438598155975342,-0.49852433800697327,0.361376017332077,0.34601226449012756,0.5373023152351379,0.769143283367157,0.19303494691848755,-0.3132423162460327,-0.1957181692123413,-0.21999133097906998,0.12396165992765312,-0.9323117258549087,0.2589055415060911,-0.5672352287017262,2.7188492417690777,0.13944759012021132
1773062287020930304,1.414663314819336,-0.7678150534629822,-0.5996097326278687,0.45397016406059265,0.3523924946784973,0.5292072296142578,0.7718544006347656,0.13474434614181519,-0.2884693741798401,-0.2410622239112854,-0.22252178679435924,0.12371100226125464,-0.9330716895209558,0.25408038317345677,-0.5576659432966146,2.7133025793488725,0.1392672563070181
1773062287030966272,1.424699306488037,-0.5968920588493347,-0.6764978766441345,0.507114589214325,0.3599149286746979,0.5222510099411011,0.7731205821037292,0.11705958843231201,-0.2089117169380188,-0.21947062015533447,-0.22571758900811625,0.12301115179295247,-0.9335033747581345,0.2499827416677016,-0.5494884212974241,2.7058949307992783,0.1374075581846359
1773062287041002240,1.4347352981567383,-0.586868405342102,-0.7065253853797913,0.4773450493812561,0.3678848445415497,0.5159406661987305,0.7736061215400696,0.1293228268623352,-0.1520795226097107,-0.24133360385894775,-0.22923361196901143,0.12222873707791536,-0.9337361540855463,0.24627019890336974,-0.5421053718475037,2.697699423543191,0.13506907038300422
1773062287051038208,1.4447712898254395,-0.6232772469520569,-0.6633882522583008,0.4266853332519531,0.3755398690700531,0.5095463395118713,0.7741657495498657,0.1229800283908844,-0.13042646646499634,-0.22518491744995117,-0.23263458130914372,0.12166344235975685,-0.9339597809686385,0.24248373641247356,-0.5346574943277189,2.6899442239854676,0.1333933508173856
1773062287061074176,1.4548072814941406,-0.6121463179588318,-0.6059805154800415,0.3834841549396515,0.38252246379852295,0.5031836032867432,0.7749083638191223,0.09259045124053955,-0.11809754371643066,-0.16341233253479004,-0.2357149821070212,0.12125943760410783,-0.9342110687231933,0.2387138754638677,-0.5272788231186201,2.6830493857784807,0.13233412069879238
1773062287071109376,1.4648423194885254,-0.5180885791778564,-0.5811688899993896,0.3026273846626282,0.38887879252433777,0.49738749861717224,0.7754863500595093,0.06615355610847473,-0.09750041365623474,-0.05046498775482178,-0.23856122824496762,0.1210228460320569,-0.9343964131016119,0.23525602660339429,-0.5205847295941333,2.6767742152169585,0.13169673192653758
1773062287081145344,1.4748783111572266,-0.3283977806568146,-0.5179210305213928,0.19146619737148285,0.394415944814682,0.49308526515960693,0.7754374742507935,0.06491941213607788,-0.04490402340888977,0.057433128356933594,-0.2411892374409271,0.12103675081402065,-0.9343815336182006,0.2326136122017367,-0.5156325460423131,2.671059600195281,0.1313934870043681
1773062287091181312,1.4849143028259277,-0.11549109220504761,-0.40209585428237915,0.14809343218803406,0.3987943232059479,0.49075058102607727,0.7746784687042236,0.08263567090034485,0.057543426752090454,0.11838781833648682,-0.24339603502982532,0.12104994880569098,-0.9341767263034535,0.231125659172057,-0.5129509906955495,2.6661856398291737,0.13081457280177047
1773062287101217280,1.494950294494629,-0.09242798388004303,-0.35182425379753113,0.11197510361671448,0.4023458659648895,0.48954206705093384,0.7736063003540039,0.08295997977256775,0.16278648376464844,0.20492470264434814,-0.24524834169292523,0.12097746235775025,-0.9338991465101538,0.23032627816644605,-0.5115645178739381,2.6620015605529983,0.12994087854875772
1773062287111253248,1.50498628616333,-0.22144509851932526,-0.2688673138618469,0.08689478784799576,0.40525734424591064,0.48797065019607544,0.7730789184570312,0.06494221091270447,0.19714894890785217,0.24105066061019897,-0.24673733158065272,0.12106710063997067,-0.933746333349997,0.22930591085924756,-0.5097632989511289,2.6587634780061724,0.1297490537900421
1773062287121289216,1.5150222778320312,-0.4701217710971832,-0.17462842166423798,0.0113472118973732,0.4071979224681854,0.485126793384552,0.7738489508628845,0.04093754291534424,0.17191672325134277,0.19187986850738525,-0.24760551182927504,0.12147978303293229,-0.933898889008208,0.22752391811196024,-0.5065081641934019,2.657206820732754,0.13100292003648592
1773062287131325184,1.5250582695007324,-0.735273540019989,-0.09880237281322479,-0.06657155603170395,0.40811631083488464,0.4805123805999756,0.7762401700019836,0.0043897926807403564,0.08691617846488953,0.1337481141090393,-0.24783682374588656,0.1225206027177448,-0.9344029050753621,0.22462588284447238,-0.5012388789947406,2.657549784461647,0.1345305199775232
1773062287141361152,1.5350942611694336,-0.8733559250831604,0.00989391840994358,-0.1121329590678215,0.40802934765815735,0.47452715039253235,0.7799591422080994,-0.01918962597846985,-0.0015352070331573486,0.07843935489654541,-0.2474460049187364,0.1240294392061357,-0.935198514380229,0.22088678500216918,-0.4944267881986081,2.6596033397176115,0.13981372730723549
1773062287151397120,1.5451302528381348,-0.8479043841362,0.10452322661876678,-0.09529698640108109,0.4070718586444855,0.4681478440761566,0.7843025922775269,-0.02009361982345581,0.018516093492507935,0.08520442247390747,-0.24651077634781962,0.12552823800577412,-0.9361591469583366,0.21698219305786767,-0.48719359675615664,2.6628419381650845,0.14542449736591795
1773062287161433344,1.555166244506836,-0.8051120042800903,0.15248389542102814,-0.154273122549057,0.4054667055606842,0.4621521532535553,0.7886776924133301,-0.01948031783103943,0.07185977697372437,0.10335123538970947,-0.24523857929514148,0.12696326166398555,-0.9371334961385182,0.21335250550295298,-0.48042052541780916,2.66672125655904,0.15090864480585223
1773062287171469312,1.565202236175537,-0.7441339492797852,0.19815656542778015,-0.2032044529914856,0.40320515632629395,0.4567074775695801,0.7929969429969788,0.0014732778072357178,0.08493384718894958,0.07919549942016602,-0.24370578556888403,0.1285992057648939,-0.9380622107596742,0.210021636786671,-0.4742905942156376,2.6712020531281384,0.15677734430909868
1773062287181505280,1.5752382278442383,-0.6932367086410522,0.21149714291095734,-0.16061517596244812,0.40066999197006226,0.4517962634563446,0.7970844507217407,0.031626760959625244,0.09037899971008301,0.042164146900177,-0.24205949270879223,0.13014012636667102,-0.9389386418515087,0.20703852973062983,-0.4687777833399544,2.6758117866552755,0.1622993984920765
1773062287191541504,1.5852744579315186,-0.8421443700790405,0.15048626065254211,-0.06381300836801529,0.3986365795135498,0.4462386667728424,0.8012244701385498,0.051558881998062134,0.08137992024421692,0.0012660622596740723,-0.24055916051339302,0.1314018108958553,-0.9398647780343388,0.20376273965682137,-0.46255789775360395,2.6799196291544014,0.16723677656892305
1773062287201576192,1.5953092575073242,-0.849702775478363,0.014486540108919144,0.13352181017398834,0.39807963371276855,0.43898794054985046,0.8054949045181274,0.08609694242477417,0.013526678085327148,-0.05695980787277222,-0.23960918538529857,0.1322796712311248,-0.9408770140522136,0.19959946737188033,-0.45447197720683413,2.6825917603335525,0.17141956050241305
1773062287211612160,1.6053452491760254,-0.3446873426437378,-0.10645639896392822,0.18370987474918365,0.39933305978775024,0.43345025181770325,0.8078700304031372,0.13744059205055237,-0.12760308384895325,-0.1545954942703247,-0.23965162391019465,0.13213948751866147,-0.9415275675238419,0.19655047056091632,-0.4483178789418728,2.6825125299906487,0.17242717838470734
1773062287221648128,1.6153812408447266,-0.5071519017219543,-0.027177151292562485,-0.045937519520521164,0.4002183973789215,0.4301548898220062,0.8091922998428345,0.21963945031166077,-0.31264689564704895,-0.3687930107116699,-0.23982330147238262,0.13237712711016153,-0.9418452341955084,0.1946501651132444,-0.4446643557952217,2.682282414260181,0.17366965959841468
1773062287231684096,1.6254172325134277,-0.7377533912658691,0.1274004429578781,0.01144028827548027,0.3996350169181824,0.42496344447135925,0.8122178912162781,0.32830074429512024,-0.36926889419555664,-0.5536271929740906,-0.23909823579253528,0.13326553916204786,-0.9425228130303717,0.19163266639777538,-0.43892148602160047,2.6843419020338284,0.17720939985200765
1773062287241720320,1.635453224182129,-0.6572882533073425,0.23383226990699768,0.17255043983459473,0.3985409438610077,0.4188298285007477,0.8159326910972595,0.36265891790390015,-0.18050289154052734,-0.2925259470939636,-0.23785403618060735,0.13349978933039203,-0.9434745119855154,0.18830551280792066,-0.43215629607402434,2.6872290274828488,0.17972958228326116
1773062287251756544,1.6454894542694092,-0.45704224705696106,0.2554377019405365,0.19373108446598053,0.3972807228565216,0.41347047686576843,0.8192743062973022,0.40127280354499817,-0.024859577417373657,0.0019843578338623047,-0.23646410123965295,0.13299338418288273,-0.9444310002228389,0.1856007185859406,-0.42626231052281227,2.6900834172510115,0.18046972993909574
1773062287261792512,1.6555254459381104,-0.40444228053092957,0.27677515149116516,0.11640967428684235,0.39581549167633057,0.40938955545425415,0.8220279812812805,0.36318716406822205,0.026416659355163574,0.016976356506347656,-0.23511329004048584,0.13250742352588693,-0.9452279010104483,0.18359647861503162,-0.42178486242695584,2.6928453819352667,0.18092264986400444
1773062287271828480,1.6655614376068115,-0.5140169262886047,0.4152797758579254,0.05848698318004608,0.3933073580265045,0.40531352162361145,0.8252454996109009,0.1693757176399231,0.12875929474830627,0.01784837245941162,-0.2332470681688035,0.13229753390791676,-0.9461078709414228,0.18158473715648465,-0.41732175969293095,2.696844260601772,0.18218232625354266
1773062287281864448,1.6755974292755127,-0.6141477823257446,0.47915706038475037,0.04133547097444534,0.38971835374832153,0.4003722667694092,0.8293500542640686,-0.018990814685821533,0.19844362139701843,0.11327683925628662,-0.23075014740343128,0.1323451786794028,-0.947185192239464,0.17910697087980182,-0.41192307315935783,2.702306999860945,0.18443713142078447
1773062287291900416,1.6856334209442139,-0.5448901057243347,0.35810279846191406,0.1519213765859604,0.3864678144454956,0.3951597809791565,0.8333614468574524,-0.1037224531173706,0.2057618498802185,0.22802460193634033,-0.22839374900861062,0.1322433594393387,-0.948257576206278,0.1765093623681724,-0.40624179556835277,2.707366757808869,0.18632772000194167
1773062287301936384,1.695669412612915,-0.4258098006248474,0.46163836121559143,0.46248358488082886,0.38447725772857666,0.38966822624206543,0.8368608951568604,-0.07217556238174438,0.22587141394615173,0.1861799955368042,-0.22651014591045965,0.13104988289593164,-0.9493452364443785,0.1739619814629147,-0.40027130132379307,2.710926185379517,0.18567203882259042
1773062287311972352,1.7057054042816162,-0.6611381769180298,0.4497271180152893,0.3064391314983368,0.3821302354335785,0.3840939700603485,0.8405047059059143,0.004435867071151733,0.2146761119365692,0.012507319450378418,-0.22430822947885645,0.12913566637591228,-0.9505663158290718,0.17156171430017725,-0.3942263081357345,2.714883678353836,0.18356982698592098
1773062287322008320,1.7157413959503174,-0.876504123210907,0.4178883135318756,0.3231137692928314,0.37963995337486267,0.37606528401374817,0.84525066614151,-0.05058413743972778,0.0868559181690216,-0.025609374046325684,-0.22202102504040902,0.1284411291365282,-0.9519076636609421,0.16757509276790403,-0.3855461939350464,2.719450111354358,0.18464229781148556
1773062287332044288,1.7257773876190186,-0.6549394726753235,0.41054946184158325,0.47293493151664734,0.37762588262557983,0.3681736886501312,0.8496161103248596,-0.17845281958580017,0.04320335388183594,0.254677951335907,-0.21987319786449708,0.12685018263991674,-0.9532665343800352,0.1638533225910677,-0.37704396595886513,2.7233499295918886,0.18364834110466258
1773062287342079488,1.7358124256134033,0.11939238011837006,0.544415295124054,0.32159605622291565,0.3752186596393585,0.3643076717853546,0.8523445725440979,-0.10229986906051636,0.21021634340286255,0.29809194803237915,-0.21785689279246756,0.12488633857263047,-0.954240893156511,0.16237669947793448,-0.3728892791657814,2.7269019424409797,0.1809464739362162
1773062287352115456,1.7458484172821045,0.7284858226776123,0.3809811472892761,0.23087787628173828,0.37175264954566956,0.36693042516708374,0.852738082408905,0.024853795766830444,0.27894359827041626,0.09512269496917725,-0.21587963943777755,0.12289035451749206,-0.9546030529602941,0.16439889583552222,-0.3757071292166213,2.73048246445864,0.1768325880843075
1773062287362151424,1.7558844089508057,1.1082488298416138,0.14573156833648682,0.704342246055603,0.37121671438217163,0.373830109834671,0.8499701619148254,0.12463292479515076,0.26815295219421387,-0.11289429664611816,-0.21559045973693466,0.11921882640002177,-0.9543437276096814,0.1689251049992899,-0.38313511475650947,2.7298195667608516,0.167591685782564
1773062287372187392,1.7659204006195068,-0.1200447678565979,0.11551801860332489,0.3811569809913635,0.3726014494895935,0.3757898509502411,0.8484986424446106,0.2417631447315216,-0.030407190322875977,-0.43767112493515015,-0.21593941076263168,0.11593363965607659,-0.954362995141951,0.17064815560238106,-0.38524895203407883,2.727814681887472,0.15994017035190547
1773062287382223360,1.775956392288208,-0.3838350474834442,0.3082835078239441,0.3287460207939148,0.3718979060649872,0.37206706404685974,0.8504461646080017,0.22516337037086487,-0.3459744155406952,-0.4984561800956726,-0.2149589827750477,0.11446564243695466,-0.9550501044340551,0.1690258076513332,-0.38123497796067596,2.7293522724837236,0.15791983562252637
1773062287392259328,1.7859923839569092,-0.2510269582271576,0.21528112888336182,0.2725866436958313,0.3706812858581543,0.36822032928466797,0.8526483178138733,-0.22749283909797668,-0.37633803486824036,0.03664916753768921,-0.21370268392557037,0.11302946408026046,-0.9557973053056148,0.16735291863766869,-0.37709413919062157,2.731500204540178,0.15609508244552658
1773062287402295296,1.7960283756256104,-0.07763579487800598,0.05027562752366066,0.13625375926494598,0.370278924703598,0.36594220995903015,0.8538030385971069,-0.3851563334465027,-0.22925406694412231,0.2038598656654358,-0.21314053124200524,0.11220699260564254,-0.9561961631170464,0.16634164961045617,-0.374645037035648,2.732391394297827,0.1550038889275846
1773062287412331264,1.8060643672943115,-0.03461375832557678,0.0034671116154640913,0.07654304057359695,0.370496928691864,0.3654617369174957,0.8539143204689026,0.11354237794876099,-0.05645599961280823,0.11881816387176514,-0.2131156662970467,0.11162422446089709,-0.9562934728619115,0.16620630381714646,-0.3741288182306074,2.7322240969869256,0.15385581256168274
1773062287422367232,1.8161003589630127,-0.46257302165031433,0.01459210179746151,-0.08242553472518921,0.3704260587692261,0.3631555140018463,0.8549285531044006,0.5188409090042114,-0.0052148401737213135,0.01894235610961914,-0.21293111007549154,0.11193937970758819,-0.9565217395942665,0.16491248810328613,-0.3716523972948227,2.7327271307335455,0.15508099136809617
1773062287432403200,1.8261363506317139,-0.5600447058677673,0.12764622271060944,-0.17438341677188873,0.3693159222602844,0.3592582941055298,0.8570525646209717,0.4224168360233307,-0.17932668328285217,-0.07938843965530396,-0.21217455015395653,0.11301727055453029,-0.9569500362780353,0.16265191334177123,-0.36747299693932717,2.73472348449517,0.1584814246147649
1773062287442439424,1.836172342300415,-0.5171810388565063,0.12620042264461517,-0.217768132686615,0.3674463629722595,0.3549165725708008,0.8596611618995667,0.05207875370979309,-0.19213584065437317,0.08029544353485107,-0.21103935198200638,0.1145332153728434,-0.9574511541055463,0.16009930881873333,-0.362824822978997,2.737664195133748,0.1630335444655122
1773062287452475392,1.8462083339691162,-0.32923755049705505,0.14772728085517883,-0.24498164653778076,0.36535021662712097,0.3523866534233093,0.8615930676460266,-0.05114129185676575,-0.09304836392402649,0.11600691080093384,-0.20991432095576817,0.11591378626965157,-0.9577893968976515,0.1585540313666193,-0.36012013812806704,2.7405351201715127,0.1669070331770564
1773062287462511360,1.8562443256378174,0.024979930371046066,0.26376840472221375,-0.27804088592529297,0.36281993985176086,0.3519666790962219,0.8628332614898682,0.16774341464042664,0.044548213481903076,0.031133413314819336,-0.20872147171245933,0.11719043874600367,-0.957957734075347,0.15817313687626236,-0.35967140289857213,2.7435411298056667,0.17015383702745324
1773062287472547328,1.8662803173065186,-0.14038772881031036,0.2509543299674988,-0.3044551908969879,0.3594686985015869,0.3524574637413025,0.8640350103378296,0.27717384696006775,0.10904470086097717,-0.11826151609420776,-0.2071732056415498,0.11850409553082505,-0.9581097387281459,0.15830948534477365,-0.36019579024389964,2.747339985524528,0.17342637145514175
1773062287482583296,1.8763163089752197,-0.09219396114349365,0.35168543457984924,-0.19245043396949768,0.35603997111320496,0.35235536098480225,0.8654948472976685,0.16143134236335754,0.12539732456207275,-0.08171188831329346,-0.2054866022686013,0.11953510332202635,-0.9583625529735441,0.1582019478699949,-0.3600866952487791,2.7513218162243067,0.17625585966466317
1773062287492618240,1.8863513469696045,-0.31893497705459595,0.3341729938983917,-0.2551545798778534,0.3521519899368286,0.3513191044330597,0.8675046563148499,0.05943867564201355,0.12776118516921997,0.1539340615272522,-0.203473981682112,0.1205759946832084,-0.9587563524099982,0.15762656891940185,-0.3589796459937848,2.755978913223897,0.17939503222376824
1773062287502654208,1.8963873386383057,0.02293388918042183,0.44253072142601013,-0.2320573627948761,0.34774693846702576,0.3512452244758606,0.8693094253540039,0.008179575204849243,0.058315932750701904,0.2070608139038086,-0.20124714668237634,0.12146497033100952,-0.9591146746649314,0.15762258464558374,-0.358900738596244,2.761063290190104,0.1820988997705871
1773062287512690432,1.9064233303070068,0.31734928488731384,0.5485705733299255,-0.2824701964855194,0.3426292836666107,0.35298845171928406,0.8706343173980713,-0.1453789472579956,0.13042521476745605,0.21338045597076416,-0.19877845151393347,0.12219844522752614,-0.9593668281300821,0.15865026922438014,-0.36076324222703005,2.766667782486465,0.18422617645914066
1773062287522726400,1.916459321975708,-0.19550935924053192,0.3182350695133209,-0.2255282700061798,0.3380337655544281,0.3538135290145874,0.8720951080322266,-0.23169514536857605,0.20107248425483704,0.14067679643630981,-0.1965634253159743,0.12323822260141387,-0.9596144491820738,0.15910831217805876,-0.36164523393856035,2.771811759313463,0.1870936950309261
1773062287532762368,1.9264953136444092,0.27019840478897095,0.345612108707428,-0.2527945041656494,0.3342234790325165,0.35540223121643066,0.8729170560836792,-0.20205184817314148,0.17828920483589172,0.27945733070373535,-0.1947564379687053,0.12377045448949815,-0.9597600717311958,0.16003585239615162,-0.3633443543724946,2.775930443024448,0.18860013612502632
1773062287542798336,1.9365313053131104,0.590945303440094,0.35767024755477905,-0.43916189670562744,0.3300342559814453,0.3588806092739105,0.8730877637863159,-0.2460498809814453,0.14765015244483948,0.3171283006668091,-0.19303467016761655,0.12498419492777196,-0.9596472413331758,0.16184490601775894,-0.3670683247177798,2.780187332569216,0.1912224476837761
1773062287552834304,1.9465672969818115,-0.07976306229829788,0.02347680553793907,-0.28579843044281006,0.3268992304801941,0.36252719163894653,0.8727604746818542,-0.2578684687614441,-0.10477578639984131,-0.13328903913497925,-0.19194696240005638,0.12648706185551017,-0.9593650240602715,0.16363406108872505,-0.37097813894727755,2.7832097357217482,0.19422481824393897
1773062287562870272,1.9566032886505127,0.037426479160785675,0.03813367709517479,-0.18179646134376526,0.32582375407218933,0.36402106285095215,0.8725407123565674,0.0856599509716034,-0.19181039929389954,-0.18935906887054443,-0.19164721020056102,0.12729095762960335,-0.9592014272928606,0.16431957445972384,-0.3725815291263647,2.7842083071582433,0.19581015330720328
1773062287572906240,1.9666392803192139,-0.3540635108947754,0.020741906017065048,-0.24771848320960999,0.3249863088130951,0.36252009868621826,0.8734774589538574,0.447611927986145,-0.08629027009010315,-0.024631142616271973,-0.1912980037166414,0.12867051056241754,-0.9592615048116669,0.1632981597055551,-0.3709705163366841,2.785401724814024,0.19915167345125337
1773062287582942208,1.976675271987915,-0.6638153195381165,0.04683059826493263,-0.17029111087322235,0.3237631022930145,0.35889068245887756,0.8754283785820007,0.3052652180194855,-0.10916534066200256,-0.06289792060852051,-0.19054855405548643,0.13007729103672153,-0.9595801639202741,0.1611739205315202,-0.3670791163989477,2.78735884377584,0.20304252504293438
1773062287592978176,1.9867112636566162,-0.060513731092214584,0.18161584436893463,-0.15254807472229004,0.3221251368522644,0.3562697768211365,0.8771014213562012,-0.00608515739440918,-0.10391998291015625,0.0678752064704895,-0.1896029894038173,0.13108917330079903,-0.9598783005305157,0.1596869007079513,-0.3642726658504726,2.789624073575842,0.20597882832001627
1773062287603014144,1.9967472553253174,0.30479979515075684,0.1045524850487709,-0.08930793404579163,0.32051029801368713,0.3573774993419647,0.8772426843643188,0.007080703973770142,-0.020066648721694946,-0.006240367889404297,-0.18891967054409498,0.13152641961318734,-0.959855268074957,0.16027501285440296,-0.365458429219066,2.7912992493962245,0.206980778231194
1773062287613050368,2.0067834854125977,0.3004170060157776,0.09724370390176773,-0.0026265722699463367,0.31937095522880554,0.36076098680496216,0.8762727975845337,0.14171916246414185,0.15016433596611023,-0.27117013931274414,-0.18858317529236046,0.13125731568704857,-0.9596394774268332,0.16217295195805878,-0.3690836868700857,2.7920898084013546,0.2059798283531505
1773062287623086336,2.016819477081299,0.32635051012039185,0.1722269356250763,-0.01484941691160202,0.3181467056274414,0.3636454641819,0.8755255341529846,0.17890840768814087,0.19194239377975464,-0.2688664197921753,-0.18813693645925728,0.13088345846421692,-0.9594958575342358,0.1638347064347979,-0.37217830968417787,2.7930498696193693,0.20487623763241417
1773062287633122560,2.02685546875,0.16373229026794434,0.10327822715044022,0.07259388267993927,0.31701016426086426,0.3653649389743805,0.8752217292785645,0.11038848757743835,0.01875978708267212,-0.17792558670043945,-0.1876244220811211,0.1304871772448365,-0.9594706634042609,0.16488246467248943,-0.3740248149683934,2.7940859415126957,0.20393783847112643
1773062287643157504,2.0368905067443848,0.016755888238549232,0.0192997045814991,0.15722496807575226,0.3168168067932129,0.36611437797546387,0.8749783635139465,0.04705950617790222,-0.06621816754341125,-0.11429733037948608,-0.18745835568338756,0.12971597596315165,-0.9595118328043937,0.16543918010135578,-0.37483005529386687,2.7941922484241695,0.20222240999716945
1773062287653193472,2.046926498413086,0.16257087886333466,-0.03939210623502731,0.19493000209331512,0.3176847994327545,0.3661852777004242,0.8746342062950134,0.10893568396568298,-0.019734442234039307,-0.0246279239654541,-0.18776979209819022,0.12880606628410873,-0.9595447421562001,0.16560640714548114,-0.3749062485760249,2.7931892658764164,0.20014085457411976
1773062287663229440,2.056962490081787,-0.004170365631580353,-0.12222277373075485,0.17038236558437347,0.31899335980415344,0.3662562668323517,0.8741276860237122,0.20314711332321167,-0.00678977370262146,-0.01888805627822876,-0.1883197704733055,0.1279190472287828,-0.9595314240411924,0.1657459461888995,-0.374982514649297,2.791681653548018,0.19801963875984446
1773062287673265408,2.0669984817504883,0.060135386884212494,-0.1666749268770218,0.20345854759216309,0.32091930508613586,0.36608996987342834,0.8734923601150513,0.22650501132011414,-0.047837406396865845,-0.10022270679473877,-0.1891862861799151,0.12708470022930754,-0.9594767660045678,0.16571771788038325,-0.3748038091709784,2.789503381268556,0.19593271520193864
1773062287683301376,2.0770344734191895,0.22827984392642975,-0.2540857493877411,0.1399301290512085,0.3234662413597107,0.3665425181388855,0.8723623752593994,0.18959525227546692,-0.025523871183395386,-0.10540992021560669,-0.19045382087936716,0.12632355422152947,-0.959282825941931,0.16597030258537776,-0.37529018058800645,2.7865150157309575,0.1937512497188089
1773062287693337344,2.0870704650878906,0.1902131587266922,-0.2665967643260956,0.10502221435308456,0.3261573314666748,0.3683062791824341,0.8706161379814148,0.12907347083091736,-0.01672840118408203,-0.1231793761253357,-0.19194681490902893,0.12572244775558125,-0.95890663192139,0.16687872105130497,-0.3771865695466498,2.7831479917272186,0.19160547465936306
1773062287703373312,2.097106456756592,-0.02743920311331749,-0.3032882809638977,0.120946004986763,0.3290528357028961,0.3687685430049896,0.8693297505378723,0.09207451343536377,-0.14844685792922974,-0.20883774757385254,-0.19347174288568034,0.12535223427113812,-0.9586196752511386,0.16704451674781864,-0.3776838515520348,2.779745426023255,0.19015895559409013
1773062287713409536,2.107142448425293,-0.17626622319221497,-0.3440319895744324,0.15634500980377197,0.33244040608406067,0.3670157492160797,0.8687824606895447,0.07022380828857422,-0.23589694499969482,-0.2319873571395874,-0.19507604319694524,0.12508019103452594,-0.9585124797038664,0.16599441831998116,-0.3757988418192679,2.776131246473128,0.18927693515872557
1773062287723445504,2.117178440093994,-0.02262161113321781,-0.37666574120521545,0.15433427691459656,0.33605751395225525,0.3658715784549713,0.8678730130195618,0.05647483468055725,-0.17234432697296143,-0.08314394950866699,-0.196844969132868,0.12471539316514682,-0.9583227987886797,0.16527436980807284,-0.37456915303797533,2.772152101433892,0.18803511916154
1773062287733481472,2.1272144317626953,0.08754803240299225,-0.45621222257614136,0.2612663209438324,0.34045106172561646,0.3653218150138855,0.8663908839225769,0.12034910917282104,-0.1018940806388855,-0.07415449619293213,-0.19903917403398821,0.1240716847620652,-0.9580196605243064,0.16488783000836252,-0.3739784919975719,2.7671758429032955,0.1859351289132184
1773062287743517440,2.1372504234313965,0.0364394448697567,-0.4582931697368622,0.2661164700984955,0.34540534019470215,0.3651149570941925,0.8645148277282715,0.19155141711235046,-0.08468902111053467,-0.1891610026359558,-0.20150161917370352,0.12303088947283243,-0.9576642438260007,0.16474099603521716,-0.37375629557765355,2.761485800925718,0.18282150056183452
1773062287753553408,2.1472864151000977,-0.1256520003080368,-0.49196216464042664,0.2853860557079315,0.35049018263816833,0.36379432678222656,0.8630238175392151,0.16624867916107178,-0.08954814076423645,-0.23073023557662964,-0.20397359143061478,0.1221975131910718,-0.9573816700447539,0.16395979546073156,-0.3723381222584857,2.755822592425455,0.1803601502964373
1773062287763589376,2.157322406768799,-0.17015647888183594,-0.50710129737854,0.3304327130317688,0.35594677925109863,0.3612581491470337,0.8618552684783936,0.03528854250907898,-0.1301027536392212,-0.18656229972839355,-0.206519924853401,0.12123883904500848,-0.9571984051522353,0.16254815654254798,-0.3696168071627753,2.7499293085047722,0.17784369477718065
1773062287773625344,2.1673583984375,-0.04272527992725372,-0.5178846716880798,0.3061598539352417,0.3615259826183319,0.3591988980770111,0.8603924512863159,0.0024572014808654785,-0.1395028531551361,-0.09769713878631592,-0.209179336290298,0.12025939483645283,-0.9569398602348245,0.16139328975285272,-0.36740936898997323,2.7438054619129297,0.17516691623893432
1773062287783661312,2.177394390106201,0.10990753769874573,-0.5342730283737183,0.32888931035995483,0.3672204911708832,0.35832104086875916,0.858344554901123,0.10882323980331421,-0.18159371614456177,-0.1990121603012085,-0.21198856336879743,0.11912267817442602,-0.9565469445490096,0.16089944193961675,-0.366468885720002,2.7373324016009577,0.17187698161546536
1773062287793696512,2.187429428100586,-0.028034619987010956,-0.5539058446884155,0.3273164629936218,0.3730611205101013,0.3576852083206177,0.856087863445282,0.0953836739063263,-0.14067474007606506,-0.29636508226394653,-0.21489478417910585,0.11791795270709458,-0.956106314216576,0.16054976484950081,-0.365787915115295,2.7306315514334973,0.1683617378938807
1773062287803732480,2.197465419769287,-0.17681191861629486,-0.6108303666114807,0.31664618849754333,0.37918293476104736,0.35548245906829834,0.8543140292167664,0.006864428520202637,-0.06884613633155823,-0.25488781929016113,-0.21786163314134532,0.11695593148599569,-0.9557606052947083,0.1593087491101072,-0.3634302060402783,2.7238690930029565,0.1656783143113697
1773062287813768448,2.2075014114379883,-0.18913622200489044,-0.6931611895561218,0.3018653690814972,0.38583195209503174,0.352649450302124,0.8525091409683228,0.0027483105659484863,-0.10576227307319641,-0.0804145336151123,-0.2211028877167103,0.11620285576434763,-0.9553802726595771,0.15766699472528767,-0.3604009435671724,2.7165919808465717,0.16349923757248228
1773062287823804416,2.2175374031066895,-0.08811520040035248,-0.7781838774681091,0.28919243812561035,0.3931572735309601,0.35033223032951355,0.8501144051551819,0.13079899549484253,-0.16152003407478333,-0.0045334696769714355,-0.22478165825837568,0.11552192512330109,-0.9548360471945263,0.1562560470143339,-0.3579257921758527,2.708412487501705,0.16123356360087931
1773062287833840384,2.2275733947753906,-0.013209800235927105,-0.8395849466323853,0.2948548495769501,0.4010797441005707,0.34872618317604065,0.8470686078071594,0.1932196319103241,-0.12988457083702087,-0.04946112632751465,-0.22886031540768403,0.1148218940039048,-0.9541227597843009,0.15520530073520677,-0.35621160766019694,2.6993758866775277,0.1586499705762825
1773062287843876608,2.237609624862671,-0.03738784044981003,-0.8720753788948059,0.2852628529071808,0.4093310534954071,0.34748122096061707,0.8436259627342224,0.11352655291557312,-0.09627580642700195,-0.10188102722167969,-0.2331665296012732,0.11412047802300987,-0.9533045150575208,0.15433844267394406,-0.3548835992536671,2.6898514036995445,0.1559173491204861
1773062287853912576,2.247645616531372,-0.028401535004377365,-0.9048948287963867,0.31717178225517273,0.4179036319255829,0.3458530306816101,0.8400846123695374,0.013447016477584839,-0.123456209897995,-0.17680037021636963,-0.23763253680657687,0.11342417916985152,-0.9524585283794785,0.1532594195722424,-0.35314777030976796,2.679983739214739,0.15324379210674688
1773062287863948544,2.2576816082000732,-0.12853886187076569,-0.9518638849258423,0.35254865884780884,0.42683255672454834,0.34387511014938354,0.8363990783691406,-0.022795170545578003,-0.1276886761188507,-0.16852205991744995,-0.24226219161501308,0.11260259391339118,-0.9515882425103404,0.152017644946361,-0.3510405751497655,2.6697218630864907,0.15034643666491643
1773062287873984512,2.2677175998687744,-0.1866932362318039,-0.9891233444213867,0.3823683261871338,0.436277836561203,0.3408699929714203,0.832748293876648,0.02125704288482666,-0.054248809814453125,-0.11871308088302612,-0.24710576097846249,0.11177878418692254,-0.9507258534192303,0.15021556226719365,-0.3478421659791084,2.659007407399622,0.147650200179501
1773062287884020480,2.2777535915374756,-0.08798263967037201,-0.9813923239707947,0.36945343017578125,0.4457475244998932,0.33797842264175415,0.8289028406143188,0.10677328705787659,-0.03632739186286926,-0.030059337615966797,-0.25198532325033607,0.11088683540072172,-0.9498186896475934,0.14849924544993146,-0.34476809449670476,2.648198375366353,0.14480232647880606
1773062287894056448,2.2877895832061768,-0.0909147784113884,-1.017230749130249,0.39678677916526794,0.4553380012512207,0.33554378151893616,0.8246681094169617,0.1619410216808319,-0.08552855253219604,-0.04788905382156372,-0.25698928245675257,0.10993846750817342,-0.9488137767934891,0.1470455896260651,-0.342182415025469,2.6371025754146205,0.14170574025672134
1773062287904092672,2.297825574874878,0.08745282888412476,-0.992876410484314,0.4059098958969116,0.4650036096572876,0.33358779549598694,0.8200555443763733,0.08054393529891968,-0.08267223834991455,-0.11117780208587646,-0.26207042895745564,0.10876773348153276,-0.9477327496998659,0.14591570073188717,-0.3401068140673035,2.6257617410445806,0.13800257746272251
1773062287914128640,2.307861566543579,0.21238678693771362,-1.0187101364135742,0.3978269398212433,0.47451895475387573,0.33303287625312805,0.8148137927055359,-0.02287393808364868,-0.0522100031375885,-0.05491060018539429,-0.26719190033981677,0.10740411588939504,-0.9465047487599225,0.14560827636526386,-0.3395182376284083,2.6142410616222063,0.13350074856590577
1773062287924164608,2.3178975582122803,0.1719093918800354,-1.065139889717102,0.483955055475235,0.48452627658843994,0.3325158655643463,0.809115469455719,0.0012525618076324463,-0.042125821113586426,-0.16386687755584717,-0.27259063921798454,0.10581259768155221,-0.9451779955623335,0.1453846921645846,-0.3389699925999117,2.602030570866501,0.12840126959018452
1773062287934200576,2.3279335498809814,0.11836174130439758,-1.031766414642334,0.4682682454586029,0.4946277439594269,0.331335186958313,0.8034680485725403,0.01706063747406006,-0.004919081926345825,-0.14305227994918823,-0.2779964700774674,0.10409905536250261,-0.9438736243224475,0.1448588272332838,-0.33771835279767737,2.589769912723661,0.12322695082737059
1773062287944236544,2.3379695415496826,0.006883883848786354,-1.0073211193084717,0.4442780613899231,0.5042820572853088,0.3296290338039398,0.798150360584259,0.008764147758483887,-0.026391148567199707,-0.05709218978881836,-0.28316373637253783,0.1026015039457731,-0.9426283020359536,0.14402441645628986,-0.33591062036276687,2.578108844760837,0.11876638803420063
1773062287954271488,2.3480045795440674,-0.0018390340264886618,-0.9844235777854919,0.4497798979282379,0.5137653350830078,0.3271562159061432,0.7931041121482849,0.014615952968597412,-0.1096421480178833,-0.10323894023895264,-0.28821579539162245,0.10124818082725556,-0.9414355264322068,0.1427572831548812,-0.33329260073824274,2.566772205534354,0.11490972018459782
1773062287964307456,2.3580405712127686,0.18420487642288208,-0.9346548318862915,0.425875723361969,0.5227766633033752,0.3256620168685913,0.7878127098083496,0.014103829860687256,-0.10039651393890381,-0.01379537582397461,-0.2930861965348836,0.09971046077948635,-0.9401936977032231,0.1421060848730977,-0.3317118233662087,2.5557301139295956,0.11042751312128683
1773062287974343424,2.3680765628814697,0.11779148876667023,-0.9469535946846008,0.42174622416496277,0.5315923690795898,0.3247111439704895,0.7822865843772888,0.06791025400161743,-0.009159356355667114,0.002030491828918457,-0.29791826993720744,0.0981495936940076,-0.938887606274599,0.1417795057021804,-0.33070631959287583,2.5447329473673914,0.10574152815355524
1773062287984379648,2.378112554550171,0.19246333837509155,-0.9360116720199585,0.3902686536312103,0.5402858853340149,0.32356077432632446,0.7767881155014038,0.06933325529098511,-0.0008373856544494629,-0.07312905788421631,-0.3027029411030797,0.09667448569847785,-0.9375756443123036,0.14133978708877243,-0.32949029752013487,2.5338673647771888,0.10132590646571002
1773062287994415616,2.388148546218872,0.30147504806518555,-0.9511014223098755,0.36119145154953003,0.5487716197967529,0.32358089089393616,0.7708082795143127,0.0015061497688293457,-0.07084953784942627,-0.04250621795654297,-0.30750006634402677,0.09518761286407929,-0.9361321795584701,0.1415614707632793,-0.3295115452452226,2.5228960926727235,0.09648869216790028
1773062288004451584,2.3981845378875732,0.267709881067276,-1.0339378118515015,0.4053671658039093,0.557655394077301,0.32359057664871216,0.7644015550613403,-0.044349730014801025,-0.09603622555732727,-0.13999652862548828,-0.31255968253402616,0.0936713404975686,-0.9345728709159132,0.14179462555130126,-0.3295217952944685,2.511320243749436,0.09148995403982868
1773062288014487552,2.4082205295562744,0.3652803897857666,-1.041653037071228,0.3522679805755615,0.5668737292289734,0.323814332485199,0.7574948668479919,-0.07920289039611816,-0.06795495748519897,-0.15228557586669922,-0.31786547951771327,0.09209437333579824,-0.9328805193676636,0.142176340387455,-0.32975825804961234,2.4991463028122576,0.08618467418906016
1773062288024523520,2.4182565212249756,0.258497953414917,-1.0923384428024292,0.31668609380722046,0.575980007648468,0.3244475722312927,0.750320553779602,-0.06020241975784302,-0.07429498434066772,-0.10029613971710205,-0.3232230089102138,0.09079563796990749,-0.9310834712997601,0.14271175117846782,-0.33042766079034086,2.486893912925548,0.08130414901666179
1773062288034559488,2.4282925128936768,-0.010435785166919231,-1.1349292993545532,0.3161212205886841,0.5854359269142151,0.32348260283470154,0.7433866262435913,-0.023912549018859863,-0.09272396564483643,-0.17067843675613403,-0.3287410915680236,0.08987025393866412,-0.9293097639426047,0.14225316384765924,-0.3294076664797637,2.4745044898442736,0.07776069081885326
1773062288044595456,2.438328504562378,-0.2233310043811798,-1.1185070276260376,0.17582395672798157,0.5946012139320374,0.3211444914340973,0.7370997667312622,-0.023037374019622803,-0.07354003190994263,-0.02147763967514038,-0.33411082379064616,0.08971970596275278,-0.9276315373072578,0.14078426322770266,-0.3269377493361269,2.462793788885207,0.07650147926099778
1773062288054631424,2.448364496231079,-0.20587000250816345,-1.161818504333496,0.18585793673992157,0.6035330891609192,0.3183077573776245,0.7310460805892944,0.035154104232788086,-0.12149986624717712,0.13727062940597534,-0.3394133820512291,0.0901469069710805,-0.9259571089786264,0.13883667905031202,-0.32394385677100157,2.4514507997940536,0.07676233510505466
1773062288064667392,2.4584004878997803,0.19599482417106628,-1.1476025581359863,0.24352234601974487,0.6127124428749084,0.3168160915374756,0.7240239977836609,0.0986674427986145,-0.10505467653274536,0.19632506370544434,-0.344937905865577,0.08990812217598512,-0.9240825267644237,0.1378614213908022,-0.32237077703195566,2.439273917585847,0.0749872467833071
1773062288074703360,2.4684364795684814,0.35828492045402527,-1.1744730472564697,0.21300917863845825,0.6217440366744995,0.3176726698875427,0.7159042954444885,0.15518784523010254,0.031250178813934326,0.08902758359909058,-0.3505675264926497,0.08914474772421041,-0.9219573549890826,0.1383850066649067,-0.3232739904618776,2.426470966948032,0.07108780648780216
1773062288084739328,2.4784724712371826,0.3275933265686035,-1.2217307090759277,0.30655333399772644,0.6311485171318054,0.3184526264667511,0.7072763442993164,0.08313071727752686,0.06046891212463379,-0.22067350149154663,-0.35644540270557384,0.0881699426682173,-0.9197087739088384,0.1389554517109119,-0.32409669460057666,2.4130119176845053,0.0666372308559952
1773062288094775552,2.488508462905884,0.29424601793289185,-1.1892145872116089,0.25563767552375793,0.6406490206718445,0.3188115060329437,0.698518693447113,-0.14380741119384766,-0.011026382446289062,-0.250200092792511,-0.36238412987020946,0.08709540672538806,-0.9174277867658708,0.1393502193474864,-0.32447530360527743,2.399380801443436,0.062088576714612445
1773062288104811520,2.498544454574585,0.06274648010730743,-1.200675368309021,0.20112508535385132,0.6496081948280334,0.3187417685985565,0.6902266144752502,-0.19985538721084595,-0.13693329691886902,-0.24457848072052002,-0.36806938531817696,0.08655400652890174,-0.9152167616283051,0.1393254658841863,-0.32440171481970137,2.3865012183375045,0.0589770266425694
1773062288114847488,2.508580446243286,-0.1406833380460739,-1.2497215270996094,0.27053746581077576,0.6588634848594666,0.3168036639690399,0.6823009848594666,-0.13771474361419678,-0.14794987440109253,-0.18808406591415405,-0.37387256801022156,0.08643909474640483,-0.9130601203405982,0.13809017417667865,-0.32235767698646967,2.3736682088446437,0.05758842529656959
1773062288124882432,2.518615484237671,-0.08641397207975388,-1.190924882888794,0.24126921594142914,0.6679924726486206,0.31421759724617004,0.674576461315155,0.00319594144821167,-0.039986640214920044,0.1285393238067627,-0.37957498959698516,0.08629500118563989,-0.9109563122658704,0.13650860652559454,-0.3196324015907722,2.36109849369596,0.05648063878012188
1773062288134918400,2.528651475906372,-0.10271970182657242,-1.1852587461471558,0.22064383327960968,0.6766932606697083,0.31207311153411865,0.6668558120727539,0.23830002546310425,-0.025482535362243652,0.1843557357788086,-0.3851125905282229,0.08627202046172736,-0.9088371942949409,0.13513104615987645,-0.31737435536842334,2.3488726544348824,0.05553368032513013
1773062288144954368,2.5386874675750732,0.12142650783061981,-1.142773151397705,0.23682942986488342,0.685158908367157,0.3104383945465088,0.6589276194572449,0.27251332998275757,-0.038770824670791626,0.05692332983016968,-0.39056235583322796,0.08598937318860421,-0.9066805621378691,0.13415417492119405,-0.31565417256729217,2.3366808895906552,0.05382252607658363
1773062288154990336,2.5487234592437744,0.29145070910453796,-1.2253614664077759,0.27393364906311035,0.6936914324760437,0.31004825234413147,0.6501246094703674,0.12520194053649902,0.018610745668411255,0.04956704378128052,-0.39618200876390625,0.08524602026679884,-0.9043204259558928,0.1340798943796926,-0.3152437866596017,2.323785647175436,0.05044560764586813
1773062288165026304,2.5587594509124756,0.37977829575538635,-1.22792387008667,0.29765158891677856,0.7026098370552063,0.3103562295436859,0.6403270363807678,0.04459786415100098,0.08335110545158386,-0.05991321802139282,-0.40213308219522365,0.0839965288439871,-0.901725069275949,0.1346311975067707,-0.3155677310259233,2.3098496290492982,0.04546412523792005
1773062288175062528,2.5687954425811768,0.03527205064892769,-1.219637155532837,0.24704647064208984,0.7112234830856323,0.30982956290245056,0.6310044527053833,0.061832427978515625,0.08436596393585205,-0.09299486875534058,-0.4079142316821243,0.08316837134607163,-0.8992136909986487,0.1345500174757753,-0.31501376643250567,2.2964999192866906,0.04187474472295676
1773062288185098496,2.578831434249878,-0.06936647742986679,-1.1939482688903809,0.26123011112213135,0.7196862697601318,0.3077182471752167,0.6223832964897156,0.12256830930709839,-0.01700785756111145,-0.030800163745880127,-0.41356265907816003,0.08292072683807505,-0.896836551989769,0.1333199613209609,-0.3127939991029708,2.2838189639845474,0.04043274023340683
1773062288195134464,2.588867425918579,-0.12109705060720444,-1.106876254081726,0.15560300648212433,0.7274429798126221,0.30567437410354614,0.6143209934234619,0.16655439138412476,-0.07836413383483887,0.11442363262176514,-0.4188116298768929,0.08287508475834512,-0.8945905221340311,0.13204716206141767,-0.3106466277709591,2.272084954894754,0.039576896770868356
1773062288205170432,2.5989034175872803,-0.07493061572313309,-1.0713874101638794,0.169865220785141,0.7345919609069824,0.30375921726226807,0.6067166924476624,0.24944740533828735,-0.11326846480369568,0.023288190364837646,-0.42374948407358376,0.0831946567231645,-0.89243319578951,0.13068306950808947,-0.30863582615023644,2.2611455947812247,0.0396195232790721
1773062288215206400,2.6089394092559814,0.12669144570827484,-0.9727476239204407,0.184751495718956,0.7413758039474487,0.30260127782821655,0.5989949107170105,0.21872270107269287,-0.03311574459075928,0.022831320762634277,-0.42848453172758955,0.0829678959738765,-0.8902886031434236,0.1300142210002951,-0.3074207084673099,2.2503663742443862,0.03810797662660241
1773062288225242368,2.6189754009246826,0.2577013075351715,-0.9294217824935913,0.1972762942314148,0.7475754618644714,0.3023693859577179,0.5913575291633606,0.19773703813552856,0.0694720447063446,0.04473567008972168,-0.43290027285344435,0.08236421255276492,-0.8881975576293282,0.13007152023421054,-0.30717742652761554,2.240046176107088,0.03535746722388796
1773062288235278336,2.629011392593384,0.35512372851371765,-0.8851283192634583,0.34413790702819824,0.7537750601768494,0.30218225717544556,0.5835317969322205,0.21274727582931519,0.06088542938232422,-0.08998626470565796,-0.4372670369831258,0.08106827198810224,-0.8861116289275288,0.1305057260171419,-0.30698109813248814,2.2295724798136822,0.03099302074995466
1773062288245314560,2.639047622680664,0.38823357224464417,-0.8305484056472778,0.4004618525505066,0.7599148154258728,0.30146023631095886,0.57589191198349,0.17871445417404175,0.09329992532730103,-0.08150702714920044,-0.4414777759256444,0.07914639574034855,-0.884127700762367,0.13096382786531627,-0.3062237765167356,2.2192945359316627,0.025504962005414928
1773062288255350528,2.6490836143493652,0.5778628587722778,-0.8197256326675415,0.4592527151107788,0.7659470438957214,0.3009174168109894,0.5681318044662476,0.1768324375152588,0.11125296354293823,-0.026902616024017334,-0.44560157441270626,0.07671657894258277,-0.8821453819605521,0.1318078420008865,-0.3056545118475963,2.2089885710489563,0.01875303544755212
1773062288265386496,2.6591196060180664,0.6433824896812439,-0.845470130443573,0.4930945932865143,0.772104799747467,0.3007257878780365,0.5598376989364624,0.19598913192749023,0.152658611536026,0.0483776330947876,-0.4498331006566303,0.07375377651060251,-0.8800450099279877,0.13315910125069666,-0.3054535746580773,2.198156908554122,0.010500802550513482
1773062288275422464,2.6691555976867676,0.5793547630310059,-0.9028042554855347,0.4798879623413086,0.7784444689750671,0.30036842823028564,0.5511834621429443,0.2361888289451599,0.17741480469703674,0.09621649980545044,-0.45423607159754054,0.07079287685972749,-0.8778269176807283,0.13445422655949102,-0.30507890241594415,2.186909557418512,0.0022434640639679335
1773062288285458688,2.6791915893554688,0.4050595462322235,-1.001753330230713,0.46419110894203186,0.7850857377052307,0.29943984746932983,0.5421954989433289,0.24807149171829224,0.13667157292366028,0.1781412959098816,-0.45891895455145004,0.06821038796578159,-0.8754685028823708,0.13526115825998233,-0.30410550861789365,2.1751988587949675,-0.004942532644173691
1773062288295494656,2.68922758102417,0.08905311673879623,-1.1279022693634033,0.5122667551040649,0.79226154088974,0.2969317138195038,0.5330600142478943,0.21663421392440796,0.03786131739616394,0.20764732360839844,-0.4639864502510677,0.06623991744702823,-0.8730076011659952,0.13485728280001863,-0.3014778361477392,2.1630560483644246,-0.00993629693235133
1773062288305529600,2.6992626190185547,0.040403760969638824,-1.1747381687164307,0.5791557431221008,0.8000547289848328,0.2926998436450958,0.5236782431602478,0.15888375043869019,-0.0450802743434906,0.21919584274291992,-0.4694505370894054,0.06452899540230322,-0.8704453663569138,0.1333303024141379,-0.2970491097476574,2.1503656104216398,-0.013434806299745822
1773062288315565568,2.709298610687256,0.09228746592998505,-1.1672989130020142,0.5390483140945435,0.8078005909919739,0.28853824734687805,0.5140078663825989,0.10134857892990112,-0.06872010231018066,0.1886441707611084,-0.47496010380112574,0.06267647007916831,-0.8677992825503329,0.1319432914635635,-0.29269978555763604,2.1374840825880432,-0.01729063075992606
1773062288325601536,2.719334602355957,0.22347864508628845,-1.156655192375183,0.5490481853485107,0.8152884840965271,0.2849055230617523,0.504116415977478,0.044559478759765625,-0.040490299463272095,0.025180399417877197,-0.48041239428925814,0.060734185247702056,-0.8650835613390232,0.13094146938676668,-0.28890787848524946,2.124584046535434,-0.02162955990186204
1773062288335637504,2.729370594024658,0.2982005476951599,-1.1477123498916626,0.5820410251617432,0.8226746320724487,0.2815854549407959,0.49387893080711365,-0.03260493278503418,0.11511260271072388,0.04913574457168579,-0.48586049353858946,0.05837916332772786,-0.862282628819318,0.13038485196288546,-0.2854460121061371,2.1114608233258534,-0.027119571831266752
1773062288345673472,2.7394065856933594,0.290000319480896,-1.1548075675964355,0.5940879583358765,0.8299683928489685,0.2781500816345215,0.4835129976272583,-0.01730060577392578,0.25325247645378113,0.1875837743282318,-0.4912965826674601,0.055859129215379014,-0.8594395012352853,0.1298888922410377,-0.2818676576895369,2.098299518823879,-0.032917568805580597
1773062288355709440,2.7494425773620605,0.2824800908565521,-1.161708116531372,0.6041320562362671,0.837198793888092,0.2745357155799866,0.47299906611442566,0.06891381740570068,0.24356114864349365,0.21451610326766968,-0.49675997060775023,0.05330461723056302,-0.8565384712463537,0.12934417506106222,-0.27810684147639697,2.085066358298441,-0.038686854234562494
1773062288365745664,2.7594785690307617,0.26376602053642273,-1.2061113119125366,0.6037287712097168,0.8443933725357056,0.2706572115421295,0.46232515573501587,0.058331847190856934,0.21367201209068298,0.2474527359008789,-0.5022842430717208,0.050820552609806766,-0.8535688873491942,0.1286389957589488,-0.2740756616510246,2.0717361339671716,-0.04412989723675213
1773062288375781632,2.769514560699463,0.39720314741134644,-1.2749974727630615,0.6033535003662109,0.8517234921455383,0.26701620221138,0.4508541226387024,-0.04070359468460083,0.1699954867362976,0.23740887641906738,-0.5080704494955478,0.04819318543798279,-0.8503555032532023,0.12820823078312077,-0.2702954965286923,2.057642092315891,-0.05015628166050645
1773062288385817600,2.779550552368164,0.1848520189523697,-1.3089848756790161,0.6048626899719238,0.8591009378433228,0.2632860839366913,0.43889227509498596,-0.1071476936340332,0.156254380941391,0.1817590594291687,-0.5140436937875311,0.045648771199091755,-0.8469724492716001,0.1277226597093649,-0.2664268815787634,2.043105201549549,-0.05598711314170162
1773062288395853568,2.7895865440368652,-0.20575274527072906,-1.2984824180603027,0.7749327421188354,0.8664957284927368,0.257739394903183,0.4274987280368805,-0.12342339754104614,0.15322548151016235,0.10683336853981018,-0.5200085016303866,0.04360932364013395,-0.8437106093940544,0.1258636308686097,-0.26068182350591124,2.0291219243934076,-0.059351917219195645
1773062288405889536,2.7996225357055664,0.07349653542041779,-1.2737839221954346,0.5573861598968506,0.8738559484481812,0.251398503780365,0.4161425232887268,-0.15029942989349365,0.17172768712043762,0.20867431163787842,-0.5260182255221993,0.04176555825738219,-0.8404325688771681,0.12342431456728138,-0.2541249074231166,2.015234808465779,-0.06166280501952219
1773062288415925504,2.8096585273742676,0.11852818727493286,-1.291465401649475,0.38943761587142944,0.8802174925804138,0.24797210097312927,0.40463167428970337,-0.1313161849975586,0.17732083797454834,0.20393452048301697,-0.5316747993151283,0.040335921859229,-0.8370715909309567,0.1224990306156014,-0.25058641680477944,2.0016833783922268,-0.0647989633034739
1773062288425961472,2.8196945190429688,-0.07834652066230774,-1.2689471244812012,0.44573497772216797,0.8863441348075867,0.2444760799407959,0.39322468638420105,-0.14528578519821167,0.1526339054107666,0.08785438537597656,-0.5372832944465104,0.039284608058688456,-0.8337080227359857,0.12130274974339093,-0.24697933850866344,1.9883552907654276,-0.06692329013749528
1773062288435997440,2.82973051071167,0.10430930554866791,-1.404207706451416,0.3427460193634033,0.8925150632858276,0.24098001420497894,0.38124218583106995,-0.21932780742645264,0.15081991255283356,0.12966787815093994,-0.5431187009069903,0.038424039276334344,-0.8301473924961414,0.12000422482000327,-0.24337549988884535,1.9744907980506883,-0.06863272808721636
1773062288446033408,2.839766502380371,0.1257420927286148,-1.394416093826294,0.288047194480896,0.8985354900360107,0.23869065940380096,0.36832115054130554,-0.2010258436203003,0.21507516503334045,0.21723482012748718,-0.5491469185413863,0.03754044485709636,-0.826287652199243,0.11948636555805159,-0.24101731110300087,1.9598188456729293,-0.07131265397972272
1773062288456069376,2.8498024940490723,0.09058277308940887,-1.434726595878601,0.2577662467956543,0.904315173625946,0.23652677237987518,0.35534363985061646,-0.19194340705871582,0.13267488777637482,0.10956120491027832,-0.5551685005024675,0.03702652505087569,-0.822375132648489,0.1188112614887879,-0.23878963039482787,1.9452036635327286,-0.07316047941194591
1773062288466105344,2.8598384857177734,0.39615532755851746,-1.3763624429702759,0.2286200076341629,0.9098337292671204,0.23508918285369873,0.341958612203598,-0.24610692262649536,0.08473503589630127,0.12216794490814209,-0.5611655931726227,0.03621975593810168,-0.8183321064245341,0.11880177923494926,-0.23731032073010194,1.9303096999767446,-0.07626460695384231
1773062288476141568,2.8698744773864746,0.48745274543762207,-1.3134132623672485,0.20736052095890045,0.9148305654525757,0.23480650782585144,0.32855868339538574,-0.26730865240097046,0.15917541086673737,0.22748681902885437,-0.5668607275644367,0.03479505733173496,-0.8142902666716103,0.11995636315074774,-0.23701949879489465,1.9155965816320928,-0.0817031241382007
1773062288486177536,2.879910469055176,0.33821389079093933,-1.3039448261260986,0.2625232934951782,0.9196314811706543,0.23386771976947784,0.31556951999664307,-0.25035035610198975,0.27310559153556824,0.18822994828224182,-0.5724117701101621,0.03345999549551125,-0.8103488108480694,0.12066527881898885,-0.23605383008627812,1.90135375760695,-0.08641280121482856
1773062288496212480,2.8899455070495605,0.3291005492210388,-1.201854944229126,0.209620401263237,0.9241352677345276,0.2326650321483612,0.30305302143096924,-0.2528553605079651,0.2550516724586487,0.29454219341278076,-0.5777614973926649,0.03230116816936741,-0.8065253559664645,0.1210999026892196,-0.23481701576861844,1.8876773482410802,-0.0904318531368293
1773062288506248448,2.8999814987182617,0.5540145635604858,-1.1258875131607056,0.23749485611915588,0.9280970692634583,0.23197723925113678,0.29124319553375244,-0.1749231219291687,0.1730063259601593,0.37603893876075745,-0.5826468475399964,0.03085375917428871,-0.8029132245961985,0.1220701943964265,-0.23410987890642926,1.8748713178116962,-0.09544640953318428
1773062288516284416,2.910017490386963,0.6751518845558167,-1.0830172300338745,0.35818320512771606,0.931957483291626,0.23095981776714325,0.27948710322380066,-0.16691219806671143,0.10853302478790283,0.24065449833869934,-0.5873658093570452,0.02850697265800696,-0.7993315342395467,0.12352307613658992,-0.23306406114796951,1.8621545308389558,-0.10247852874529628
1773062288526320384,2.920053482055664,0.6666308641433716,-1.0147165060043335,0.37592485547065735,0.9357182383537292,0.2293103188276291,0.2680450677871704,-0.21355026960372925,0.1887652426958084,0.2046569585800171,-0.5919086678379455,0.025655591854936037,-0.7958418971781314,0.12498637597527266,-0.23136906654286973,1.8497845171320328,-0.11028153250205404
1773062288536356352,2.9300894737243652,0.5535134077072144,-0.9845458269119263,0.3647505044937134,0.9391857385635376,0.22746101021766663,0.25727686285972595,-0.22707349061965942,0.2689225971698761,0.29387062788009644,-0.5961832587268975,0.022997931862574747,-0.7925336103435285,0.12620224619256323,-0.22946954732404284,1.8381731424386236,-0.11736472059949894
1773062288546392320,2.9401254653930664,0.42029431462287903,-0.9853010177612305,0.3887854814529419,0.9425330758094788,0.22514291107654572,0.24686481058597565,-0.20347362756729126,0.22818045318126678,0.36084699630737305,-0.6003818708464429,0.020638119381532944,-0.7893075904995827,0.12692226190691386,-0.22708971451645085,1.8269585430462578,-0.12329359130547782
1773062288556428544,2.9501614570617676,0.32418695092201233,-0.951643168926239,0.3440784811973572,0.9457336068153381,0.22244270145893097,0.23686960339546204,-0.11777645349502563,0.15437309443950653,0.43392205238342285,-0.6044918841041332,0.01868722013273411,-0.7861841955337083,0.1271013594434751,-0.2243192361176407,1.8162090466266045,-0.12782183482566087
1773062288566464512,2.9601974487304688,0.26733162999153137,-0.9121027588844299,0.1710895597934723,0.9484913349151611,0.220676451921463,0.2273021638393402,-0.013097047805786133,0.11971662938594818,0.4676288366317749,-0.6083681452694121,0.01732991442668464,-0.7831671309706044,0.12742523861013155,-0.22250796707514,1.8060065684744853,-0.13150998989679533
1773062288576500480,2.97023344039917,0.12450152635574341,-0.7526904940605164,0.11655574291944504,0.9506365656852722,0.21986229717731476,0.21897707879543304,0.017396390438079834,0.09523174166679382,0.39744749665260315,-0.6117169145147264,0.016737330447219142,-0.780518033161802,0.12772625246445035,-0.22167331740940385,1.7971950488772774,-0.13380011570273315
1773062288586536448,2.980269432067871,0.005951444618403912,-0.6099067330360413,0.1605910360813141,0.9524228572845459,0.21864111721515656,0.212336003780365,-0.02981555461883545,0.08299458026885986,0.2968192994594574,-0.6144908368844608,0.016512232315533115,-0.7783927957079749,0.12740860914938282,-0.220421677696207,1.790152008915542,-0.13452727663795266
1773062288596572416,2.9903054237365723,-0.09335437417030334,-0.4927246868610382,0.2008708119392395,0.9539887309074402,0.21684150397777557,0.20708706974983215,-0.08037739992141724,0.07823292911052704,0.24532078206539154,-0.6167769430619555,0.01628324901450811,-0.7767099763420597,0.12665939977860444,-0.21857782296304673,1.784554913554087,-0.13454359158202925
1773062288606608384,3.0003414154052734,0.05798235535621643,-0.3177115321159363,0.16294734179973602,0.955230176448822,0.21495573222637177,0.20329557359218597,-0.03471332788467407,0.08486416935920715,0.17661771178245544,-0.6184621592408163,0.01588586138290159,-0.7754968890390341,0.12592321197071144,-0.21664649644492218,1.780491366980098,-0.1346636679076596
1773062288616644608,3.0103776454925537,0.11812824755907059,-0.1541026085615158,0.10611734539270401,0.9559922218322754,0.21386712789535522,0.20084841549396515,-0.01492154598236084,0.09687815606594086,0.05780342221260071,-0.619465397879099,0.01522916765252043,-0.7747207740093105,0.1258513048660495,-0.21553197533279342,1.7778787337320852,-0.13587620007189866
1773062288626680576,3.020413637161255,0.18239125609397888,-0.042592793703079224,0.11841369420289993,0.9564282894134521,0.21311955153942108,0.19956320524215698,-0.09571027755737305,0.06256106495857239,-0.07761485874652863,-0.6199337623053662,0.014387427842347773,-0.7743220293340084,0.12609808105067835,-0.21476675595452024,1.7764996445661656,-0.13765058115412523
1773062288636716544,3.030449628829956,0.16563357412815094,0.058983366936445236,0.05720040947198868,0.9566099047660828,0.21259987354278564,0.19924598932266235,-0.14664286375045776,-0.005873784422874451,-0.16915571689605713,-0.619976410481702,0.013462698089215817,-0.7742362375805127,0.1265161411449428,-0.21423489120900716,1.7761438865077992,-0.13966345773705227
1773062288646752512,3.0404856204986572,0.01884300820529461,0.13647812604904175,0.04629294201731682,0.9565077424049377,0.21232832968235016,0.2000240683555603,-0.08422380685806274,-0.05559004843235016,-0.18224751949310303,-0.6196203361769421,0.012940193012563782,-0.7744963436126364,0.12672255395164833,-0.21395699673085788,1.7769447104192126,-0.14065541250120925
1773062288656788480,3.0505216121673584,0.13266251981258392,0.16065643727779388,0.025645188987255096,0.9562934041023254,0.21209850907325745,0.20128846168518066,-0.004907965660095215,-0.006822064518928528,-0.07152774930000305,-0.6190793026646306,0.012493633872193403,-0.7749116996690871,0.12687214185572396,-0.2137218320615334,1.778256044457957,-0.14140207813293862
1773062288666824704,3.0605576038360596,0.2253924459218979,0.22723239660263062,-0.014118645340204239,0.9559091329574585,0.21244555711746216,0.20274251699447632,0.04822593927383423,0.10518139600753784,0.021012425422668457,-0.6183420858092064,0.011777749549642263,-0.7753918647306334,0.12760012767744752,-0.21407696928501752,1.7797931498588981,-0.14328572431105432
1773062288676859648,3.0705926418304443,0.11842499673366547,0.17722807824611664,0.05031280964612961,0.9554738998413086,0.2128097116947174,0.204404816031456,0.09637528657913208,0.05855253338813782,-0.018903762102127075,-0.617528987485555,0.01112277630618776,-0.7759372996707053,0.12827868705935594,-0.21444964243221398,1.7815498206011413,-0.14498740694537332
1773062288686895616,3.0806286334991455,0.17884080111980438,0.012498590163886547,0.35798338055610657,0.9556894302368164,0.21111024916172028,0.20515842735767365,0.14732253551483154,-0.022832095623016357,-0.048313409090042114,-0.6172468521342706,0.009836432323878179,-0.7761974373420301,0.12816792775760089,-0.21271066807688124,1.782257632485887,-0.1467750123018266
1773062288696931584,3.0906646251678467,0.3888406455516815,-0.18685738742351532,0.5245435833930969,0.9568278789520264,0.20740880072116852,0.2036229372024536,0.23128259181976318,0.03351227939128876,0.011007219552993774,-0.6179272071070133,0.007282133554384567,-0.7757309050182974,0.12788528722660492,-0.20892540861678954,1.7804786932486094,-0.1505801526167923
1773062288706967552,3.100700616836548,0.4468177258968353,-0.3192674517631531,0.40203049778938293,0.9583594799041748,0.20358362793922424,0.20025263726711273,0.31141602993011475,0.07720866799354553,-0.001369565725326538,-0.6192533392369357,0.004180490698771375,-0.774666923627672,0.12805894615169056,-0.2050168176351226,1.7767860863912663,-0.1560109969027659
1773062288717003520,3.110736608505249,0.23500187695026398,-0.3163401186466217,0.17246600985527039,0.9595497250556946,0.20164445042610168,0.19647890329360962,0.24110335111618042,0.0023197978734970093,-0.08269405364990234,-0.6206709195399389,0.0022315596459510944,-0.7734561848710533,0.1285621117506459,-0.2030365682158779,1.772766088187231,-0.16009502468102005
1773062288727039488,3.12077260017395,0.16540461778640747,-0.23507645726203918,0.18065208196640015,0.9604339599609375,0.20041856169700623,0.19338884949684143,0.04798901081085205,-0.08329205214977264,-0.1228017508983612,-0.6218741558951832,0.0012064677182478372,-0.7724590421379176,0.12875635052864023,-0.20178512695574835,1.7694951084587156,-0.16226562286508148
1773062288737075456,3.1308085918426514,0.05888776481151581,-0.1788688451051712,0.1901358664035797,0.9612013101577759,0.19879907369613647,0.1912354677915573,-0.12901753187179565,-0.059501588344573975,-0.054745569825172424,-0.622763997991583,0.00019728149233080972,-0.7717627179763442,0.1286362658025677,-0.20013237755780594,1.7671865327183451,-0.16390533900895532
1773062288747111680,3.1408445835113525,-0.04049581661820412,-0.15604087710380554,0.12353082746267319,0.96182781457901,0.1973036825656891,0.18962670862674713,-0.15225762128829956,-0.0024032145738601685,-0.047582775354385376,-0.6235072273193522,-0.00030694884653245083,-0.7712413746414076,0.12816121145902418,-0.19860677805145974,1.765452357613392,-0.16424393668395326
1773062288757147648,3.1508805751800537,-0.3364446461200714,-0.18251590430736542,-0.008662093430757523,0.9622925519943237,0.19634456932544708,0.1882605254650116,-0.07651978731155396,-0.010248363018035889,-0.06649541854858398,-0.624231781193326,8.347397433576266e-05,-0.7707984546710178,0.1272968019722839,-0.19762852476177475,1.7639937017400422,-0.16266548852343202
1773062288767183616,3.160916566848755,-0.4944547414779663,-0.11396490782499313,-0.02059851586818695,0.9625092148780823,0.19586889445781708,0.18764719367027283,-0.007568418979644775,-0.11078587174415588,-0.051142096519470215,-0.6247932783285545,0.001667335737340874,-0.7705977025089147,0.12573707917924037,-0.19714342362193377,1.7633374632174919,-0.15826225496920096
1773062288777219584,3.170952558517456,-0.3235679268836975,-0.02904336154460907,0.0936787948012352,0.9627107977867126,0.19469286501407623,0.18783673644065857,-0.035785138607025146,-0.16516710817813873,0.03269851207733154,-0.6250765178596058,0.0029305313049254986,-0.7706554224721639,0.12393947513696098,-0.19594431835562331,1.7634878063987078,-0.1539687503620176
1773062288787255552,3.1809885501861572,-0.06087019294500351,0.07942163199186325,0.056532178074121475,0.9628294110298157,0.1935541331768036,0.18840506672859192,-0.1107175350189209,-0.06547181308269501,0.045558005571365356,-0.6250507076952722,0.003241514560326589,-0.7708385201960664,0.12291933445583955,-0.1947835041670361,1.764033209587895,-0.15211571460199205
1773062288797291520,3.1910245418548584,0.19822686910629272,0.11993496865034103,0.05014245584607124,0.962705135345459,0.19331200420856476,0.18928568065166473,-0.15388262271881104,0.05305635929107666,-0.02218666672706604,-0.6246544751286695,0.0027188004816077176,-0.7711260895909374,0.12314158586759345,-0.19453670624801045,1.7649383771767615,-0.1531235293520215
1773062288807327488,3.2010605335235596,-0.06094503030180931,0.1288313865661621,0.11029323190450668,0.9626535177230835,0.19262880086898804,0.19024376571178436,-0.18564534187316895,0.11503420770168304,0.008486777544021606,-0.624265418046322,0.00207605037711765,-0.7714386374085169,0.12317038866742563,-0.1938404249216567,1.765906555855701,-0.154061566380861
1773062288817363456,3.2110965251922607,-0.10035928338766098,0.1959044337272644,0.08338306099176407,0.9625212550163269,0.19143560528755188,0.19210736453533173,-0.1701170802116394,0.06529352068901062,0.0848853588104248,-0.6236604821765827,0.0018942463374760625,-0.7720428055358753,0.12244973008925512,-0.19262458942962987,1.7677953686170544,-0.1532310760107345
1773062288827399424,3.221132516860962,-0.2944977879524231,0.2591255307197571,-0.060676515102386475,0.9621046185493469,0.19102849066257477,0.19458311796188354,-0.12380212545394897,-0.02489084005355835,0.1384093463420868,-0.6228033451633732,0.002274377721792604,-0.7728430551012871,0.1217553251174824,-0.19220983049554208,1.77035186962128,-0.1515020019538305
1773062288837435648,3.231168746948242,-0.43796229362487793,0.27073290944099426,-0.009702280163764954,0.9614816904067993,0.19069519639015198,0.19796054065227509,-0.13997900485992432,-0.16733397543430328,0.1821969747543335,-0.6217084592439949,0.0034731955676570126,-0.7739303625813367,0.12040913115092748,-0.19187028887489654,1.7738499494394004,-0.14757612058648908
1773062288847471616,3.2412047386169434,-0.31091246008872986,0.2778705656528473,0.009741902351379395,0.960957944393158,0.18984414637088776,0.20129360258579254,-0.15585845708847046,-0.17815591394901276,0.29434239864349365,-0.6206584837312948,0.004475073705870657,-0.7750011455693125,0.11889606080507659,-0.1910034089517397,1.7772825925862081,-0.14375112946822205
1773062288857507584,3.2512407302856445,-0.13135309517383575,0.3249534070491791,-0.03341834992170334,0.9603055119514465,0.18954375386238098,0.20466248691082,-0.12442892789840698,-0.006667107343673706,0.34976568818092346,-0.6194543519041982,0.0050437480980267185,-0.776083632747327,0.11808972473443141,-0.19069745071464791,1.7807770217571313,-0.14150194145684136
1773062288867543808,3.2612767219543457,0.028535781428217888,0.30890896916389465,0.0037754452787339687,0.9596115946769714,0.18958154320716858,0.20785684883594513,-0.10237282514572144,0.12349830567836761,0.32955777645111084,-0.6181929752512575,0.005080654898863738,-0.7771117104006463,0.11793664029727563,-0.19073593887215218,1.7841062400401009,-0.14093215368934603
1773062288877579776,3.271312713623047,0.019627774134278297,0.2771686315536499,-0.032034218311309814,0.9589782953262329,0.18981000781059265,0.21055389940738678,-0.06734621524810791,0.20639972388744354,0.3525106906890869,-0.6170534779987893,0.004793677970008119,-0.7779807015416699,0.11818679671135625,-0.19096863037926481,1.7869275305031398,-0.14142990253691065
1773062288887614720,3.2813477516174316,-0.18751949071884155,0.2763068675994873,-0.1228458359837532,0.9582363963127136,0.1903538554906845,0.21342000365257263,0.022812068462371826,0.1451716125011444,0.2633255422115326,-0.6159071326618002,0.005174141496729893,-0.778898727826356,0.11810282438032423,-0.19152258523109603,1.7899411547500943,-0.14044115218902473
1773062288897650688,3.291383743286133,-0.25805142521858215,0.2811330556869507,-0.14403660595417023,0.9573712944984436,0.19119112193584442,0.2165316492319107,0.028209030628204346,-0.0659317672252655,0.1341305673122406,-0.6147364692372644,0.006294352962344191,-0.779888587241091,0.11761448199826931,-0.19237551025307068,1.7932270818246512,-0.1377544504234995
1773062288907686656,3.301419734954834,-0.10469411313533783,0.2417837679386139,-0.1009751558303833,0.9565628170967102,0.1919882595539093,0.21938087046146393,-0.03748023509979248,-0.1438315510749817,0.08710716664791107,-0.6136483890587245,0.007258357818662814,-0.7807930253977429,0.11723984326886372,-0.19318769793515367,1.7962405113744975,-0.1354802109548306
1773062288917722624,3.311455726623535,0.027733437716960907,0.21884037554264069,-0.11058597266674042,0.9558630585670471,0.1928664892911911,0.22164946794509888,-0.06319332122802734,-0.0170242041349411,0.0724637508392334,-0.6126845688793086,0.007588628116167441,-0.781515929841908,0.11744329926039694,-0.19408264965669877,1.7986534475359457,-0.13498637001786784
1773062288927758592,3.3214917182922363,0.08419511467218399,0.20161078870296478,-0.18061086535453796,0.9550983905792236,0.19439008831977844,0.22360537946224213,-0.021535277366638184,0.13968579471111298,0.11002799868583679,-0.6117523516732095,0.00783939177010196,-0.7821388851837894,0.11813666402706191,-0.19563564121156124,1.8007719493891339,-0.13526221768160984
1773062288937794560,3.3315277099609375,-0.018123531714081764,0.06224757060408592,-0.18926747143268585,0.9544034004211426,0.19637508690357208,0.22483493387699127,0.03905045986175537,0.13260436058044434,0.18176598846912384,-0.6110966709345915,0.008386883984953828,-0.7825261193434533,0.1189255439005499,-0.19765964234082264,1.8021544724354286,-0.13526185306272387
1773062288947830784,3.3415637016296387,0.13983839750289917,0.00807674415409565,-0.13355280458927155,0.9540184736251831,0.1979837417602539,0.22505785524845123,0.11913204193115234,0.017226174473762512,0.18293163180351257,-0.6108714570775712,0.008814118224278692,-0.7825926403367535,0.11961213635861574,-0.19930051635184187,1.8024658837296508,-0.1354256492370941
1773062288957866752,3.35159969329834,-0.030289918184280396,-0.05961841717362404,-0.06456149369478226,0.9538503885269165,0.1991654336452484,0.22472739219665527,0.16445094347000122,-0.03629313409328461,0.15414832532405853,-0.6108895775784812,0.009038007434009855,-0.7824845090229592,0.12020875642501094,-0.20050621384515444,1.8021770470668914,-0.13585524677279742
1773062288967902720,3.361635684967041,-0.03718164563179016,-0.10016211122274399,-0.013438384979963303,0.9539777636528015,0.199359729886055,0.22401393949985504,0.12207204103469849,-0.0297582745552063,0.05162084102630615,-0.611190054876882,0.009293002808762796,-0.7822535439820232,0.12016573595962467,-0.20070448886889286,1.8014385684645426,-0.13547440885375114
1773062288977938688,3.371671676635742,-0.235532745718956,-0.12184832990169525,-0.028207432478666306,0.9541941285133362,0.1992867887020111,0.22315500676631927,0.024138271808624268,0.0322500616312027,0.08072374761104584,-0.6116315118424277,0.009870841407326782,-0.781971909282694,0.1197051652423101,-0.2006300563962088,1.8005347886339986,-0.13407615680825538
1773062288987974656,3.3817076683044434,-0.22290344536304474,-0.0779186561703682,-0.0658862367272377,0.9543277621269226,0.19916196167469025,0.22269470989704132,-0.016675233840942383,-0.010441288352012634,0.12439702451229095,-0.6119825909361064,0.010862436901785554,-0.7818115903302639,0.11886925316853182,-0.2005026787133485,1.8000463826782285,-0.1315129057398802
