time,seconds_elapsed,rotationRateX,rotationRateY,rotationRateZ,gravityX,gravityY,gravityZ,accelerationX,accelerationY,accelerationZ,quaternionW,quaternionX,quaternionY,quaternionZ,pitch,roll,yaw
1773063913354895360,0.032784223556518555,-0.06005866080522537,0.012187765911221504,0.04346400126814842,-0.07186717540025711,-0.6043471097946167,-0.7934731841087341,-0.04274158179759979,0.0295943021774292,-0.02569490671157837,0.3397369832026637,0.07906122713436606,-0.31146867235062353,-0.8839204878393009,0.6489461629169447,-0.09032645508866748,-2.3773025870565676
1773063913364932352,0.04282116889953613,-0.11195887625217438,-0.0029379238840192556,0.03525427356362343,-0.07207433134317398,-0.6036191582679749,-0.7940083146095276,-0.08503017574548721,-0.0071596503257751465,-0.006452500820159912,0.3399264726170078,0.07885834024834755,-0.31109036541971175,-0.8839989073546284,0.6480327766872763,-0.09052467668879309,-2.3769676067647345
1773063913374968320,0.052857160568237305,-0.15099689364433289,0.0226381104439497,0.030524898320436478,-0.07221044600009918,-0.6025199294090271,-0.7948303818702698,-0.017907969653606415,-0.047504425048828125,0.00833141803741455,0.3401517636230689,0.07861676385482473,-0.31049028505900567,-0.884144692495035,0.6466547648018636,-0.09060141454486698,-2.3766777359329008
1773063913385005312,0.06289410591125488,-0.14206092059612274,0.0431031733751297,0.0262175053358078,-0.07209553569555283,-0.6013151407241821,-0.7957527041435242,0.01563800871372223,-0.05192887783050537,0.01225966215133667,0.3403679738917179,0.07847000657523077,-0.30978397403983793,-0.8843223086544967,0.645146014819156,-0.09035374291106467,-2.3765454802415493
1773063913395041280,0.07293009757995605,-0.10986277461051941,0.0300117377191782,0.03217392787337303,-0.07195600867271423,-0.6002657413482666,-0.7965572476387024,-0.00543656200170517,-0.0321805477142334,0.013125240802764893,0.3406055444506309,0.0783786474713128,-0.30915719575334144,-0.8844583682902448,0.6438333271789378,-0.0900892411449317,-2.3763352289537623
1773063913405078272,0.08296704292297363,-0.07811816036701202,0.029855675995349884,0.03452736511826515,-0.07194764167070389,-0.599502682685852,-0.7971324324607849,-0.020764745771884918,-0.01654040813446045,0.017301499843597412,0.34084467759328163,0.07829001148868361,-0.3087142018974657,-0.8845288206666957,0.6428796102310936,-0.0900141739001046,-2.3759905971098796
1773063913415114240,0.0930030345916748,-0.06586422026157379,0.029316619038581848,0.037066999822854996,-0.0719248428940773,-0.5989075899124146,-0.7975817322731018,-0.002782173454761505,-0.004073977470397949,0.014103889465332031,0.34107663831059176,0.07824459718767891,-0.30836168167590944,-0.8845664256160343,0.642136293718906,-0.08993538855940686,-2.3756259918495153
1773063913425151232,0.10304021835327148,-0.045499030500650406,0.016644231975078583,0.02662687748670578,-0.07193668931722641,-0.5984038710594177,-0.7979586124420166,0.014548391103744507,0.006393373012542725,-0.0073850154876708984,0.3412831438220282,0.07819447662449418,-0.3080686858411503,-0.8845932356652991,0.6415074290748785,-0.08990786162820141,-2.375280381100834
1773063913435188224,0.11307716369628906,-0.025646163150668144,0.020068826153874397,0.017174385488033295,-0.07194370776414871,-0.5981349945068359,-0.7981595396995544,0.010038815438747406,0.014501571655273438,-0.014386236667633057,0.3414237891061613,0.07817793831408143,-0.3079097918647382,-0.8845957784207207,0.6411719159676688,-0.0898940727660012,-2.375026931945366
1773063913445224192,0.12311315536499023,0.0067991288378834724,-0.006051724776625633,-0.020870734006166458,-0.07188932597637177,-0.5980173945426941,-0.798252522945404,0.0011648386716842651,0.011332213878631592,-0.004008769989013672,0.34143970908491034,0.07818281310662183,-0.30783303316570293,-0.8846158976441193,0.641025184889539,-0.08981607604645431,-2.3750441164249847
1773063913455261184,0.1331501007080078,0.024014800786972046,-0.02831551805138588,-0.026944737881422043,-0.07186257094144821,-0.598192572593689,-0.7981237173080444,-0.004538185894489288,0.0016044378280639648,-0.007723450660705566,0.3412805743189615,0.07818090052613534,-0.30793813612810816,-0.8846408647177194,0.6412437219392184,-0.08979724472432389,-2.3753715396972743
1773063913465297152,0.14318609237670898,0.04563567414879799,-0.029368264600634575,-0.01705642230808735,-0.07196911424398422,-0.5984902381896973,-0.7978909015655518,0.0019465386867523193,0.007364749908447266,0.002007722854614258,0.3411189260613297,0.07814143049172723,-0.30813708782505106,-0.8846374518482786,0.64161526393848,-0.08995575996165829,-2.3756158310143336
1773063913475334144,0.15322303771972656,0.04778430983424187,-0.017747296020388603,-0.005719079170376062,-0.07207353413105011,-0.5989145040512085,-0.7975630760192871,0.011419862508773804,0.020636916160583496,0.00872945785522461,0.3409970663789115,0.0781460230562203,-0.3084017776783512,-0.8845918270352042,0.6421449395474711,-0.09012240366963038,-2.3757391352686192
1773063913485370112,0.16325902938842773,0.010339735075831413,-0.016010383144021034,-0.009116207249462605,-0.07214319705963135,-0.599188506603241,-0.7973508834838867,-0.0018008947372436523,0.023062467575073242,0.013232290744781494,0.3409152501359179,0.07814683440785401,-0.30857351743081757,-0.884563291238692,0.6424871285959057,-0.0902329075322858,-2.375824388551038
1773063913495407360,0.17329621315002441,-0.03235945850610733,-0.01280403696000576,-0.0025044220965355635,-0.07225649058818817,-0.5990702509880066,-0.7974295020103455,-0.023019403219223022,0.002299010753631592,0.007817685604095459,0.34088695588036144,0.07805447416282767,-0.3085332179119854,-0.8845963790776783,0.6423394133089233,-0.09036498245826115,-2.375868530284612
1773063913505443328,0.18333220481872559,-0.04602546989917755,-0.008919816464185715,-0.015620224177837372,-0.07227843254804611,-0.5987470149993896,-0.7976702451705933,-0.01877075433731079,-0.006950557231903076,0.006502091884613037,0.34083434028911963,0.07795085237881613,-0.30836430353616956,-0.8846847188966777,0.6419358133030706,-0.09036514415567341,-2.376059377203556
1773063913515480320,0.19336915016174316,-0.0293856393545866,-0.013402914628386497,-0.012954844161868095,-0.07228159159421921,-0.5984407663345337,-0.7978997230529785,-0.006728425621986389,-0.007790863513946533,0.000933229923248291,0.3407681876298358,0.07785565297734827,-0.30820227264154065,-0.8847749920195278,0.6415535126821864,-0.09034322278386042,-2.376284450861106
1773063913525517312,0.20340609550476074,-0.007733607664704323,-0.009916837327182293,-0.008250103332102299,-0.07230718433856964,-0.5982946753501892,-0.7980069518089294,-0.007389478385448456,-0.005205690860748291,-0.004422187805175781,0.3407054171856346,0.07778763614206367,-0.3081324328504157,-0.8848295306276276,0.6413711708052412,-0.09036295525009225,-2.376452037357648
1773063913535553280,0.21344208717346191,0.01772068627178669,-0.009808946400880814,-0.019024942070245743,-0.0723055824637413,-0.598345160484314,-0.7979692816734314,-0.006261929869651794,0.006624579429626465,-0.0019269585609436035,0.34062507506124645,0.0777720649346611,-0.30816694214124607,-0.8848497909885743,0.6414341339635176,-0.09036521374282998,-2.3766215979360825
1773063913545590272,0.2234790325164795,0.018420297652482986,-0.005691166501492262,-0.026812024414539337,-0.07221495360136032,-0.5985154509544373,-0.7978497743606567,-0.011265896260738373,0.008854806423187256,-0.004503130912780762,0.3404904606904438,0.07780857076887904,-0.308254672237104,-0.8848678091637274,0.6416466788057366,-0.09026600415228221,-2.3769225763746884
1773063913555626240,0.23351502418518066,0.02514497935771942,-0.010979571379721165,-0.03368941694498062,-0.0721174031496048,-0.598693311214447,-0.7977251410484314,-0.01795521378517151,0.0007929205894470215,-0.010548174381256104,0.34033845659533707,0.07784409987026934,-0.30834675668939804,-0.8848911830383391,0.6418687750552466,-0.09015873834656786,-2.3772643104012405
1773063913565663232,0.24355220794677734,0.05123303830623627,-0.029620103538036346,-0.036114759743213654,-0.07201418280601501,-0.5990095138549805,-0.7974970936775208,-0.011237762868404388,-0.0032243728637695312,-0.014667212963104248,0.3401160348765033,0.07788969112091408,-0.30852010117654644,-0.8849122460996115,0.6422635543072766,-0.09005600082109586,-2.3777326448383187
1773063913575699456,0.2535881996154785,0.03453701734542847,-0.028101099655032158,-0.018273886293172836,-0.07219627499580383,-0.5993926525115967,-0.7971926331520081,0.002616189420223236,-4.887580871582031e-05,-0.005816400051116943,0.33995242346165644,0.0778321183658439,-0.3087812165601557,-0.8848890190285388,0.6427421374294274,-0.09031676509331206,-2.3779262171597746
1773063913585736192,0.2636251449584961,0.000493295956403017,-0.006962526589632034,-0.017074132338166237,-0.07227244973182678,-0.5995614528656006,-0.7970588207244873,0.014563702046871185,0.007444143295288086,0.010361433029174805,0.33984454367026334,0.07779619405307607,-0.30889861234049515,-0.8848926727078442,0.6429530482471704,-0.0904266464033922,-2.3780942615781244
1773063913595772160,0.27366113662719727,-0.0027394487988203764,0.011065243743360043,-0.010502560064196587,-0.07223138213157654,-0.5995704531669617,-0.797055721282959,0.01581963151693344,0.005179643630981445,0.02561718225479126,0.3397932309556791,0.07780038116785126,-0.30890003782838116,-0.8849114798535876,0.6429642980500392,-0.09037588646039196,-2.37822587300988
1773063913605809152,0.28369808197021484,-0.008218370378017426,0.014467697590589523,-0.02237280271947384,-0.07200112193822861,-0.5995303988456726,-0.7971066832542419,-0.004399627447128296,-0.012408077716827393,0.01620769500732422,0.33975408655460715,0.07788973710429185,-0.308836259924019,-0.8849409622742171,0.6429142717117055,-0.09008361673888818,-2.378425376584735
1773063913615845120,0.293734073638916,-0.0068299309350550175,0.00037791160866618156,-0.013153825886547565,-0.07187894731760025,-0.5994795560836792,-0.7971559762954712,-0.009465664625167847,-0.0078355073928833,-0.010003447532653809,0.33968639887445984,0.07791397321532388,-0.30879025457864684,-0.8849808885235925,0.6428507444824614,-0.08992604627426397,-2.378644669486773
1773063913625882112,0.3037710189819336,-0.012330157682299614,0.002169952727854252,-0.012843301519751549,-0.07180771231651306,-0.5993801355361938,-0.7972372174263,-0.0020295530557632446,0.014281809329986572,-0.011585414409637451,0.33962791819499116,0.07790539556961554,-0.3087266341581738,-0.8850263485187956,0.6427264663248387,-0.08982830224521335,-2.378833143079141
1773063913635919360,0.3138082027435303,-0.0065172757022082806,0.001813621842302382,0.006588541902601719,-0.07181624323129654,-0.5992661714553833,-0.7973220944404602,-0.008475489914417267,0.0015335679054260254,0.00413966178894043,0.3396293091957876,0.07787550966858978,-0.308665426843841,-0.8850497970709482,0.6425841213469233,-0.0898294029589112,-2.3788548707721353
1773063913645955328,0.32384419441223145,0.004223519004881382,-0.01086808554828167,0.003569316118955612,-0.07191493362188339,-0.5992476344108582,-0.7973271012306213,-0.02929660677909851,-0.016719162464141846,-0.002080857753753662,0.33965809585461504,0.07783318924356257,-0.3086720541173323,-0.8850401102986959,0.6425609942727435,-0.08995162433672334,-2.378751167498007
1773063913655992320,0.333881139755249,0.002870566677302122,-0.009572623297572136,-0.023759465664625168,-0.07195338606834412,-0.5992843508720398,-0.7972960472106934,-0.017814062535762787,-0.002690136432647705,-0.007498264312744141,0.3395883892410593,0.07779857030132092,-0.3087059236129834,-0.8850580744535418,0.6426068123343487,-0.09000294850253747,-2.3788826191569403
1773063913666028288,0.3439171314239502,0.00955483503639698,-0.009126543998718262,-0.0309409461915493,-0.07184693217277527,-0.5993372201919556,-0.7972659468650818,0.01784607768058777,0.017061829566955566,0.0017489790916442871,0.3394490217660321,0.07781401477637466,-0.30872643970255426,-0.8851030283548497,0.6426728607203244,-0.08987388690583399,-2.3792308618728555
1773063913676065280,0.3539540767669678,0.0275243129581213,0.019671183079481125,-0.03459520265460014,-0.07153088599443436,-0.5995569825172424,-0.7971290946006775,0.00904615968465805,0.007577002048492432,0.02575153112411499,0.3392803993774114,0.07795981182853497,-0.30880044474501367,-0.8851290637329937,0.6429474352980181,-0.08949592643717778,-2.3796951428644606
1773063913686101248,0.36399006843566895,0.029258564114570618,0.017511891201138496,-0.014071817509829998,-0.07123786211013794,-0.5998803377151489,-0.7969120144844055,-0.019475631415843964,-0.007221102714538574,0.016852200031280518,0.33917724452661,0.07814105495438109,-0.30893036239918453,-0.8851072789581887,0.6433515675650411,-0.08915540816730025,-2.3799755034412193
1773063913696138240,0.3740270137786865,0.004487704485654831,0.010222152806818485,-0.0001655896194279194,-0.0711459368467331,-0.6000153422355652,-0.7968186140060425,-0.023260168731212616,0.0019013285636901855,-0.0070449113845825195,0.3391691711409861,0.07821409836406423,-0.30898744500736325,-0.8850840129652815,0.6435202556724754,-0.08905134419903078,-2.380000264816843
1773063913706175232,0.3840641975402832,-0.01429290696978569,0.011818718165159225,-0.010309835895895958,-0.07103556394577026,-0.5999089479446411,-0.7969085574150085,-0.008111760020256042,0.010416150093078613,-0.011212170124053955,0.3391601192693065,0.07824030238242384,-0.3089080315656427,-0.8851129118647866,0.6433873076624875,-0.08890394369036071,-2.380095753906396
1773063913716211200,0.3941001892089844,0.008840374648571014,0.0009329142048954964,0.005940328352153301,-0.07098597288131714,-0.5998688340187073,-0.7969431281089783,0.0048238784074783325,0.0002594590187072754,-0.013420581817626953,0.339169785496392,0.07825864871740201,-0.30887539097030875,-0.8851189463422422,0.6433371931316957,-0.08883836905813468,-2.380105580546716
1773063913726248192,0.40413713455200195,0.024125054478645325,-0.004688220098614693,0.012145759537816048,-0.07115522772073746,-0.6000571250915527,-0.7967862486839294,0.0005070269107818604,-0.00464862585067749,-0.010617256164550781,0.3392076226165529,0.07823263067204153,-0.30900893846782884,-0.885060028793653,0.6435725223036405,-0.0890665105104502,-2.3798985638862162
1773063913736284160,0.4141731262207031,0.0024127024225890636,-0.014540783129632473,0.01756981946527958,-0.07138337939977646,-0.6001309156417847,-0.7967103123664856,-0.0008059516549110413,0.006380915641784668,0.003939926624298096,0.3392560531641116,0.07815523482638753,-0.30908995548142,-0.8850200470264852,0.6436647274253984,-0.08935904940686189,-2.3796707252224665
1773063913746321152,0.4242100715637207,-0.019820697605609894,-0.005118253640830517,0.03139322251081467,-0.07157085090875626,-0.6000044941902161,-0.7967886924743652,0.011512264609336853,0.0038588643074035645,0.014867305755615234,0.3393515493315292,0.07806807923291927,-0.30904857670480357,-0.8850056154694007,0.643506732499156,-0.08958371138219189,-2.3794045607002094
1773063913756357120,0.4342460632324219,-0.016346070915460587,0.009488651528954506,0.031177064403891563,-0.07170222699642181,-0.5998319983482361,-0.7969067692756653,0.016526460647583008,-0.012579500675201416,0.03454715013504028,0.33950537297039524,0.07801802671161993,-0.30896568088090237,-0.8849800016622448,0.6432910954230973,-0.08973404979831459,-2.3790427522831368
1773063913766394112,0.44428300857543945,0.060206495225429535,0.030621901154518127,0.013143470510840416,-0.0717315599322319,-0.6000394225120544,-0.7967479228973389,-0.002319328486919403,-0.024640142917633057,0.03658556938171387,0.3396324856531238,0.07809586967234956,-0.3090745213051424,-0.8848863463863974,0.6435504053418473,-0.08978835669905118,-2.3786904663832296
1773063913776428544,0.4543173313140869,0.08575673401355743,0.025399642065167427,-0.002842243993654847,-0.07158428430557251,-0.6006364226341248,-0.7963112592697144,-0.015436574816703796,-0.011836111545562744,0.008713603019714355,0.3396784153845091,0.07832125606198709,-0.30937057535174617,-0.8847453257152159,0.644296872858286,-0.08965387093635528,-2.3785010404196676
1773063913786465536,0.4643545150756836,0.10353812575340271,0.02781646139919758,-0.01593540981411934,-0.07132815569639206,-0.601352334022522,-0.7957937717437744,0.0005121156573295593,0.022143959999084473,-0.027463674545288086,0.3396345688099415,0.07859588510532498,-0.30971891278935915,-0.8846159417736176,0.6451926007045677,-0.08939257843169557,-2.3785324354887307
1773063913796502528,0.47439146041870117,0.1072407141327858,0.043465327471494675,-0.031466078013181686,-0.07087589055299759,-0.6021991968154907,-0.7951934933662415,0.018996000289916992,0.05361521244049072,-0.02522575855255127,0.3395393731871447,0.07897858303871857,-0.31010583052691093,-0.884482763549826,0.6462529534017262,-0.08889545944776038,-2.378733185647669
1773063913806538496,0.48442745208740234,0.06617449969053268,0.04921828955411911,0.01172293908894062,-0.07041511684656143,-0.6028822660446167,-0.7947167754173279,0.0011402219533920288,0.0407789945602417,-0.01355654001235962,0.339527200661884,0.07935687716392999,-0.310393477291903,-0.8843527272842043,0.6471088388353555,-0.08837325970056203,-2.3787919699745363
1773063913816575488,0.4944643974304199,0.023221177980303764,-0.01186290942132473,0.057355139404535294,-0.07047683000564575,-0.60323566198349,-0.7944430112838745,-0.030841529369354248,0.009363651275634766,-0.016119062900543213,0.3396920261608866,0.07946638548166439,-0.3105858648917146,-0.8842119456893509,0.647551846529833,-0.08848062535767796,-2.3783024929290493
1773063913826611456,0.5045003890991211,-0.04918191209435463,-0.018226265907287598,0.08050066977739334,-0.07108277082443237,-0.6030758619308472,-0.7945104241371155,-0.024772949516773224,-0.006100773811340332,-0.003478527069091797,0.33998680839535717,0.07923737500989521,-0.3105901494919019,-0.884117746408083,0.6473514909929275,-0.08922981494924534,-2.3774083452178907
1773063913836648448,0.5145373344421387,-0.09223464131355286,0.010852091014385223,0.06952414661645889,-0.07157547026872635,-0.6024439334869385,-0.7949454188346863,0.007381744682788849,-0.029178380966186523,0.01879185438156128,0.3403385932654367,0.07897435518795885,-0.31030683106858253,-0.8841054027395472,0.6465595383139013,-0.08979608670705574,-2.3765550501768518
1773063913846684416,0.5245733261108398,-0.17254438996315002,0.06117597967386246,0.05458886921405792,-0.07172732055187225,-0.6013725996017456,-0.7957425117492676,0.01121097058057785,-0.03652101755142212,0.031048357486724854,0.340741640692195,0.07879367559173218,-0.30971001074298554,-0.8841754966721229,0.6452179371244819,-0.08989591079563955,-2.3758477839364898
1773063913856721664,0.5346105098724365,-0.25328344106674194,0.1001441478729248,0.022400662302970886,-0.07127311825752258,-0.5996829867362976,-0.7970574498176575,-0.00532599538564682,-0.022463619709014893,0.033400774002075195,0.3410679281990188,0.07873823189213319,-0.3086609476484741,-0.8844215780220394,0.6431048876909655,-0.08918310681808007,-2.3757358005105083
1773063913866757632,0.5446465015411377,-0.33019474148750305,0.16821826994419098,-0.005449611693620682,-0.07032997906208038,-0.5973788499832153,-0.7988693714141846,-0.00468222051858902,-0.008700251579284668,0.04284214973449707,0.3414568244415053,0.07880074885108991,-0.30717383651074986,-0.8847836247064718,0.6402287035609068,-0.0878105084731694,-2.375843634241529
1773063913876794624,0.5546834468841553,-0.33093011379241943,0.5697829723358154,-0.3174901008605957,-0.06703656911849976,-0.5946657061576843,-0.8011734485626221,0.0008897334337234497,-0.028274357318878174,0.04539036750793457,0.3415008034837271,0.07979433621111132,-0.30503466895085823,-0.8854174690698027,0.63684978595193,-0.08347852954638417,-2.377833117061132
1773063913886830592,0.5647194385528564,-0.38240182399749756,0.27838844060897827,-0.3299872577190399,-0.061767108738422394,-0.5924063324928284,-0.8032680749893188,-0.009781356900930405,-0.05758756399154663,0.030959725379943848,0.34097804900134454,0.0816622508454686,-0.30281554345919987,-0.8862099346857512,0.6340424621573657,-0.07674374924367759,-2.381803616622661
1773063913896867584,0.574756383895874,-0.5938892364501953,0.208713099360466,-0.29131507873535156,-0.05801090970635414,-0.5884614586830139,-0.8064414858818054,-0.009173523634672165,-0.11644881963729858,-0.03010636568069458,0.3401450585306269,0.08230653538484639,-0.30000814736656056,-0.8874244774232047,0.629154635068672,-0.07181073786536776,-2.3861722769398686
1773063913906904576,0.5847933292388916,-0.6873419880867004,0.22613416612148285,-0.15594609081745148,-0.05477038398385048,-0.5837012529373169,-0.8101191520690918,0.05681505799293518,-0.2164238691329956,-0.028595447540283203,0.339743955171952,0.08266819066901926,-0.29682719895103166,-0.8886133109557125,0.623279611592986,-0.06750508529804053,-2.3894756754504494
1773063913916940544,0.5948293209075928,-0.8945673704147339,-0.15586063265800476,-0.11694209277629852,-0.05356587469577789,-0.5772090554237366,-0.814837634563446,0.0784224346280098,-0.13545268774032593,0.006869494915008545,0.3392230729936863,0.08161699603972244,-0.29312087703161094,-0.8901384715087202,0.6153067927566871,-0.06564364323293392,-2.392529492089475
1773063913926977536,0.6048665046691895,-0.8248189091682434,-0.13384240865707397,0.23009735345840454,-0.05544913560152054,-0.5700311660766602,-0.8197498917579651,0.08503594994544983,-0.09479427337646484,-0.05845445394515991,0.3397193608741953,0.07925661929800454,-0.2895572987803936,-0.8913281209608563,0.6065437579471252,-0.06753864459996081,-2.3921682188814515
1773063913937013504,0.6149024963378906,-0.6618181467056274,0.1460602879524231,0.26646921038627625,-0.056958992034196854,-0.5637176632881165,-0.8240012526512146,0.09499914944171906,-0.03221428394317627,0.0195884108543396,0.34120629890149123,0.07759827029372701,-0.28631782214389756,-0.8919522031557873,0.5988799009504912,-0.06901510393531884,-2.389551210663979
1773063913947050496,0.6249394416809082,-0.5745311379432678,0.2989851236343384,0.342958927154541,-0.05655175819993019,-0.5584650039672852,-0.8275982141494751,-0.020657703280448914,0.050332069396972656,-0.0426563024520874,0.3431079642836144,0.07723609656760158,-0.2832587024046823,-0.8922309616740515,0.5925342055656299,-0.0682263294856244,-2.3865244242672286
1773063913957086464,0.6349754333496094,-0.529761552810669,0.13301438093185425,0.5006900429725647,-0.05707457289099693,-0.5536253452301025,-0.8308077454566956,-0.13439270853996277,0.08365464210510254,-0.07002538442611694,0.3455660440888675,0.07668375603520246,-0.28056322873569634,-0.8921816251027762,0.5867113175288123,-0.06858992565217288,-2.3817985495129856
1773063913967123456,0.645012378692627,-0.46128636598587036,0.0025730221532285213,0.4660966396331787,-0.05930480360984802,-0.5491753816604614,-0.8336002230644226,-0.06624452769756317,0.0925866961479187,0.009610354900360107,0.34805458294483665,0.07539448450859287,-0.2784161838004675,-0.8919966466710925,0.5813772039554888,-0.07102331772662732,-2.3762824647771796
1773063913977159424,0.6550483703613281,-0.42689403891563416,0.040342506021261215,0.32321780920028687,-0.061360400170087814,-0.5452542901039124,-0.8360219597816467,0.08394341915845871,0.04963362216949463,0.09920555353164673,0.350003836323344,0.07413471901919015,-0.2765738186179807,-0.891912692339062,0.5766924122671923,-0.07326431575870328,-2.3719439647189215
1773063913987196416,0.6650853157043457,-0.5173986554145813,0.09594132006168365,0.2714081406593323,-0.06234892085194588,-0.5411943197250366,-0.8385829329490662,0.10104520618915558,-0.04636061191558838,0.13048356771469116,0.35156807893410497,0.07323599883557226,-0.274490493058802,-0.8920153394659764,0.5718567764664377,-0.07421378690621011,-2.3688979730911064
1773063913997233664,0.6751224994659424,-0.8129762411117554,0.057131338864564896,0.43246233463287354,-0.06351358443498611,-0.5354962348937988,-0.8421459197998047,0.034613437950611115,-0.1363329291343689,0.10447508096694946,0.3534669575999019,0.07198636701225743,-0.27156029735762566,-0.8922634076592485,0.5650952218628013,-0.07527622841286509,-2.3653694904319744
1773063914007269632,0.6851584911346436,-1.2041040658950806,0.019158655777573586,0.4575951397418976,-0.06563809514045715,-0.5266210436820984,-0.847562313079834,0.01996854692697525,-0.18247008323669434,0.06307750940322876,0.35573700371014383,0.06967653899688123,-0.26714044915505225,-0.8928786652164795,0.5546208960807757,-0.07728911869492247,-2.3613026688833574
1773063914017306624,0.6951954364776611,-1.503901481628418,0.02115626074373722,0.36616915464401245,-0.06766607612371445,-0.5147294998168945,-0.854678213596344,0.06658270210027695,-0.21006298065185547,0.049075186252593994,0.3578667045743764,0.06670147536093367,-0.26117390605690377,-0.8940193278533192,0.5406921298582639,-0.07900660511032868,-2.3581748619073393
1773063914027342592,0.7052314281463623,-1.687847375869751,0.03482413664460182,0.2725512981414795,-0.06903490424156189,-0.5006860494613647,-0.8628717660903931,0.10557971149682999,-0.25997984409332275,0.046984314918518066,0.3596650560154889,0.06347858464229658,-0.254036580036301,-0.8955875449241373,0.5243911409297127,-0.07983592814940807,-2.3563920410800487
1773063914037379584,0.7152683734893799,-1.7079241275787354,-0.010303827933967113,0.22974030673503876,-0.07011058181524277,-0.4856471121311188,-0.8713389039039612,0.10662486404180527,-0.2856999337673187,0.03012186288833618,0.361105726799195,0.06009324522461213,-0.2464129927276907,-0.8973696302322018,0.5071032760152911,-0.08029006891624785,-2.355621617395174
1773063914047415552,0.725304365158081,-1.5407413244247437,-0.06023356691002846,0.30961117148399353,-0.0715857669711113,-0.4711538851261139,-0.8791413903236389,0.1179877519607544,-0.2345498502254486,0.01401376724243164,0.3624437947951708,0.056627462094591234,-0.23921256100598787,-0.8990023933923342,0.4905984934065788,-0.08124766460785901,-2.3547837798972404
1773063914057452544,0.7353413105010986,-1.3211675882339478,-0.09318915754556656,0.5657950639724731,-0.0740397721529007,-0.4581924080848694,-0.8857640027999878,0.1290934830904007,-0.12870639562606812,0.002814173698425293,0.364445609039717,0.053213383591573835,-0.23299429548537592,-0.9000341131852206,0.47596049377553284,-0.08339473623325672,-2.351863631995546
1773063914067488512,0.7453773021697998,-1.0749473571777344,-0.280015766620636,0.41522684693336487,-0.0782923698425293,-0.4471084475517273,-0.8910467624664307,0.1377711296081543,-0.016087353229522705,-0.01289910078048706,0.36640104837184556,0.04933906215665388,-0.2281277331664673,-0.900707382067377,0.4635300392578578,-0.08764052964215609,-2.3482000231451226
1773063914077525504,0.7554144859313965,-0.9690378308296204,-0.23883576691150665,0.35776516795158386,-0.08236108720302582,-0.437813937664032,-0.8952851891517639,0.190545916557312,0.07381555438041687,-0.03457009792327881,0.36737428096345925,0.0456892366474252,-0.22420947339526967,-0.9014869877258275,0.45316575705638856,-0.09173603692656437,-2.346484514214289
1773063914087562496,0.7654514312744141,-1.1395909786224365,-0.22708962857723236,0.5256521701812744,-0.08630947023630142,-0.42799830436706543,-0.899648904800415,0.17543604969978333,0.05519556999206543,-0.02739882469177246,0.368914996338085,0.04213305408896115,-0.2200008213679658,-0.9020677252343949,0.44227681557337106,-0.09564412052254748,-2.343651487088518
1773063914097598464,0.7754874229431152,-1.3388633728027344,-0.21375714242458344,0.4064541757106781,-0.09009171277284622,-0.4163915514945984,-0.9047107696533203,0.06547927856445312,-0.029958516359329224,-0.014188766479492188,0.3701517797577598,0.03820977315465023,-0.2149061257983807,-0.9029634060750339,0.42947283076773957,-0.09925347276814862,-2.3418539348028253
1773063914107635456,0.7855243682861328,-1.5296152830123901,-0.2760085463523865,0.7772836685180664,-0.09463303536176682,-0.4028699994087219,-0.9103517532348633,0.07163804769515991,-0.02387252449989319,0.03492456674575806,0.3716426693290182,0.03359784236692964,-0.20903419219384914,-0.9039124799047005,0.41465043567957527,-0.10358012961101512,-2.3396254146743374
1773063914117671424,0.795560359954834,-1.7659298181533813,-0.42934390902519226,1.3935867547988892,-0.10221695154905319,-0.3866466283798218,-0.9165457487106323,0.05232071131467819,-0.04798471927642822,0.013255953788757324,0.3755364372539674,0.027546497843633014,-0.2024063399456249,-0.9040161474995096,0.3969926434149067,-0.1110651727952211,-2.331792310928514
1773063914127708416,0.8055973052978516,-1.7882497310638428,-0.7592237591743469,1.0635485649108887,-0.11263906955718994,-0.3686319887638092,-0.9227257966995239,0.13331472873687744,-0.028096526861190796,-0.08398807048797607,0.37985760427280857,0.019873332810357334,-0.1955560003151564,-0.9039198547841865,0.37753692505837994,-0.12147109818462465,-2.3227056148610448
1773063914137744384,0.8156332969665527,-1.6159005165100098,-0.9156142473220825,0.3756357729434967,-0.12308614701032639,-0.3520074784755707,-0.9278687834739685,0.304574191570282,-0.017972350120544434,-0.18202495574951172,0.3810023911619436,0.011795393800352228,-0.18954278022500254,-0.9048599431419266,0.35971499656277117,-0.13188468105321913,-2.3205180751008565
1773063914147781632,0.8256704807281494,-1.610973596572876,-0.7240767478942871,0.4530746340751648,-0.13215290009975433,-0.336619108915329,-0.9323213696479797,0.22950397431850433,-0.15840652585029602,-0.167944073677063,0.3804804588313633,0.004298290697492789,-0.1839043922173021,-0.9063086452057857,0.3433241612235512,-0.1408080393059109,-2.3222032117271483
1773063914157817600,0.8357064723968506,-1.8103121519088745,-0.701430082321167,0.9139861464500427,-0.14082975685596466,-0.31972184777259827,-0.9369871616363525,-0.03835420310497284,-0.27321943640708923,-0.11544203758239746,0.3813153621248025,-0.0030212582913076917,-0.17747477919014024,-0.9072442284812231,0.3254358972388728,-0.14918394806621663,-2.3212897446321588
1773063914167854592,0.8457434177398682,-1.9667984247207642,-0.8479766845703125,1.3005776405334473,-0.1516156941652298,-0.30012843012809753,-0.9417725801467896,-0.1581072062253952,-0.14867833256721497,-0.0012663602828979492,0.38390844603398855,-0.011517701138614306,-0.17023822140945108,-0.9074692628389648,0.30482727874373783,-0.15962012588956287,-2.3165808328880546
1773063914177891584,0.8557803630828857,-1.7948963642120361,-0.9032890200614929,1.3741934299468994,-0.16396237909793854,-0.2800132930278778,-0.9458905458450317,-0.13060855865478516,0.07543870806694031,0.06509220600128174,0.38737317647676306,-0.02069272098114724,-0.16317642986958672,-0.9071313118537113,0.2838079505587444,-0.1716362957259291,-2.309833476381598
1773063914187927552,0.8658163547515869,-1.3786230087280273,-0.9058147668838501,1.1191723346710205,-0.1760140359401703,-0.26269569993019104,-0.9486885666847229,-0.09330357611179352,0.15557903051376343,0.07141506671905518,0.39019644191007397,-0.029295423307256544,-0.1574721781087352,-0.9066923450710267,0.2658149643073174,-0.1834480983408136,-2.3042092562534635
1773063914197964544,0.8758533000946045,-1.1466513872146606,-0.8779642581939697,0.8904817700386047,-0.18694594502449036,-0.24906903505325317,-0.9502714276313782,-0.05264754593372345,0.10279829800128937,-0.02824413776397705,0.39164007526097866,-0.03687808617992297,-0.153311061621455,-0.9065063590514566,0.2517188743387304,-0.19424839676460912,-2.3013144161821715
1773063914208000768,0.8858895301818848,-0.9925793409347534,-0.8811305165290833,0.9943519830703735,-0.19754256308078766,-0.23700101673603058,-0.9512136578559875,-0.010312661528587341,0.09657438099384308,-0.16298311948776245,0.39283904278175824,-0.0440337110254506,-0.1498472492944435,-0.9062473184782817,0.23927774824247294,-0.20476361862673234,-2.2988315369292533
1773063914218037504,0.8959264755249023,-0.7420833706855774,-0.891691267490387,1.088871717453003,-0.2085639387369156,-0.22653904557228088,-0.9514101147651672,0.03679576516151428,0.17890112102031708,-0.19177836179733276,0.3944915550551827,-0.050990985082112646,-0.1472918051830981,-0.9055835378048595,0.22852286851585707,-0.21580200103168473,-2.2950666261274217
1773063914228073472,0.9059624671936035,-0.4277286231517792,-0.673077404499054,1.0577532052993774,-0.21852822601795197,-0.2186807245016098,-0.9510121941566467,0.06117957830429077,0.2114480584859848,-0.17873328924179077,0.396339125840173,-0.056905549369746185,-0.14579324999247006,-0.9046664355972441,0.22046227037175664,-0.22586406788529048,-2.2906518424380335
1773063914238110464,0.9159994125366211,-0.36545705795288086,-0.5081492066383362,1.0647952556610107,-0.22620558738708496,-0.212736576795578,-0.9505651593208313,0.048928990960121155,0.1614365577697754,-0.19796383380889893,0.39828429024718504,-0.06136153080824202,-0.144748642980063,-0.903688088829802,0.21437480058848404,-0.2336242528069583,-2.286101047060434
1773063914248146432,0.9260354042053223,-0.48241376876831055,-0.6799787878990173,1.1895267963409424,-0.23421454429626465,-0.20611433684825897,-0.9500844478607178,0.03786444664001465,0.11221174895763397,-0.16518044471740723,0.40036701213625286,-0.06609388998532692,-0.14349000177632826,-0.9026341953873189,0.20760236125173037,-0.24170042108177217,-2.2813303899627027
1773063914258183424,0.9360723495483398,-0.6610174775123596,-0.8102874755859375,1.1542091369628906,-0.24368694424629211,-0.19790202379226685,-0.9494479894638062,0.07747295498847961,0.054911911487579346,-0.06277430057525635,0.4026017034778629,-0.07181474717277245,-0.14184023765982443,-0.9014631660944687,0.19921714538098795,-0.25123861340721826,-2.2762914068965117
1773063914268220416,0.9461092948913574,-1.0718334913253784,-0.8843398690223694,0.9153814315795898,-0.2538074254989624,-0.18720850348472595,-0.9489651322364807,0.1268237829208374,-0.06604161858558655,0.07709318399429321,0.40387140815670625,-0.0785091916304187,-0.1391177737002574,-0.9007610208698887,0.1883196315303095,-0.2613401702826911,-2.27378176282084
1773063914278256640,0.9561455249786377,-1.5889534950256348,-0.8758863806724548,0.8084676861763,-0.2637137174606323,-0.1723434180021286,-0.9490799903869629,0.09199130535125732,-0.2254226952791214,0.1580643653869629,0.40404964020643863,-0.08614068000234815,-0.1343122782695769,-0.9007130391759258,0.1732081930553873,-0.2710254862414637,-2.2745587167599233
1773063914288293632,0.9661824703216553,-2.02006459236145,-0.8451455235481262,0.8701403737068176,-0.27325883507728577,-0.15279574692249298,-0.9497278928756714,0.015553146600723267,-0.3243771195411682,0.1998652219772339,0.4038769322647976,-0.09462212036733562,-0.1272112619609133,-0.9009702920746705,0.15339662879535743,-0.28015604506159536,-2.2770951516415483
1773063914298329600,0.9762184619903564,-2.2839510440826416,-0.8124934434890747,0.8861269354820251,-0.28242018818855286,-0.1297314167022705,-0.9504780769348145,0.0046797096729278564,-0.321242094039917,0.22081804275512695,0.40373254114862794,-0.1036425098080341,-0.1184026460827964,-0.9012430721141164,0.13009810713532266,-0.2888261736241849,-2.280312964273824
1773063914308366592,0.986255407333374,-2.446357488632202,-0.8246973752975464,0.76749187707901,-0.29121193289756775,-0.10472825914621353,-0.9509088397026062,0.03617653250694275,-0.24842114746570587,0.2037622332572937,0.4031454899772037,-0.11294393982432424,-0.10857834397585545,-0.9016251957094624,0.10492065587134515,-0.2971770972251178,-2.284939987384961
1773063914318402560,0.9962913990020752,-2.500363826751709,-0.8622532486915588,0.6961103677749634,-0.2998734414577484,-0.0789375901222229,-0.9507074952125549,0.0616837739944458,-0.1727561354637146,0.2059565782546997,0.4019387824345536,-0.12241208456676415,-0.09829306105306501,-0.9021080362981478,0.07901980142658245,-0.3055440845736056,-2.291116897988318
1773063914328439552,1.0063283443450928,-2.4755735397338867,-0.8914862275123596,0.7212812304496765,-0.3087405562400818,-0.05298049375414848,-0.949669599533081,0.09394258260726929,-0.09596055001020432,0.17565226554870605,0.40047313372258,-0.1320287836432414,-0.08794090913652707,-0.9024722145583561,0.053005309387695015,-0.3143251767760782,-2.2979004547576083
1773063914338475520,1.016364336013794,-2.3203608989715576,-0.9073628187179565,0.7785264253616333,-0.31758156418800354,-0.027732422575354576,-0.9478253126144409,0.14469951391220093,-0.016716428101062775,0.1715497374534607,0.3991792681429751,-0.14146962419242726,-0.07793380644601203,-0.9025345452098926,0.027735979021757968,-0.32330679244273364,-2.3042267394937475
1773063914348512768,1.0264015197753906,-2.0947041511535645,-0.9294756054878235,0.796188235282898,-0.3264533281326294,-0.00420535309240222,-0.945203959941864,0.1964179277420044,0.05918276309967041,0.1784955859184265,0.3981202530932373,-0.15056354165675645,-0.06876505248563253,-0.9022762248432906,0.004205365689145307,-0.3325519384155589,-2.309796638466957
1773063914358549504,1.0364384651184082,-1.9012706279754639,-0.9156674742698669,0.7815199494361877,-0.3351362347602844,0.01732650212943554,-0.9420103430747986,0.2222822606563568,0.09137710928916931,0.17037343978881836,0.3971886825237952,-0.15916924912081495,-0.06049774987838483,-0.9018016921329246,-0.017327369334057,-0.3418032344230444,-2.3148338429408124
1773063914368585472,1.0464744567871094,-1.7109135389328003,-0.9250902533531189,0.7593390345573425,-0.3435738980770111,0.0369936004281044,-0.9383967518806458,0.2097085416316986,0.0776456817984581,0.15678054094314575,0.3963029424681486,-0.16729590678433726,-0.05304441037781683,-0.9011893765326198,-0.03700204499770736,-0.35097042588773664,-2.3195501874696443
1773063914378622464,1.056511402130127,-1.5386043787002563,-0.9545057415962219,0.7374703884124756,-0.35201841592788696,0.05481860786676407,-0.9343864321708679,0.16229066252708435,0.04743053764104843,0.16168135404586792,0.3954296266837553,-0.17507126932140002,-0.0464418774192312,-0.9004602224460937,-0.05484609970597545,-0.36029310430393613,-2.3240085851876193
1773063914388658432,1.0665473937988281,-1.3896937370300293,-1.0141667127609253,0.7404880523681641,-0.3607737421989441,0.07122081518173218,-0.9299300312995911,0.10274761915206909,-0.0007099583745002747,0.18269187211990356,0.39456215246700466,-0.18272900798844158,-0.04055960044201037,-0.8996031632741887,-0.07128115967546822,-0.37008238616255046,-2.328281153838511
1773063914398695424,1.0765843391418457,-1.1545662879943848,-1.0747017860412598,0.7485480904579163,-0.369874507188797,0.08585143089294434,-0.9251067042350769,0.0405135452747345,-0.04778074473142624,0.1883208155632019,0.3938283655008805,-0.19020967534008468,-0.03559407230378909,-0.8985836226713457,-0.08595724240688568,-0.380349661937046,-2.3320247788944037
1773063914408731392,1.0866203308105469,-0.8689778447151184,-1.1164332628250122,0.7503683567047119,-0.3794044554233551,0.09802880883216858,-0.9200231432914734,-0.009160608053207397,-0.060995735228061676,0.1883489489555359,0.39337397686320147,-0.1974076250671041,-0.03191626196941228,-0.8973675579255573,-0.09818649550967276,-0.3911379463825587,-2.3347870992638247
1773063914418768640,1.0966575145721436,-0.5945236086845398,-1.158575177192688,0.7432039380073547,-0.3890834152698517,0.10767892748117447,-0.9148876070976257,-0.043777912855148315,-0.04672006517648697,0.16310232877731323,0.3931901561943353,-0.204170403641234,-0.02950652405186,-0.8960163785550171,-0.10788810648211014,-0.4021077793952386,-2.336565402521909
1773063914428804608,1.1066935062408447,-0.47384271025657654,-1.1387066841125488,0.800710141658783,-0.39882880449295044,0.11545123904943466,-0.9097288250923157,-0.05183953046798706,-0.002887144684791565,0.10838305950164795,0.39592182353312544,-0.2105070822586004,-0.02867649868413174,-0.8933702038564313,-0.11570926215500402,-0.4131689983598272,-2.3315360333762754
1773063914438841600,1.1167304515838623,-0.3929174244403839,-1.0791994333267212,0.8193321824073792,-0.40805119276046753,0.12281032651662827,-0.9046611785888672,-0.04107600450515747,0.05269627273082733,0.06620597839355469,0.39617092469486404,-0.21661090738455444,-0.0273701238848718,-0.8918403233396054,-0.12312115286682472,-0.42373020980500437,-2.3320377735239433
1773063914448878592,1.1267673969268799,-0.25581151247024536,-0.8748036623001099,0.9479618072509766,-0.4158722162246704,0.12910713255405426,-0.9002119898796082,-0.02550351619720459,0.10210928320884705,0.021275222301483154,0.39688594921550635,-0.22180734603624733,-0.026372390274905823,-0.8902738452409038,-0.1294685306212697,-0.43276464868323944,-2.3313758679176697
1773063914458914560,1.136803388595581,-0.3617628812789917,-0.532317042350769,1.1860313415527344,-0.4207938015460968,0.1362905651330948,-0.8968597650527954,-0.0021645426750183105,0.12461946904659271,-0.00046384334564208984,0.3985010133674769,-0.22575908818795926,-0.02455515866730265,-0.8886094178690319,-0.13671606222605684,-0.438693750000233,-2.3289802709479686
1773063914468951552,1.1468403339385986,-0.41352248191833496,-0.3587935268878937,1.4267324209213257,-0.4227428734302521,0.1454041749238968,-0.8945088386535645,0.04121214151382446,0.1251951903104782,-0.09285682439804077,0.4012408772640883,-0.22865755300639443,-0.02147782927117247,-0.8867131267543108,-0.14592146977865023,-0.44148649440266574,-2.3245247705347842
1773063914478987520,1.1568763256072998,-0.5189984440803528,-0.3695240020751953,1.5616809129714966,-0.4236113727092743,0.1559009552001953,-0.8923274874687195,0.1138274073600769,0.1557750552892685,-0.12842446565628052,0.4047127115272772,-0.2313483167624962,-0.017726185845257085,-0.8845176370240903,-0.15653950165720168,-0.44322503167896676,-2.318699051759037
1773063914489024512,1.1669135093688965,-0.7043696641921997,-0.5182807445526123,1.5645997524261475,-0.4248885214328766,0.16808108985424042,-0.8895046710968018,0.2361373007297516,0.17797298729419708,-0.15793490409851074,0.4083202777687569,-0.23466856641256637,-0.01335443256489848,-0.8820583812142846,-0.16888274084714128,-0.44562349827098274,-2.312855490852279
1773063914499060736,1.1769495010375977,-0.7881701588630676,-0.7100052237510681,1.4376215934753418,-0.4278216063976288,0.1812039315700531,-0.8855133056640625,0.3576616942882538,0.1892794817686081,-0.1702880859375,0.4114476249174598,-0.2390925691146764,-0.00883725898782031,-0.8794699802017926,-0.18221051086018863,-0.4500640290274319,-2.308238219810464
1773063914509097472,1.1869864463806152,-0.9985902309417725,-0.7438777089118958,1.1716399192810059,-0.4318580627441406,0.19471760094165802,-0.88067227602005,0.4146461486816406,0.17202739417552948,-0.13202303647994995,0.4135666837614907,-0.24422650499086665,-0.004155918369207425,-0.8770967721837675,-0.1959695375912579,-0.4559165253242588,-2.305987347977674
1773063914519133440,1.1970224380493164,-1.247581958770752,-0.7690535187721252,0.713628888130188,-0.43656617403030396,0.20877794921398163,-0.8751124143600464,0.37746885418891907,0.10558360815048218,-0.09119617938995361,0.4137855973281506,-0.24988497743201357,0.001131099225447089,-0.8754072200153051,-0.210325209904234,-0.4627421208367542,-2.308212553083415
1773063914529170432,1.207059383392334,-1.4738919734954834,-0.7642137408256531,0.20086494088172913,-0.44234326481819153,0.22265706956386566,-0.8687670826911926,0.25758984684944153,0.041869282722473145,-0.0704418420791626,0.4115257093297354,-0.256066713666678,0.0068032122676584764,-0.8746600589093052,-0.22453911250782416,-0.47095037196748313,-2.3161425929085238
1773063914539207424,1.2170963287353516,-1.469308853149414,-0.22470900416374207,0.21735171973705292,-0.446550577878952,0.23633727431297302,-0.8629816174507141,0.07939359545707703,0.015859976410865784,-0.06727045774459839,0.4077893283429775,-0.26140823905007865,0.013225567935668786,-0.874756412257917,-0.23859460764500678,-0.47751062221160445,-2.327480433406787
1773063914549243392,1.2271323204040527,-1.2853909730911255,0.4450211226940155,0.67441725730896,-0.4443938136100769,0.25033262372016907,-0.8601440191268921,-0.1197388768196106,0.022250384092330933,-0.06665956974029541,0.4053641573308146,-0.26361006262392783,0.020921971674829343,-0.8750725415038997,-0.2530238067484205,-0.4768790945962348,-2.335793226219807
1773063914559280640,1.2371695041656494,-1.0521024465560913,0.8853231072425842,1.219264268875122,-0.4361855983734131,0.26447150111198425,-0.8601145148277283,-0.21553254127502441,0.08121636509895325,-0.08336693048477173,0.40536058931534835,-0.26283186598694014,0.029362441972994296,-0.8750657742381455,-0.26765586436156025,-0.4693313618229044,-2.3383337796978934
1773063914569316608,1.2472054958343506,-0.6491491198539734,0.6799010038375854,1.5813747644424438,-0.4254290461540222,0.278123676776886,-0.8611953258514404,-0.15025454759597778,0.1932050585746765,-0.11144566535949707,0.4079888965700065,-0.260779318583197,0.03736963675037046,-0.8741525960989215,-0.2818401468720054,-0.4588347520956059,-2.334475271123489
1773063914579353600,1.2572424411773682,-0.31492844223976135,0.7042763829231262,1.6323051452636719,-0.4148927927017212,0.28895384073257446,-0.8627685904502869,-0.04363381862640381,0.26651185750961304,-0.09491878747940063,0.41192701317132013,-0.2582862101269117,0.04363409229348968,-0.8727545080441081,-0.29313387828636683,-0.448239295022992,-2.326898536799281
1773063914589389568,1.2672784328460693,0.07058197259902954,0.4240814745426178,1.4066810607910156,-0.4047624468803406,0.2966407835483551,-0.8649691343307495,0.060737818479537964,0.2648216187953949,-0.08122837543487549,0.41613780458761607,-0.2553114103318601,0.048285906783811075,-0.8713861220668456,-0.30117319360457817,-0.4376806272413755,-2.317991994155196
1773063914599426560,1.277315378189087,0.26097020506858826,-0.2698042392730713,1.1293926239013672,-0.4007568955421448,0.3000897467136383,-0.8656442761421204,0.08496102690696716,0.2555437684059143,-0.10804951190948486,0.41956760610346444,-0.2543571799455131,0.04980245025061844,-0.8699339402659017,-0.30478673869139805,-0.43357735172036,-2.3104482370330897
1773063914609462528,1.287351369857788,0.32271188497543335,-0.3520359992980957,1.0746135711669922,-0.4003688097000122,0.3019683063030243,-0.8651704788208008,0.08138382434844971,0.2037842571735382,-0.08328533172607422,0.4225732579489818,-0.254808134414345,0.04987558952926598,-0.8683415536371024,-0.30675666526451156,-0.4334167216365302,-2.303826540969926
1773063914619499520,1.2973883152008057,0.3768444359302521,-0.21098670363426208,0.966148853302002,-0.3996388018131256,0.3030727505683899,-0.8651218414306641,0.04767957329750061,0.05694311857223511,-0.04668235778808594,0.42537223688505993,-0.25488389371228515,0.049732231960735764,-0.8669598948523057,-0.3079154259345524,-0.43274297541506374,-2.2975135291717654
1773063914629535488,1.3074243068695068,0.42716488242149353,-0.24242478609085083,0.621393084526062,-0.3990950882434845,0.30281293392181396,-0.8654637336730957,0.014268428087234497,-0.010012030601501465,0.024490833282470703,0.4272328097869609,-0.254652549790085,0.04919572250151463,-0.866143160486625,-0.30764277434879933,-0.43207460287936006,-2.2931395778904933
1773063914639572736,1.3174614906311035,0.54847252368927,-0.3279905915260315,0.30306529998779297,-0.40022557973861694,0.30042847990989685,-0.8657726049423218,-0.013730108737945557,-0.02728089690208435,0.03357350826263428,0.4276586490056254,-0.25463182230549775,0.04771095259706557,-0.8660221424023713,-0.305141860099021,-0.43301533416154625,-2.2918280667211626
1773063914649609472,1.327498435974121,0.7317294478416443,-0.2925044894218445,0.30053502321243286,-0.4021592140197754,0.29602935910224915,-0.8663917183876038,-0.01768636703491211,-0.054986268281936646,0.06867748498916626,0.42758550998758293,-0.2544712603049956,0.0452606597711315,-0.8662369462113092,-0.3005329996103158,-0.43458088024318414,-2.2913728351632474
1773063914659645440,1.3375344276428223,0.9450042843818665,-0.22201791405677795,0.4990324378013611,-0.40319234132766724,0.2903112471103668,-0.8678452372550964,0.017801105976104736,-0.06921139359474182,0.08184975385665894,0.42829256341616534,-0.2535683968077382,0.04219537580084675,-0.8663072365797824,-0.29455206536646883,-0.43492062918830976,-2.2888293698857565
1773063914669682432,1.3475713729858398,1.024617314338684,-0.22596845030784607,0.653767466545105,-0.4034179747104645,0.28398361802101135,-0.8698317408561707,0.11592715978622437,-0.03425827622413635,0.06633442640304565,0.4299901169276455,-0.2521542804674118,0.03876031094465467,-0.8660393905156091,-0.2879462282501302,-0.4342611263150638,-2.2838464419479783
1773063914679718400,1.357607364654541,1.0015379190444946,-0.3641324043273926,0.694112241268158,-0.4040025770664215,0.2778448164463043,-0.8715412616729736,0.223597913980484,0.02121216058731079,0.05728650093078613,0.43218647536579674,-0.25098059214725005,0.03518674267861223,-0.8654395045434989,-0.2815498723606963,-0.43406443382001086,-2.277759915785708
1773063914689755392,1.3676443099975586,0.8296558856964111,-0.4901907444000244,0.6754213571548462,-0.4059033989906311,0.272475004196167,-0.8723530173301697,0.2835279107093811,0.04455685615539551,0.08420604467391968,0.43433969163420333,-0.25064130885032965,0.03166108860700006,-0.8645956006848912,-0.2759644416190828,-0.43550200177563025,-2.271953148772027
1773063914699791360,1.3776803016662598,0.44893398880958557,-0.5078995227813721,0.6988691091537476,-0.4084506928920746,0.26957404613494873,-0.8720653057098389,0.2860752046108246,-0.00819098949432373,0.14048266410827637,0.43612184743809146,-0.2512258367279485,0.029205086686596216,-0.8636146672440033,-0.2729506629653642,-0.4380263469252547,-2.2674352617568516
1773063914709828608,1.3877174854278564,0.025602711364626884,-0.4963323175907135,0.8042429685592651,-0.4107705354690552,0.2706410586833954,-0.8706440329551697,0.24977505207061768,-0.09644675254821777,0.1876758337020874,0.4377155866204289,-0.2526994548557218,0.028652777916796855,-0.862396160120728,-0.27405889279116286,-0.4408348463452009,-2.2640147829441464
1773063914719865600,1.397754430770874,-0.33143895864486694,-0.5168941617012024,0.8916975259780884,-0.41283637285232544,0.2754974663257599,-0.8681401014328003,0.21007758378982544,-0.14801031351089478,0.2091587781906128,0.4392924841051029,-0.2550243581159265,0.02987505901372598,-0.8608671021643565,-0.2791071690898434,-0.4438898053687545,-2.2612750428459494
1773063914729901568,1.4077904224395752,-0.5404795408248901,-0.5688380599021912,0.9686762094497681,-0.41493353247642517,0.2832961678504944,-0.8646233081817627,0.19198736548423767,-0.17645412683486938,0.2496330738067627,0.44079984378205755,-0.25814077055366186,0.03242991390608062,-0.859073378993313,-0.28722935162129204,-0.44743945987060446,-2.2592124294495024
1773063914739938560,1.4178273677825928,-0.43955478072166443,-0.6159998774528503,1.0424768924713135,-0.4171599745750427,0.2918826937675476,-0.8606869578361511,0.20001214742660522,-0.1933872103691101,0.21748322248458862,0.4425802388711579,-0.2615656368002362,0.03521261155867645,-0.8570100937411373,-0.29619465526508776,-0.4513187404011312,-2.2566646967442012
1773063914749974528,1.427863359451294,-0.11388827115297318,-0.6158477663993835,1.1120951175689697,-0.4192774295806885,0.29889222979545593,-0.8572455048561096,0.23504281044006348,-0.17639467120170593,0.16158205270767212,0.4449446520727125,-0.2645746045557325,0.03711492431827019,-0.8547789519675502,-0.3035315998567008,-0.45488837397452275,-2.252474743104916
1773063914760011520,1.4379003047943115,0.243071049451828,-0.6521745324134827,1.1222665309906006,-0.4213089644908905,0.3030107021331787,-0.8548001646995544,0.2812332808971405,-0.1443498134613037,0.13087743520736694,0.44799655231306795,-0.26682093980136906,0.03750351414726824,-0.8524665370442924,-0.307850302330389,-0.457930752579154,-2.2461539971340048
1773063914770047488,1.4479362964630127,0.39934802055358887,-0.6738588213920593,1.1613495349884033,-0.4235911965370178,0.3049229085445404,-0.8529903292655945,0.3118816018104553,-0.1006992757320404,0.11847800016403198,0.45149363909118095,-0.2686254190198203,0.03667715421225886,-0.8500874512489325,-0.30985748660733636,-0.46092032704018326,-2.2383924008543947
1773063914780084224,1.4579730033874512,0.3694137632846832,-0.6936360001564026,1.2227675914764404,-0.42571502923965454,0.30665329098701477,-0.8513110280036926,0.31278470158576965,-0.06176498532295227,0.1753009557723999,0.45532469337450215,-0.2703165608743469,0.03568516861536654,-0.8475464687262558,-0.3116749172038918,-0.4637035124010612,-2.2297785242127253
1773063914790120192,1.4680089950561523,0.17847149074077606,-0.7762818336486816,1.2569444179534912,-0.42814669013023376,0.30954378843307495,-0.8490424156188965,0.31193578243255615,-0.06039831042289734,0.25442272424697876,0.45918446546816305,-0.2724826242630868,0.035099953797452545,-0.8447903921069503,-0.3147132144267445,-0.4670578416915688,-2.2212883924941225
1773063914800157184,1.47804594039917,-0.07840431481599808,-0.8519369959831238,1.2807843685150146,-0.43109774589538574,0.3145672082901001,-0.8456963300704956,0.31860992312431335,-0.0854870080947876,0.1855553388595581,0.46283757702365547,-0.27550151756994334,0.035365992535155176,-0.8418014482953358,-0.32000067061738047,-0.4714209359950486,-2.2136658468186012
1773063914810193920,1.4880828857421875,-0.3345673978328705,-0.9584908485412598,1.2884202003479004,-0.43464136123657227,0.3219151496887207,-0.8411049246788025,0.32071927189826965,-0.1410374641418457,0.11542749404907227,0.4662094650992878,-0.2794829857357494,0.03656215118479727,-0.8385709062822204,-0.3277516101010281,-0.4769579987974963,-2.2071378766412577
1773063914820229888,1.4981188774108887,-0.5155119895935059,-1.0982375144958496,1.3317588567733765,-0.43899106979370117,0.33127617835998535,-0.8351903557777405,0.33134037256240845,-0.20960259437561035,0.07560783624649048,0.46938147416352227,-0.2844750969263585,0.038454573379386556,-0.8350305823345671,-0.33765579782101823,-0.48393135810651666,-2.2014869706335625
1773063914830266880,1.5081558227539062,-0.5365994572639465,-1.2249622344970703,1.3977464437484741,-0.44408881664276123,0.341818243265152,-0.8282182216644287,0.35296332836151123,-0.253439337015152,0.03462386131286621,0.47266548079375287,-0.29024963110901164,0.040571393205426166,-0.8310815468509534,-0.3488509927896283,-0.49218483108090394,-2.1958332254118345
1773063914840302848,1.5181918144226074,-0.38032296299934387,-1.3717615604400635,1.4445040225982666,-0.44985026121139526,0.35205209255218506,-0.8207886815071106,0.39586466550827026,-0.26010262966156006,0.0022919774055480957,0.47631542960122564,-0.29635630775456445,0.042173462077457015,-0.8267514304080142,-0.3597626671355093,-0.501360810685618,-2.189290750081349
1773063914850340096,1.528228998184204,-0.07450924068689346,-1.5511438846588135,1.478530764579773,-0.4565970003604889,0.3606601655483246,-0.8132916688919067,0.46251747012138367,-0.23431739211082458,-0.024522602558135986,0.4804980471377679,-0.3025671270629022,0.04251217251878342,-0.8220507114051322,-0.3689755833044466,-0.5115675326921993,-2.181210575590625
1773063914860376064,1.5382649898529053,0.3100701868534088,-1.6753568649291992,1.5642688274383545,-0.4642092287540436,0.3666646480560303,-0.8062672019004822,0.5318514108657837,-0.16753745079040527,-0.07620960474014282,0.48542373895615754,-0.3085086478919664,0.0410950999486709,-0.8170051634298908,-0.3754214515440434,-0.5223985748556523,-2.1708394283522034
1773063914870413056,1.5483019351959229,0.5385907292366028,-1.7279942035675049,1.718732476234436,-0.4718792736530304,0.3708402216434479,-0.7998796701431274,0.5984356999397278,-0.07922950387001038,-0.09970217943191528,0.49140923418321086,-0.31398900263805785,0.03835464856205992,-0.8114534501449371,-0.3799135817616243,-0.5329879870797415,-2.157432228394366
1773063914880449024,1.558337926864624,0.5745769143104553,-1.682340383529663,1.8835948705673218,-0.47880324721336365,0.37490183115005493,-0.7938489317893982,0.653028130531311,-0.010506689548492432,-0.017476201057434082,0.4982148442512461,-0.3191020432975006,0.03534731481546113,-0.8054231779424672,-0.3842908927190814,-0.5427262527913768,-2.141810669550435
1773063914890486016,1.5683748722076416,0.30723997950553894,-1.6046475172042847,2.0242695808410645,-0.4844435751438141,0.38066908717155457,-0.7876582145690918,0.6877974271774292,0.027930766344070435,0.1672205924987793,0.5053626915169919,-0.32414330657665624,0.03319630990916576,-0.799023014295688,-0.3905197647921894,-0.5514070545582999,-2.12546908910372
1773063914900523008,1.5784118175506592,-0.24246390163898468,-1.4830597639083862,2.2136549949645996,-0.4884261190891266,0.3906702399253845,-0.780267059803009,0.6996535062789917,0.010864794254302979,0.3342832326889038,0.5124100229815776,-0.32978815587538934,0.033260033898380996,-0.7921929000356577,-0.40135958039471326,-0.5592986891390493,-2.1100132874823854
1773063914910558976,1.5884478092193604,-0.8537368178367615,-1.3212950229644775,2.4209952354431152,-0.4901100695133209,0.4063151478767395,-0.771168053150177,0.6892067193984985,-0.06782945990562439,0.4825480580329895,0.5192390273880001,-0.3362938681307163,0.036364929204423135,-0.7848407118966149,-0.4184176926416169,-0.5661445302856708,-2.0960013384221683
1773063914920596224,1.598484992980957,-1.458748698234558,-1.16922128200531,2.61328387260437,-0.48907917737960815,0.4275966286659241,-0.7602385878562927,0.6723677515983582,-0.19010883569717407,0.6050719618797302,0.5257632299847046,-0.34359974363225676,0.042660499884389726,-0.7769764471685795,-0.441832414754272,-0.5716672254859435,-2.083598370632874
1773063914930632192,1.6085209846496582,-1.952214002609253,-1.093823790550232,2.73915958404541,-0.48579123616218567,0.4536830186843872,-0.7471135258674622,0.6564149856567383,-0.3386622965335846,0.6623662114143372,0.531772260156496,-0.3518056067679198,0.051730504478003855,-0.7686189961004957,-0.47089383817965036,-0.5765327637007281,-2.0731483126186765
1773063914940669184,1.6185579299926758,-2.2951669692993164,-0.9888312816619873,2.8142738342285156,-0.4804846942424774,0.48300302028656006,-0.7320126891136169,0.6472785472869873,-0.47403085231781006,0.6593198180198669,0.5372920972613157,-0.3606178399860843,0.06283660561362413,-0.7598180991372147,-0.5040810694210324,-0.5808531578986389,-2.0642278397389417
1773063914950705152,1.628593921661377,-2.6194095611572266,-0.8634107708930969,2.8025710582733154,-0.4731328785419464,0.5142447352409363,-0.7153304219245911,0.6353490352630615,-0.5709769129753113,0.6647628545761108,0.5421876917728152,-0.3696339733973824,0.07553477714172852,-0.750798064315437,-0.540126759921435,-0.5843605483148666,-2.0568687324938972
1773063914960741888,1.6386308670043945,-2.948944091796875,-0.75545334815979,2.780519723892212,-0.4640195965766907,0.5471398234367371,-0.696651816368103,0.616104006767273,-0.5979669094085693,0.6624111533164978,0.5461614120298507,-0.3789600972828439,0.08979601117557798,-0.7416424942092686,-0.578943417267992,-0.5875901074204807,-2.051820937202478
1773063914970778112,1.6486668586730957,-3.1638009548187256,-0.5891975164413452,2.8508546352386475,-0.4527687132358551,0.5811640024185181,-0.6762017607688904,0.5790199041366577,-0.5438410043716431,0.6606683731079102,0.5494513565572017,-0.38829788334463416,0.10546972502325902,-0.7322595674547128,-0.6201583463730848,-0.5900142875701281,-2.0482614060803703
1773063914980814848,1.6587038040161133,-3.3204119205474854,-0.34663674235343933,2.9884352684020996,-0.4384028911590576,0.615872859954834,-0.6546018123626709,0.5217463970184326,-0.472501277923584,0.6658933162689209,0.5524780702464419,-0.3970872805718079,0.12255929852018038,-0.7225433447387146,-0.6634933694207057,-0.5901165971337129,-2.0446296073927606
1773063914990852096,1.66874098777771,-3.5361104011535645,-0.07774775475263596,3.037310838699341,-0.42051032185554504,0.6509847044944763,-0.6319730877876282,0.46160224080085754,-0.4609364867210388,0.6152342557907104,0.5551985005632182,-0.4050706294556931,0.1411780060883628,-0.7125596291120064,-0.7088809359064324,-0.5871201358230749,-2.040596880026453
1773063915000888064,1.6787769794464111,-3.9169058799743652,0.2476312816143036,2.9902281761169434,-0.39980360865592957,0.6865242123603821,-0.6073232889175415,0.40609025955200195,-0.5070045590400696,0.5781180262565613,0.5568270549019678,-0.4125899725903779,0.16157928867899787,-0.7025704537658921,-0.7566978648639519,-0.582190990569252,-2.0382907866521154
1773063915010925056,1.6888139247894287,-4.586794376373291,0.4175204634666443,3.130249500274658,-0.37628698348999023,0.7235515713691711,-0.5786891579627991,0.3498741090297699,-0.5663098096847534,0.5890651345252991,0.5569421798420565,-0.4202521569720739,0.1845089564607314,-0.6922137308575207,-0.8089337296356034,-0.5765441138622925,-2.0390577949503492
1773063915020961024,1.6988499164581299,-5.149298191070557,0.49496346712112427,3.7722272872924805,-0.3481326401233673,0.7636157274246216,-0.543778121471405,0.3014712631702423,-0.5908709764480591,0.6179664134979248,0.5565443624222973,-0.42859240811652105,0.21075929103672542,-0.6798142289397857,-0.8688946432873961,-0.5694627328203855,-2.039515051904532
1773063915030998016,1.7088868618011475,-4.899838924407959,0.604447603225708,4.613001346588135,-0.31221985816955566,0.804340124130249,-0.5055252313613892,0.27044129371643066,-0.556140661239624,0.7829452753067017,0.5577951843124035,-0.4358232030272422,0.23936482853888771,-0.6645503892908387,-0.9345640856418926,-0.5532709711700312,-2.0295905594192885
1773063915041033984,1.7189228534698486,-3.8122386932373047,0.486491858959198,5.230389595031738,-0.2685874402523041,0.8403415083885193,-0.470836341381073,0.3179953992366791,-0.46111488342285156,0.8692891001701355,0.5625184664567032,-0.43958869881159324,0.26710224463848414,-0.6472952243985857,-0.9979129890110245,-0.5184062750904906,-1.9977354994895906
1773063915051070976,1.7289597988128662,-2.3428332805633545,0.26278790831565857,5.436188220977783,-0.22107407450675964,0.8676238656044006,-0.4453708231449127,0.42432111501693726,-0.30883175134658813,0.5497256517410278,0.5711796503507953,-0.4391709277001826,0.2905916161406003,-0.6296342465596625,-1.0504033703468063,-0.46074905770614455,-1.9382475851424064
1773063915061108224,1.738996982574463,-1.278430700302124,0.3685642182826996,5.686142921447754,-0.17084263265132904,0.8863450884819031,-0.43035486340522766,0.47797149419784546,-0.09748095273971558,0.24174094200134277,0.5841369412146814,-0.435011758068273,0.30917203260198495,-0.6115239739667405,-1.0893909979940362,-0.3779009416255659,-1.8472786856393923
1773063915071144192,1.749032974243164,-1.077218770980835,0.4302222728729248,5.914830207824707,-0.11694208532571793,0.8994812369346619,-0.42102041840553284,0.46435418725013733,0.12975460290908813,-0.018173277378082275,0.5986428563099491,-0.4277649207685402,0.32635404454298045,-0.5934113486632114,-1.1185808000609192,-0.27092913394718254,-1.7322432195546378
1773063915081180928,1.7590699195861816,-2.1687207221984863,0.25027894973754883,5.863484859466553,-0.06179700791835785,0.911220908164978,-0.40725627541542053,0.44766125082969666,0.251102089881897,-0.22442710399627686,0.6120355050558918,-0.4214921970785392,0.34455216151234885,-0.5736207246680524,-1.1462383531009326,-0.15059107925598889,-1.6033153492148557
1773063915091217152,1.7691059112548828,-3.1480612754821777,-0.038972023874521255,5.6324381828308105,-0.008431455120444298,0.9240755438804626,-0.3821171224117279,0.40233707427978516,0.1675230860710144,-0.17075467109680176,0.6223446974588468,-0.41945811648800413,0.3646866196026685,-0.5511313348819127,-1.178609692048693,-0.02206152814173565,-1.4643231756700748
1773063915101253888,1.7791428565979004,-3.276766300201416,-0.4589853584766388,5.351305961608887,0.04191223531961441,0.9351580142974854,-0.35174253582954407,0.3774603307247162,0.09432196617126465,0.042156994342803955,0.6308214198103146,-0.4200665264246669,0.38428224892408186,-0.5271959123558667,-1.2087048019494742,0.11859683311708019,-1.310354217327975
1773063915111289856,1.7891788482666016,-2.487670421600342,-0.5483623743057251,5.288086891174316,0.09006505459547043,0.9416031837463379,-0.3244558870792389,0.4225539565086365,0.16069161891937256,0.04306855797767639,0.6393830848869142,-0.4203280501650928,0.4013681482922458,-0.5034055631007155,-1.2273602292306849,0.27077063946231333,-1.142612885154509
1773063915121326848,1.7992157936096191,-1.427564263343811,-0.32639750838279724,5.276556968688965,0.13873253762722015,0.9416974186897278,-0.3065275549888611,0.42318761348724365,0.39634573459625244,0.14003893733024597,0.6492748104617212,-0.4168610102268209,0.41588834751546894,-0.4813584162957445,-1.227640126175983,0.4250090294178981,-0.9741706016775964
1773063915131363072,1.8092520236968994,-0.6497502326965332,-0.05126740410923958,5.043494701385498,0.18691985309123993,0.9362918138504028,-0.29735267162323,0.28834566473960876,0.8459042310714722,0.23956763744354248,0.6598354453087968,-0.40965884939078523,0.4283728410069405,-0.46183709815787993,-1.2119192153272698,0.5611934621727818,-0.8271398910020459
1773063915141400064,1.819288969039917,-0.46921399235725403,0.1851428598165512,4.698683738708496,0.23274025321006775,0.9275712966918945,-0.2923072278499603,0.044099971652030945,1.136256217956543,0.2824348211288452,0.6696853415610035,-0.40060365067482884,0.439730715943928,-0.4446067445201446,-1.1878594098078308,0.672430555779604,-0.7086685842028008
1773063915151437056,1.8293259143829346,-0.5122352838516235,0.29375749826431274,4.486490249633789,0.2759226858615875,0.9173356294631958,-0.2869877815246582,-0.1736888289451599,1.1562726497650146,0.3528600037097931,0.6781814895936135,-0.39153660436543186,0.4507828721773754,-0.42844336388302173,-1.1613355162337913,0.7657437504873114,-0.6101893108240931
1773063915161473024,1.8393619060516357,-0.30957767367362976,0.26485729217529297,4.226092338562012,0.31663310527801514,0.9055659174919128,-0.2823011875152588,-0.20881453156471252,1.0348637104034424,0.4158003330230713,0.6859036689413379,-0.38237217068328094,0.46113006204675727,-0.41314263895079384,-1.132711923625384,0.8426572017078503,-0.5290586953465178
1773063915171510016,1.8493988513946533,0.033069413155317307,0.27366119623184204,3.9651715755462646,0.35430091619491577,0.8922170400619507,-0.28003519773483276,-0.03624674677848816,0.9369913339614868,0.27445048093795776,0.6933557775806979,-0.3728215113719089,0.4700920312781569,-0.39909329912866204,-1.1022308735771034,0.9019438820430558,-0.4659802696145192
1773063915181545984,1.8594348430633545,0.448896586894989,0.4714122712612152,3.6811816692352295,0.38936641812324524,0.8772107362747192,-0.2808830440044403,0.13961005210876465,0.9162006378173828,0.08335795998573303,0.7004749889305121,-0.36207487811720324,0.47797516327430956,-0.3870095697262779,-1.0700212715017552,0.9458617874403787,-0.4206555607050496
1773063915191583232,1.8694720268249512,0.581753134727478,0.6153404116630554,3.4156100749969482,0.42174777388572693,0.8613141179084778,-0.2833143472671509,0.10249847173690796,1.026869535446167,0.009205430746078491,0.7068986301788536,-0.3506249334838092,0.48518552032970014,-0.37676468460228557,-1.037850488425748,0.9792741401121805,-0.3884452114461262
1773063915201619200,1.8795080184936523,0.34194880723953247,0.7300801873207092,3.2817718982696533,0.45235490798950195,0.8452140688896179,-0.2845846116542816,-0.13854259252548218,1.122849464416504,0.034706681966781616,0.7123424010953112,-0.33937946669363106,0.4924726040422167,-0.3672339361008172,-1.0069656069141977,1.0092412300491955,-0.3613142885028289
1773063915211656192,1.88954496383667,-0.23306944966316223,0.812961220741272,3.172218084335327,0.4816373288631439,0.8299391865730286,-0.28147149085998535,-0.4257444739341736,1.1111464500427246,0.24539974331855774,0.7163887429589763,-0.3297497610889409,0.5005290710181501,-0.35710327693817784,-0.978998644468917,1.0419223307000267,-0.33148257100889583
1773063915221692160,1.899580955505371,-0.5977970361709595,0.8830710053443909,3.0772006511688232,0.5098540186882019,0.815588116645813,-0.27361491322517395,-0.5783202052116394,0.9642581343650818,0.42197608947753906,0.7190340110008476,-0.3218915097517147,0.509488363513683,-0.3461180212729235,-0.9537448209952905,1.0782576854361952,-0.2977278699136639
1773063915231729152,1.9096179008483887,-0.7000434994697571,0.8779507875442505,3.021042585372925,0.5369460582733154,0.8013943433761597,-0.2635449469089508,-0.6015365719795227,0.7609835267066956,0.5001630783081055,0.7208884207400915,-0.3149435873938793,0.5186887927168308,-0.3348018971612707,-0.9296227556441007,1.1145180345190837,-0.2638512269655005
1773063915241765888,1.9196548461914062,-0.49674198031425476,0.8133180141448975,2.934929847717285,0.5629461407661438,0.7864760756492615,-0.25406116247177124,-0.4910467267036438,0.585914671421051,0.41964954137802124,0.7226468978619239,-0.3078736161774996,0.5274308024562354,-0.32374697526330043,-0.9050824512703375,1.1468565814734504,-0.23389595454996429
1773063915251801856,1.9296908378601074,-0.22207899391651154,0.9517515301704407,2.7761638164520264,0.5874521732330322,0.7709206342697144,-0.24613264203071594,-0.3035319447517395,0.5834647417068481,0.22657090425491333,0.7243335580875461,-0.30022516854255515,0.5355357402871581,-0.3136992454205723,-0.8802853276529151,1.174032928695145,-0.21017425816468505
1773063915261839104,1.939728021621704,-0.02485407143831253,1.0652577877044678,2.615952730178833,0.6105759143829346,0.7549561858177185,-0.23924534022808075,-0.15734410285949707,0.6860533356666565,0.022601068019866943,0.7256263557774683,-0.291730964710846,0.5433878655500226,-0.30510512347694296,-0.8555873215024278,1.197348016584519,-0.1929349789851685
1773063915271875072,1.9497640132904053,-0.025410406291484833,1.1628714799880981,2.5506319999694824,0.6324796676635742,0.7389655709266663,-0.23216243088245392,-0.12813091278076172,0.7580894827842712,-0.07575994729995728,0.7264395067805114,-0.2830789608237711,0.5511670209859673,-0.29726571293410115,-0.8315337541400941,1.2189986575886742,-0.17882881171001141
1773063915281912064,1.9598009586334229,-0.03266752138733864,1.3598766326904297,2.4821252822875977,0.6539053320884705,0.7227050065994263,-0.22384224832057953,-0.17494720220565796,0.7410095930099487,0.07467234134674072,0.7266249407794351,-0.27428892957523365,0.559325000730618,-0.2897194176415405,-0.8077080556686324,1.2409832808147832,-0.16599353557987895
1773063915291948032,1.969836950302124,-0.01589306630194187,1.610061764717102,2.242713689804077,0.6741502285003662,0.7069912552833557,-0.21374058723449707,-0.16453713178634644,0.6896305084228516,0.2747451961040497,0.7257928524386665,-0.26557347172257467,0.5679792592406472,-0.2830108615324333,-0.7852347968075032,1.2637699542450065,-0.15493276295114297
1773063915301985024,1.9798738956451416,0.07058296352624893,1.8206287622451782,1.998087763786316,0.692607045173645,0.6924194097518921,-0.20211607217788696,-0.11504662036895752,0.6369720697402954,0.3468761742115021,0.7238640594261387,-0.25698711364429466,0.576974511520224,-0.27763095366528123,-0.7648370475591766,1.2868616059561073,-0.1465879037388811
1773063915312020992,1.9899098873138428,0.127558633685112,1.9247584342956543,1.7803955078125,0.7092673182487488,0.6789412498474121,-0.189681276679039,-0.0829092264175415,0.6557604074478149,0.3234703242778778,0.7211405715483439,-0.24849854587994957,0.5860100958621741,-0.27349056520935866,-0.7463195858374202,1.3094788785340048,-0.14103642792451893
1773063915322057984,1.9999468326568604,0.13837479054927826,2.0609381198883057,1.6285375356674194,0.7244209051132202,0.6664494276046753,-0.17623738944530487,-0.057505011558532715,0.7286158800125122,0.27204734086990356,0.7177191960830978,-0.2402563918110448,0.5951118987509199,-0.2701812839511431,-0.7294362574854693,1.332151948932018,-0.13706572305319414
1773063915332095232,2.009984016418457,0.08727366477251053,2.1591451168060303,1.4525907039642334,0.7382413148880005,0.6549205183982849,-0.16148994863033295,-0.053289592266082764,0.8228780031204224,0.19492197036743164,0.7135791113923943,-0.23234531169642242,0.6043762754037595,-0.2674881397762055,-0.7140774061325912,1.3554390737929876,-0.13391878890949427
1773063915342131200,2.020020008087158,-0.1544145941734314,2.1607413291931152,1.255156397819519,0.7504035234451294,0.6448447704315186,-0.14515437185764313,-0.0674964189529419,0.868781328201294,0.10921990871429443,0.7087296678557127,-0.22537278335462024,0.6137018182106113,-0.26510267895895284,-0.7008201397142387,1.3797210725889806,-0.13008940719552364
1773063915352168192,2.030056953430176,-0.6206331253051758,2.0357890129089355,1.085176944732666,0.7608078718185425,0.6364639401435852,-0.1268264502286911,-0.06969159841537476,0.8133498430252075,-0.01623992621898651,0.7033449848281329,-0.22027628673816008,0.6229487407331809,-0.2621431651900395,-0.6899050537053822,1.405615509916437,-0.12258306052364763
1773063915362204160,2.040092945098877,-1.091158151626587,1.8803906440734863,0.9188110828399658,0.76947021484375,0.6298004984855652,-0.10614564269781113,-0.0507049560546875,0.7198851108551025,-0.1760351061820984,0.6974952439961354,-0.2176439012488832,0.6321062505460158,-0.2580178108648692,-0.6812963657475178,1.4337150784578947,-0.10936949864463612
1773063915372240896,2.0501298904418945,-1.4202356338500977,1.7565048933029175,0.9158850908279419,0.7769059538841248,0.62395840883255,-0.08422183245420456,-0.03400123119354248,0.6172677874565125,-0.24951839447021484,0.6915102102542203,-0.21678763460123646,0.6410087417395774,-0.25283326756339625,-0.6737979222187784,1.4628112959824602,-0.09194257078669672
1773063915382277120,2.0601658821105957,-1.7087191343307495,1.676238775253296,0.9173427820205688,0.7839131355285645,0.6178712844848633,-0.060952141880989075,-0.03887230157852173,0.5200375914573669,-0.2587347626686096,0.6853911298520537,-0.2170918310169502,0.6499192760700159,-0.2464041755474215,-0.6660324773808198,1.4931987569705867,-0.07074908437241356
1773063915392313856,2.0702028274536133,-1.8414697647094727,1.5750805139541626,0.8017789125442505,0.7900447845458984,0.6119235754013062,-0.03713083639740944,-0.05231291055679321,0.4778438210487366,-0.19858694076538086,0.6791609715929915,-0.21836086856391648,0.6585993563332747,-0.23938622933653916,-0.6584904137504273,1.5238324890643937,-0.047480364347742436
1773063915402351104,2.08024001121521,-2.1153299808502197,1.4902962446212769,0.6445695161819458,0.7948602437973022,0.6066546440124512,-0.012927789241075516,-0.0480189323425293,0.48988765478134155,-0.1356164813041687,0.6727495484438356,-0.2207829717790653,0.6669265213004549,-0.23210303945445654,-0.6518456101315111,1.5545335313641824,-0.02239578970572652
1773063915412387072,2.090276002883911,-2.5815088748931885,1.3244974613189697,0.5172837376594543,0.7983587384223938,0.6020507216453552,0.012575754895806313,-0.042652010917663574,0.449005126953125,-0.12306463718414307,0.66604403262179,-0.2251312085866921,0.6749843081462168,-0.22382456251157576,-0.6460669942933698,1.586547033651867,0.007221530835816276
1773063915422424064,2.1003129482269287,-2.8127505779266357,1.1757786273956299,0.4249866008758545,0.8008800148963928,0.5975494980812073,0.03906229883432388,-0.03783375024795532,0.3921965956687927,-0.1322324275970459,0.6591549973783911,-0.23116870322366564,0.6827094406623404,-0.21443784399154414,-0.6404414807524257,1.6195319252424487,0.0411006734518776
1773063915432460032,2.11034893989563,-2.9181995391845703,0.8792164921760559,0.29126688838005066,0.8024924993515015,0.5931581854820251,0.06457068026065826,-0.017214059829711914,0.35712873935699463,-0.15899205207824707,0.6525855691956559,-0.23831254824687662,0.6895596202846067,-0.20456499675137566,-0.634975988064438,1.6510860130200817,0.07667449220316327
1773063915442497024,2.1203858852386475,-2.8370277881622314,0.6144253611564636,0.16009657084941864,0.8032979965209961,0.5890985727310181,0.08760856837034225,0.02493387460708618,0.28333795070648193,-0.22597527503967285,0.6467645578725512,-0.2462106457561684,0.6951148113822664,-0.19465702303784352,-0.6299428752335974,1.6794280893730087,0.1122254677505353
1773063915452532992,2.1304218769073486,-2.7430033683776855,0.3397757112979889,-0.04577244445681572,0.8031628131866455,0.5859197378158569,0.10783086717128754,0.07333248853683472,0.2395654320716858,-0.25309455394744873,0.6416529824501456,-0.254510343359911,0.6993853853093757,-0.18538069841840354,-0.6260145621409459,1.7042560554206359,0.146258776239905
1773063915462569984,2.140458822250366,-2.666083574295044,0.38426122069358826,-0.09075749665498734,0.802276611328125,0.5834115743637085,0.12642446160316467,0.12364190816879272,0.21227318048477173,-0.3053947687149048,0.6368950439438336,-0.26325094915922786,0.702788137242137,-0.17650066940957043,-0.6229229523503037,1.7270931821319828,0.1797382551246932
1773063915472607232,2.150496006011963,-2.6641714572906494,0.711641252040863,-0.11552835255861282,0.8010350465774536,0.5805016160011292,0.14615286886692047,0.1352136731147766,0.15143191814422607,-0.3597606420516968,0.6313857139592837,-0.27150465637266535,0.7066552586729837,-0.16815364496815793,-0.6193446217797872,1.7512662113234185,0.21206030114925703
1773063915482643200,2.160531997680664,-3.428882360458374,0.7448721528053284,-0.6870025992393494,0.7977105379104614,0.5786382555961609,0.1698106974363327,0.0910375714302063,0.03828990459442139,-0.33327817916870117,0.6241980987330203,-0.28170948806220353,0.7110169556624193,-0.15959758414289968,-0.6170580140578483,1.7805381628271884,0.24946934937733586
1773063915492680192,2.1705689430236816,-5.024523735046387,0.5879288911819458,-0.8947557806968689,0.7916074991226196,0.5775545835494995,0.1994696408510208,-0.007382094860076904,-0.04337495565414429,-0.19045177102088928,0.6151298246608629,-0.297523102410078,0.7149928844498958,-0.14792030357769143,-0.6157299798683469,1.8176381123499772,0.3028540943878783
1773063915502716160,2.180604934692383,-5.203279972076416,1.0972394943237305,-0.5744520425796509,0.7855940461158752,0.5719291567802429,0.23609133064746857,-0.12594127655029297,0.11946183443069458,0.2814105749130249,0.6035913279026622,-0.3153470916108337,0.7201401809764885,-0.1327849794679808,-0.6088556705300244,1.8627355125689478,0.36641753222807677
1773063915512752896,2.1906418800354004,-5.453603744506836,1.2031283378601074,-0.9197234511375427,0.7786051630973816,0.5638036131858826,0.27549853920936584,-0.06048077344894409,0.36972904205322266,0.617110013961792,0.5902802482570522,-0.333016239857074,0.7258439632950223,-0.1175581869715193,-0.5989839722057841,1.9108844476198452,0.4304713412560905
1773063915522789120,2.2006778717041016,-5.286936283111572,1.0560706853866577,-1.3425447940826416,0.7687655091285706,0.5567150712013245,0.314750999212265,0.08847332000732422,0.3627948760986328,0.4432293474674225,0.5762151964861985,-0.35262492913274734,0.7300898312013486,-0.10295950843575781,-0.5904261357558892,1.9594002886866753,0.49723338197637645
1773063915532825856,2.210714817047119,-3.854963779449463,1.1829944849014282,-1.2414500713348389,0.75776606798172,0.5513484477996826,0.3490060865879059,0.15889030694961548,0.5500461459159851,0.568809986114502,0.5630982935084969,-0.3701142102530853,0.733156544077496,-0.09174511950228648,-0.5839796655755848,2.0024073587161766,0.5546680752784793
1773063915542861824,2.2207508087158203,-1.9645569324493408,1.260137677192688,-1.3097907304763794,0.7464426159858704,0.5501494407653809,0.37437793612480164,0.23141682147979736,1.0111298561096191,0.537731409072876,0.5525189422572065,-0.3823055014694856,0.7355484167253734,-0.08679738267555429,-0.5825431561109322,2.0356827785356066,0.5927345288219222
1773063915552899072,2.230787992477417,-0.02693486586213112,1.4842368364334106,-1.596296787261963,0.7330747246742249,0.5571079254150391,0.39016956090927124,0.28811973333358765,1.1056575775146484,0.16697454452514648,0.5448570666013649,-0.38992418595391987,0.7369151276868524,-0.08969962641911233,-0.5908991276032284,2.0598997832961516,0.6117684649632364
1773063915562936064,2.2408249378204346,2.1682443618774414,1.8354990482330322,-1.4857686758041382,0.7176100015640259,0.572674572467804,0.39633268117904663,0.26253825426101685,1.0013304948806763,0.020613759756088257,0.5400229120159508,-0.39218772820576414,0.7378042605288333,-0.10103887903562325,-0.6097646608229501,2.075400115077893,0.6099435215930658
1773063915572972032,2.2508609294891357,4.827425956726074,1.6064497232437134,-1.5272282361984253,0.702174723148346,0.5968464612960815,0.3882336914539337,0.1484418511390686,0.9160473942756653,-0.022190481424331665,0.5395815493609848,-0.38709486802350035,0.7377495585024608,-0.12138803688997249,-0.6395649567587726,2.0758647044332794,0.5806715402664775
1773063915583009024,2.2608978748321533,6.555610656738281,0.9904934167861938,-2.2749316692352295,0.6855824589729309,0.6317877769470215,0.36169180274009705,0.11837261915206909,0.7440056800842285,-0.11167645454406738,0.5445786020966317,-0.37759057527887646,0.7336697162568164,-0.15029399638522042,-0.683857471147158,2.0562548113069745,0.5277585309987435
1773063915593044992,2.2709338665008545,8.280513763427734,0.9106994867324829,-2.419893264770508,0.6666049361228943,0.6733500957489014,0.3197459876537323,0.2003231644630432,0.6648609042167664,-0.12261775135993958,0.5528991333517472,-0.36545878763632045,0.7254742369665599,-0.18555202190376457,-0.7387308168340159,2.01804270331263,0.4552617773588135
1773063915603081984,2.280970811843872,9.917533874511719,1.209288477897644,-1.5975897312164307,0.648701012134552,0.7143417596817017,0.26249420642852783,0.2627828121185303,1.017042636871338,-0.18583402037620544,0.5633100389931032,-0.3461332120097028,0.7151495617499073,-0.22679249423960662,-0.7956829987809758,1.9553013385879554,0.34940095295612683
1773063915613117952,2.2910068035125732,9.804156303405762,1.07593834400177,-0.7721700668334961,0.6377625465393066,0.7444178462028503,0.1977396160364151,0.33231496810913086,1.1165440082550049,-0.45460617542266846,0.574209198891658,-0.3203695480212707,0.704438187836165,-0.2672339332622248,-0.8396625741734178,1.8714495266047908,0.21808171401348123
1773063915623155200,2.30104398727417,8.541698455810547,0.7550148963928223,-1.51600980758667,0.628139078617096,0.7666646242141724,0.1329151690006256,0.4322398900985718,0.6090219020843506,-0.5771900415420532,0.5839352307658837,-0.29590818466936825,0.6920230689584789,-0.30423998242386646,-0.8736299756413104,1.7793218643216875,0.08457689903103902
1773063915633191936,2.3110809326171875,6.66865873336792,0.8522927165031433,-2.2610433101654053,0.6119866371154785,0.7869361042976379,0.07876631617546082,0.5855231881141663,0.004934132099151611,-0.3825688362121582,0.5889433783616285,-0.27902316798955035,0.6793594266355735,-0.33728713646046465,-0.9058276056854107,1.6987985741135287,-0.029454817189882767
1773063915643228160,2.3211169242858887,5.203536033630371,0.74348384141922,-1.8769301176071167,0.5945643782615662,0.8032150268554688,0.03659186512231827,0.42083173990249634,-0.466758668422699,0.06704580783843994,0.5905377887120408,-0.26730229185777765,0.6684649714430625,-0.3646494724055669,-0.9326728683221399,1.632262794883698,-0.12338732967054959
1773063915653264896,2.3311538696289062,4.386157035827637,0.5069112777709961,-1.3412030935287476,0.5815137028694153,0.8135349154472351,0.001656571519561112,0.23521292209625244,-0.4943057894706726,0.22855281829833984,0.5917108895996066,-0.25729877469038853,0.6592614248610259,-0.38606986684530625,-0.9502053130172093,1.5736450421269446,-0.2036856723734927
1773063915663300864,2.3411898612976074,4.070226669311523,0.43352842330932617,-0.9057465195655823,0.5723156332969666,0.8194814324378967,-0.03008422441780567,0.27682071924209595,-0.42241722345352173,0.1680389642715454,0.593255092739019,-0.2475864373805482,0.6508908075817372,-0.40384470811443446,-0.9605056189399508,1.518278868857861,-0.2772438983322132
1773063915673337856,2.351226806640625,3.6393935680389404,0.19928927719593048,-0.32295048236846924,0.5672616362571716,0.8213372826576233,-0.06016084924340248,0.28011995553970337,-0.4405084252357483,0.0848647952079773,0.5956257919863645,-0.23741377822805695,0.6430818557742047,-0.4187007599964273,-0.9637513315994213,1.4651364310058703,-0.3459372676525487
1773063915683373824,2.361262798309326,2.9665751457214355,-0.2639554440975189,0.4388536214828491,0.5676355361938477,0.8186138868331909,-0.08752726018428802,0.28945058584213257,-0.5233564376831055,-0.21754169464111328,0.599673774472179,-0.22740610334878092,0.6360210945214124,-0.4291327297743765,-0.9589934722183838,1.417805029079774,-0.40330848495194016
1773063915693411072,2.371299982070923,2.525235652923584,-0.691219687461853,0.7356818318367004,0.5724005699157715,0.8122051358222961,-0.11260774731636047,0.3891777992248535,-0.6972147822380066,-0.3463613986968994,0.6056167060727549,-0.21812591880652346,0.6293784303500836,-0.43535312719186886,-0.9479222135715566,1.376548002865172,-0.4480972747942091
1773063915703448064,2.3813369274139404,2.0381550788879395,-1.005281686782837,0.3130764961242676,0.5757472515106201,0.8062090277671814,-0.1361701488494873,0.5028660297393799,-0.9694017767906189,-0.2721550464630127,0.6119951311605938,-0.21132550889956586,0.622299327998723,-0.43993992469275117,-0.9377161431867339,1.3385535998186027,-0.4843189262736225
1773063915713484032,2.3913729190826416,1.5455201864242554,-1.1215537786483765,-0.23132291436195374,0.5743457674980164,0.8033921718597412,-0.15712399780750275,0.5380198955535889,-1.2960679531097412,-0.28950077295303345,0.6173243601187949,-0.20803858519567442,0.6149454814589637,-0.44437889354540605,-0.9329703166612785,1.3037596722407983,-0.5140490210552204
1773063915723521024,2.401409864425659,0.7687833309173584,-1.0013480186462402,-0.24269598722457886,0.5702221989631653,0.8031600713729858,-0.17257057130336761,0.42858755588531494,-1.4610427618026733,-0.2607179880142212,0.6212030106053036,-0.2078036323653784,0.6087136946578098,-0.4476517991694327,-0.9325806082421979,1.2769216484275088,-0.5338976688199778
1773063915733556992,2.4114458560943604,0.7833553552627563,-0.8404264450073242,0.1807841807603836,0.5682142972946167,0.8020755052566528,-0.18386855721473694,0.2880326509475708,-1.3787508010864258,-0.06672652065753937,0.6247274762561942,-0.20772516973841645,0.6040827559477866,-0.44905456523199705,-0.9307623736585241,1.2578401188093578,-0.5459714297887004
1773063915743593984,2.421482801437378,1.1653037071228027,-0.4997301399707794,0.34782278537750244,0.5692709684371948,0.7985572218894958,-0.19554275274276733,0.17581570148468018,-1.0748481750488281,0.19194167852401733,0.628434367820221,-0.20530662631517255,0.600064838143076,-0.4503794698243971,-0.9248944700235786,1.2399266994629552,-0.559886836327119
1773063915753630208,2.431519031524658,1.7029213905334473,0.05973021686077118,0.7841127514839172,0.5730724334716797,0.7926504611968994,-0.20807041227817535,0.08865547180175781,-0.8082907199859619,0.30624544620513916,0.6317466212518131,-0.19976322288746737,0.596707171060062,-0.4526935516017755,-0.9151441161038746,1.222517916055406,-0.5789369749846954
1773063915763667200,2.441555976867676,2.509721040725708,0.5256471037864685,1.3997513055801392,0.5824418067932129,0.78169184923172,-0.2229786515235901,-0.04550027847290039,-0.599654495716095,0.3404713273048401,0.635386106248664,-0.18903539477968734,0.5939497403913927,-0.4558221537208324,-0.8973739418484812,1.2051750443428428,-0.6049495851146782
1773063915773703168,2.451591968536377,2.876267194747925,0.6600075364112854,1.8072625398635864,0.5963995456695557,0.7657787203788757,-0.24060466885566711,-0.08574891090393066,-0.41499441862106323,0.3512766361236572,0.6398137925699662,-0.17414066454392738,0.5910775729219503,-0.45928279792219645,-0.8722513375435426,1.1873377150615787,-0.6357239318170624
1773063915783741440,2.461630344390869,2.7134008407592773,0.6100342273712158,2.0103931427001953,0.6126012206077576,0.7470549941062927,-0.2581256330013275,0.06815445423126221,-0.3683622479438782,0.34548220038414,0.644680792092445,-0.15784308493583993,0.5882369742421033,-0.4620061126766061,-0.8436207740689844,1.1720128321548506,-0.6646119187897922
1773063915793778432,2.4716672897338867,2.5387911796569824,0.3315846920013428,2.3361451625823975,0.6297635436058044,0.7267237305641174,-0.27435484528541565,0.14733606576919556,-0.38091379404067993,0.5151079893112183,0.6502585323994481,-0.14202999434721422,0.5853631785666241,-0.4629700799675071,-0.8135403654707712,1.1599418895974347,-0.6872959393393064
1773063915803814400,2.481703281402588,2.9476168155670166,0.17162679135799408,2.7092959880828857,0.6486656069755554,0.7026516199111938,-0.2924273610115051,0.13658219575881958,-0.3268123269081116,0.7563250064849854,0.6573502751550153,-0.12514547733319886,0.5814851070855251,-0.46271416664264936,-0.7791172992700011,1.1472659185903096,-0.7081263094412604
1773063915813851648,2.4917404651641846,3.63486385345459,0.5471463203430176,2.415675163269043,0.6677939891815186,0.6753090023994446,-0.3130638897418976,0.055075883865356445,-0.23654252290725708,0.9022820591926575,0.664383406887388,-0.10580561036869822,0.5764314536231577,-0.46381752466003706,-0.7413835900906947,1.1324162213110631,-0.7345331271478598
1773063915823887616,2.5017764568328857,3.5732123851776123,1.0325194597244263,2.0106306076049805,0.6846864223480225,0.6488937735557556,-0.3318757116794586,-0.07219862937927246,-0.20902866125106812,0.618161141872406,0.6688891103300779,-0.08557083277936983,0.5716115566346042,-0.4674669161474226,-0.7061296622006671,1.1194537534343538,-0.7661002681894685
1773063915833924608,2.5118134021759033,2.7816498279571533,1.181301474571228,2.503174304962158,0.7029730081558228,0.6221065521240234,-0.34469181299209595,-0.26927250623703003,-0.27341270446777344,0.09421879053115845,0.6720911048482114,-0.0653754202072243,0.5686652280897054,-0.46972283224100403,-0.6714304382940848,1.11491109048184,-0.7915997719766026
1773063915843960576,2.5218493938446045,1.2347369194030762,0.8539420962333679,2.507800340652466,0.7221779823303223,0.5969895720481873,-0.34937459230422974,-0.28611230850219727,-0.21106421947479248,-0.43428632616996765,0.6757382358728292,-0.04903745593561167,0.5682499724659968,-0.46697458755648524,-0.6397433464522713,1.12020946281916,-0.7997778887080094
1773063915853997568,2.531886339187622,0.4014984369277954,0.7660478949546814,2.273175001144409,0.7388871908187866,0.5766652822494507,-0.348572701215744,-0.06403672695159912,0.20156347751617432,-0.44328218698501587,0.6791928890888674,-0.03757276017967928,0.5694751465129823,-0.46150124714100366,-0.6146410248393814,1.1300000929408085,-0.7965578371224621
1773063915864034304,2.5419232845306396,-1.7820607423782349,0.5223568677902222,2.193898916244507,0.7539671063423157,0.5620145797729492,-0.3401077389717102,0.050598323345184326,0.6446352005004883,-0.2429305911064148,0.6823560148841957,-0.031776531954558304,0.5735297514928019,-0.4521550825389393,-0.5968194487571128,1.1470355227440678,-0.7781484567965686
1773063915874070528,2.551959276199341,-4.553719997406006,0.25734466314315796,2.1371748447418213,0.7673144340515137,0.5558204650878906,-0.319831520318985,0.07605409622192383,0.5097160339355469,-0.6129382252693176,0.6855558073144165,-0.03534071786966368,0.5820955885249515,-0.4358084757594733,-0.5893495875447511,1.1758751090932462,-0.7332792457081718
1773063915884107520,2.5619964599609375,-6.668300151824951,0.04120643436908722,2.1128640174865723,0.7797009348869324,0.5567699074745178,-0.2864854037761688,-0.05928772687911987,0.2938312888145447,-0.3236830234527588,0.6884378577543144,-0.04857324947527783,0.5953133120388647,-0.4114560978029067,-0.5904921612393814,1.2186789537436915,-0.659079129400381
1773063915894143488,2.5720324516296387,-7.6569623947143555,-0.2970842719078064,2.002908945083618,0.79090416431427,0.5597220063209534,-0.24734950065612793,-0.3109847903251648,-0.009169697761535645,0.3117721378803253,0.6908163333265006,-0.06734145285877514,0.6097461609112096,-0.3826845447090559,-0.5940503070287316,1.2676903693026957,-0.5691754365693639
1773063915904180480,2.5820693969726562,-8.073673248291016,-0.5862980484962463,2.1781351566314697,0.8015444874763489,0.5611994862556458,-0.20635272562503815,-0.34805333614349365,-0.345211386680603,0.24373675882816315,0.6929605739975598,-0.08935803313166352,0.6235693870993728,-0.350687766343938,-0.5958343184452686,1.3188240151907378,-0.469645744682496
1773063915914216448,2.5921053886413574,-7.534585475921631,-0.7665562629699707,2.030646324157715,0.8123246431350708,0.5585253238677979,-0.16786359250545502,-0.1764298677444458,-0.14377617835998535,0.2080857753753662,0.6947679787347228,-0.11096491856841813,0.635417180184975,-0.31816544332845137,-0.592606915443958,1.3670186783950973,-0.37146005947021205
1773063915924253440,2.602142333984375,-6.968277931213379,-0.8186898827552795,1.5820308923721313,0.821194589138031,0.5546860098838806,-0.1340254247188568,-0.1002015471458435,0.5060439705848694,0.3748090863227844,0.69570862601813,-0.131666284356926,0.6447102291595941,-0.28810097704037024,-0.5879855820746704,1.4090148360390853,-0.2814397484064105
1773063915934290432,2.6121792793273926,-6.330096244812012,-0.6537001132965088,1.3266215324401855,0.8282844424247742,0.5507190823554993,-0.10321484506130219,-0.13011860847473145,0.5837565660476685,0.24037612974643707,0.6953744471618367,-0.15125597094179663,0.6523145015294195,-0.2608864241703298,-0.5832254738947593,1.4468225877672807,-0.19959313180096117
1773063915944326400,2.6222152709960938,-5.695324420928955,-0.42109018564224243,1.2201601266860962,0.8347919583320618,0.5454864501953125,-0.07461109757423401,-0.17460519075393677,0.5501555800437927,0.2057299017906189,0.693907786379428,-0.16873728975222935,0.6589553682764884,-0.23621495919530697,-0.5769694345853557,1.4816563038723463,-0.12614221179627413
1773063915954363648,2.6322524547576904,-5.318953514099121,-0.2871033549308777,1.037400484085083,0.8407933115959167,0.5392521619796753,-0.04768240079283714,-0.15607047080993652,0.6562128663063049,0.24120962619781494,0.6914924878485912,-0.1843960120669859,0.664948803209726,-0.21372715954268587,-0.5695488285846869,1.5141458061822388,-0.05982785157241579
1773063915964399616,2.6422884464263916,-5.1548285484313965,-0.19402165710926056,0.6332718133926392,0.8452666997909546,0.5338998436927795,-0.02179129049181938,-0.059668123722076416,0.6342518925666809,0.2927568554878235,0.6882090402158176,-0.19990955053667037,0.6701794733575868,-0.19303837696208676,-0.5632060853362799,1.545021664126948,0.002659867643528651
1773063915974436608,2.652325391769409,-4.998612880706787,0.054204657673835754,0.12130491435527802,0.8472900390625,0.5311100482940674,0.004657852463424206,0.0333709716796875,0.4961726665496826,0.4898184537887573,0.6835445041065108,-0.21622213510165678,0.6749643801976414,-0.1744648755171256,-0.5599101352048819,1.576293624408669,0.06303629275218403
1773063915984472576,2.6623613834381104,-4.86627197265625,0.36004841327667236,-0.17828291654586792,0.8469051122665405,0.5307303667068481,0.032821718603372574,0.09114432334899902,0.38334745168685913,0.6551817655563354,0.6771796163779018,-0.23309733251095863,0.6797620854892835,-0.15816771688491452,-0.5594620717035521,1.6095318366594153,0.12145545196608853
1773063915994509568,2.672398328781128,-3.5741467475891113,0.6809979677200317,-0.14415396749973297,0.8458489775657654,0.5300049185752869,0.06028732657432556,0.0893622636795044,0.4169555902481079,0.7252198457717896,0.6700340209837268,-0.24774211330454707,0.684665982795995,-0.14460602919940005,-0.5586063989651444,1.6419503371902504,0.17238578849398495
1773063916004546304,2.6824352741241455,-2.191086769104004,1.012249231338501,-0.5840775370597839,0.8435120582580566,0.5307513475418091,0.08240418136119843,0.06818532943725586,0.6223858594894409,0.7864313125610352,0.6633401698936371,-0.25771753195693897,0.689045544761935,-0.13703199248162493,-0.5594868401376667,1.6681790724035785,0.20600253705362917
1773063916014582272,2.6924712657928467,-2.698972702026367,-0.10950464010238647,-0.755341112613678,0.8388188481330872,0.5354193449020386,0.09853512793779373,0.08522295951843262,0.7286645174026489,0.6523804664611816,0.6580949343462907,-0.2672730810959571,0.6912544132183714,-0.1328289907869829,-0.565004212318285,1.6877293438222207,0.2325940030098754
1773063916024619520,2.7025084495544434,-3.40287709236145,-0.7325481176376343,1.4483749866485596,0.8404864072799683,0.5301747918128967,0.11179119348526001,0.014127850532531738,0.7333292365074158,0.5976508855819702,0.6555049499996629,-0.2776509027623908,0.6919577825005799,-0.12007360061248622,-0.5588067196452087,1.703027932842526,0.27081907250428944
1773063916034655488,2.7125444412231445,-0.9307255148887634,-0.4913901090621948,2.459989070892334,0.8529508113861084,0.5082935094833374,0.11879698932170868,0.0023195743560791016,0.9078136682510376,0.9279100894927979,0.6555395533847272,-0.2772127847289749,0.6946593182260443,-0.10425658952847223,-0.5332020694782796,1.7091837454257353,0.2926558467394608
1773063916044692480,2.722581386566162,-2.230220079421997,-0.15126670897006989,-0.5706202387809753,0.8586930632591248,0.49789175391197205,0.1214509978890419,0.45630943775177,0.05852007865905762,-0.3419710397720337,0.6558193475388502,-0.2780416117779237,0.6952829366684435,-0.09578951083648152,-0.5211660975886842,1.71130139858001,0.30568663485349773
1773063916054728448,2.7326173782348633,-4.993013858795166,-0.4873161017894745,-1.8981876373291016,0.8514670729637146,0.5058899521827698,0.1381274312734604,0.7917519211769104,-2.0340728759765625,-1.9929553270339966,0.6506217522630634,-0.29561116334433035,0.694030083701722,-0.08733614791382709,-0.5304133441465616,1.7316182239123,0.3511078509391814
1773063916064765440,2.742654323577881,-3.5746610164642334,-0.3552204370498657,0.14466585218906403,0.8471636176109314,0.5073217153549194,0.15791894495487213,0.48343324661254883,-2.070889949798584,-0.6596431732177734,0.6446554453134282,-0.3140435402153653,0.6930628569620337,-0.07389079615197333,-0.5320739705049317,1.7550901350143207,0.405615317872169
1773063916074802432,2.7526912689208984,0.4392572045326233,-0.31734761595726013,1.5485557317733765,0.85263991355896,0.4966040253639221,0.16244913637638092,0.39111924171447754,0.05069825053215027,0.3485219478607178,0.6438630209248054,-0.31566240855337063,0.6939609612363701,-0.06492967072755446,-0.5196818515201277,1.7590648518392908,0.42072735343311374
1773063916084838400,2.7627272605895996,1.4462978839874268,-0.12893477082252502,0.8758730292320251,0.8594321608543396,0.4871630370616913,0.15507663786411285,0.40370577573776245,1.1149488687515259,0.08822478353977203,0.6467762062021541,-0.3074499225527845,0.6949912713622541,-0.06436084808088387,-0.508838292982605,1.7493162185061586,0.40499371257695305
1773063916094875648,2.7727644443511963,1.5320184230804443,0.18529506027698517,0.03649286925792694,0.8613236546516418,0.48581719398498535,0.1486707627773285,0.2016950249671936,0.9575268030166626,-0.9109083414077759,0.6488724395951678,-0.3014477250994634,0.6953162249000889,-0.06803736272742601,-0.5072978786679389,1.7417194718311937,0.3882691100421428
1773063916104911616,2.7828004360198975,1.8721562623977661,0.339873731136322,0.025998946279287338,0.8609304428100586,0.4883580803871155,0.1424960345029831,-0.24084383249282837,0.8224786520004272,-0.939599871635437,0.6505319292632927,-0.29562060286488834,0.6955979272756098,-0.0745666287736021,-0.5102071977042371,1.7348232706678917,0.36838901864358053
1773063916114948608,2.792837381362915,1.4795043468475342,0.3884250223636627,0.4220197796821594,0.861300528049469,0.489047110080719,0.1378195881843567,-0.26123344898223877,0.31744086742401123,-0.24618758261203766,0.6516212437258206,-0.289197621764371,0.696616485883036,-0.08049801875265301,-0.5109969902032674,1.729464608444031,0.34867746584939535
1773063916124984576,2.802873373031616,1.5917940139770508,0.4564064145088196,0.7808036208152771,0.8637338876724243,0.4857088327407837,0.13435180485248566,0.05527234077453613,-0.28647491335868835,0.04850946366786957,0.6524654697537435,-0.2819429304323668,0.6983438190343724,-0.08433724865782387,-0.5071739095049087,1.7251074256576175,0.3305795632854623
1773063916135021568,2.812910318374634,1.2900797128677368,0.1704218089580536,0.4725382328033447,0.8665726184844971,0.4818369448184967,0.1299421191215515,0.18539875745773315,-0.1944224238395691,0.2776963710784912,0.6536960972289,-0.27455938736752156,0.6997057990426191,-0.08780843939866306,-0.5027498558451747,1.7196368752573672,0.31253019441282603
1773063916145058304,2.8229472637176514,0.8726693987846375,0.030692674219608307,-0.14266210794448853,0.867175817489624,0.4819023311138153,0.1256036013364792,0.12992501258850098,-0.060439348220825195,0.2674933671951294,0.6549003261579448,-0.2705599118660353,0.6997136073616732,-0.09112498503886082,-0.5028244751001867,1.7146381326899076,0.3003956383100203
1773063916155094272,2.8329832553863525,1.128280758857727,0.1560673713684082,-0.260390043258667,0.8658744096755981,0.4852319061756134,0.1217033788561821,0.038178443908691406,0.04160836338996887,0.085465207695961,0.6557802364711043,-0.2682502352611013,0.6992091966577417,-0.09539741509987802,-0.5066283691449034,1.7104370158641353,0.2899690905030756
1773063916165131520,2.843020439147949,1.8157005310058594,0.3462624251842499,0.17664317786693573,0.865269660949707,0.4875151515007019,0.11678013205528259,-0.08202069997787476,0.34585893154144287,0.11318506300449371,0.6567994313341362,-0.2634752752721926,0.6992645018552923,-0.10111647183736411,-0.5092415123105001,1.7049495538886672,0.27328645727432316
1773063916175167488,2.8530564308166504,2.16028094291687,0.23287619650363922,0.4681978225708008,0.8666175603866577,0.4867958724498749,0.10956165194511414,-0.11442035436630249,0.5101523399353027,0.14509236812591553,0.6585404459142896,-0.2554518599777199,0.6996607560171474,-0.10744144339165215,-0.5084179219467798,1.6965536119113815,0.2498097257938892
1773063916185204480,2.863093376159668,1.6954610347747803,0.06688689440488815,0.48247236013412476,0.8688111305236816,0.4847170114517212,0.10107714682817459,-0.02570199966430664,0.3448423147201538,0.07877826690673828,0.6608309280943035,-0.24714019109011534,0.6996143925605887,-0.11297740593456851,-0.5060395909052261,1.6866152713812221,0.22657550186770217
1773063916195240448,2.873129367828369,1.1519365310668945,0.044533923268318176,0.5894792079925537,0.8712804913520813,0.48156100511550903,0.09470850229263306,0.07328444719314575,-0.02416345477104187,0.021761909127235413,0.6626711585943649,-0.24062373153487335,0.6996102269693069,-0.1162448663671957,-0.5024349770529436,1.6790715665830886,0.209911946259399
1773063916205277440,2.8831663131713867,0.9437678456306458,-0.07903648167848587,0.86600261926651,0.8747947216033936,0.47610941529273987,0.08974538743495941,0.098624587059021,-0.3504531979560852,0.02857125550508499,0.6643304859042652,-0.23461251608926212,0.6998783197809508,-0.11744107021529808,-0.49622517645032976,1.6730288991893045,0.1972787398967516
1773063916215314432,2.8932032585144043,0.6773949861526489,-0.3837937116622925,0.9503558278083801,0.8793312311172485,0.46877825260162354,0.0838060975074768,0.10808020830154419,-0.504895806312561,-0.13750183582305908,0.666631217725397,-0.22875078637414092,0.6996971677603206,-0.11704594688301045,-0.48790714671177926,1.6658159514681223,0.18681627262295403
1773063916225350656,2.9032394886016846,0.8725666999816895,-0.5205448865890503,0.9512678980827332,0.8841643333435059,0.46092361211776733,0.07617530971765518,0.11633908748626709,-0.4931502342224121,-0.17775309085845947,0.6697001818871668,-0.22328701365184506,0.6987349745387411,-0.11581851820099719,-0.47903567100902983,1.6567392519712725,0.17774592020529587
1773063916235387648,2.913276433944702,0.9948174953460693,-0.5938355922698975,0.780031681060791,0.8886218070983887,0.45375409722328186,0.06677080690860748,0.07272762060165405,-0.32950183749198914,-0.11578202992677689,0.6732308585557231,-0.2172166962005382,0.6972820889584359,-0.11564913810383078,-0.47097361063310234,1.6457951303144136,0.16595091705131393
1773063916245423616,2.9233124256134033,0.30058199167251587,-0.4578651189804077,0.48534682393074036,0.8917651176452637,0.4486461281776428,0.05892099440097809,0.010365009307861328,-0.2439800202846527,-0.17677998542785645,0.6761936704990159,-0.2130766232797705,0.6957433788671187,-0.11533276179913769,-0.465249883565168,1.6367727546338595,0.15788603058217351
1773063916255460608,2.933349370956421,-0.011948194354772568,-0.3038904666900635,0.5952147841453552,0.8942979574203491,0.44403794407844543,0.05533130466938019,-0.06733262538909912,-0.12772324681282043,-0.18905937671661377,0.6778462464613366,-0.21126865368615227,0.6950044667782055,-0.11339684024656047,-0.46010026648935287,1.63258878007199,0.15681696606378862
1773063916265496576,2.943385362625122,-0.1287762075662613,-0.31455758213996887,0.5205902457237244,0.8970689177513123,0.43877801299095154,0.0523562878370285,-0.09575361013412476,0.16304385662078857,-0.12660562992095947,0.6792946575997307,-0.20919720287042162,0.6945607784868549,-0.11126810923783827,-0.4542383364720671,1.629093926016888,0.15579685232658685
1773063916275533312,2.9534223079681396,-1.0597963333129883,-0.0370495580136776,0.2434619814157486,0.8988649845123291,0.4349690079689026,0.05332562327384949,-0.027069389820098877,0.17431440949440002,0.011051174253225327,0.6795594481020666,-0.210255493350304,0.6945901225583826,-0.10740635336567075,-0.4500038472340249,1.6300523805957379,0.16297888554035408
1773063916285570304,2.9634592533111572,-1.2187509536743164,0.2580437660217285,0.05159645155072212,0.8993804454803467,0.43302667140960693,0.0600222609937191,0.062243640422821045,0.17483767867088318,0.16724205017089844,0.6777936719241608,-0.2138062655449397,0.6959152323931798,-0.10288149252631101,-0.44784788563249883,1.6374348506135399,0.17632893048965403
1773063916295606528,2.9734954833984375,-0.37788262963294983,0.2552964687347412,-0.3167208433151245,0.8987804651260376,0.43341317772865295,0.06592965126037598,-0.0381237268447876,0.5080236196517944,0.3378636837005615,0.6759622379029737,-0.21689895759090955,0.6970793845324926,-0.1005496338280446,-0.44827671637367933,1.6440197468416569,0.18577257951685636
1773063916305643520,2.983532428741455,-0.4309159219264984,0.38991066813468933,-0.9467711448669434,0.8957163691520691,0.43905702233314514,0.07015180587768555,-0.1984660029411316,0.5215753316879272,0.38871049880981445,0.6741869520623975,-0.22011989380647007,0.697583783936034,-0.10196130109695431,-0.4545488526961802,1.6489560003131318,0.189932184192378
1773063916315679488,2.9935684204101562,-0.2255837768316269,0.6939629316329956,-0.7793999910354614,0.8911960124969482,0.44704902172088623,0.07692068815231323,-0.22101479768753052,0.5519896149635315,0.2287585735321045,0.6713165675296716,-0.22444468957870436,0.6986307504756013,-0.10427692422934479,-0.4634636040287349,1.6568947001444865,0.1953148291480088
1773063916325716480,3.003605365753174,0.7509394288063049,0.455779492855072,-0.2809034585952759,0.8883646726608276,0.45191705226898193,0.08111222088336945,-0.28779399394989014,0.8489252328872681,0.04614615440368652,0.6692162095108447,-0.22502968949704294,0.6999412456983007,-0.10767333317917054,-0.4689131819278753,1.661848955189114,0.19277262043184706
1773063916335752448,3.013641357421875,0.8160449266433716,0.03911355510354042,-0.14850015938282013,0.8872680068016052,0.4543742835521698,0.07936988025903702,-0.26654040813446045,0.7470265626907349,0.07338596135377884,0.6692077136500558,-0.2226364867864018,0.7000842351290607,-0.11169668157842524,-0.47166967240208957,1.6600130953266619,0.18313928224140452
1773063916345789440,3.0236783027648926,0.02760440856218338,-0.10907883942127228,0.1813630610704422,0.887178897857666,0.45496612787246704,0.0769386738538742,-0.06462335586547852,0.03867095708847046,-0.17160427570343018,0.6698720297818019,-0.2214235817367793,0.699600554404851,-0.1131468597872682,-0.4723341904962388,1.6573027338137918,0.1786315083838627
1773063916355826688,3.0337154865264893,-0.20630475878715515,-0.2833148241043091,0.859498918056488,0.8897621035575867,0.45006728172302246,0.07591360807418823,0.02468186616897583,-0.50406813621521,-0.15249741077423096,0.6706513774224805,-0.21997890880172724,0.6996899898272535,-0.11076974178885975,-0.4668406744562639,1.6559091956207248,0.17930103053974397
1773063916365862656,3.0437514781951904,-0.37438538670539856,-0.45863857865333557,0.8275880813598633,0.8939470648765564,0.44204363226890564,0.07386434078216553,0.04987001419067383,-0.7248347997665405,-0.13496053218841553,0.6721261503739124,-0.21813391820288894,0.6995353926277942,-0.10636817203507223,-0.4578757011203796,1.6532362566278453,0.18182552598883261
1773063916375899648,3.053788423538208,-0.06646563112735748,-0.47228699922561646,0.8476893305778503,0.8978569507598877,0.4345838129520416,0.07063601911067963,0.08668571710586548,-0.8226606845855713,-0.14409185945987701,0.6739750974637109,-0.21645085012410867,0.6989041707439071,-0.10217340776399594,-0.44957611304808437,1.6493064167273959,0.18405586568321056
1773063916385935616,3.063824415206909,0.5784469842910767,-0.2992536127567291,0.8383891582489014,0.9018934965133667,0.4268808960914612,0.0660364106297493,0.0192490816116333,-0.45231732726097107,-0.026790864765644073,0.6760512965805917,-0.21273986119961122,0.6983981360317485,-0.09968151532196273,-0.4410407859202766,1.6438856444389438,0.1805358933688248
1773063916395972608,3.0738613605499268,1.3201847076416016,-0.056905947625637054,0.5265207886695862,0.9049124717712402,0.42128536105155945,0.06042957678437233,-0.10187309980392456,0.2064000964164734,0.05552183464169502,0.6780070358269571,-0.20725431296614877,0.6980404273593931,-0.1004566425996623,-0.4348621223550494,1.6374767939147061,0.1696497605490775
1773063916406008576,3.083897352218628,1.9189001321792603,0.07571790367364883,0.2460990846157074,0.9065262675285339,0.418718159198761,0.05371523275971413,-0.19612276554107666,0.668501079082489,0.13125181198120117,0.6798041133347981,-0.20028968169689065,0.6976687327191333,-0.10492276966122023,-0.43203333409199335,1.6299810455742465,0.15123702181917265
1773063916416045312,3.0939342975616455,2.315088987350464,0.13808433711528778,0.0688052624464035,0.9070661664009094,0.4184916913509369,0.04577720910310745,-0.2917250394821167,0.7631183862686157,0.17158424854278564,0.6816019831721695,-0.1925228417044954,0.6970104449603951,-0.11193792214800782,-0.4317839671705734,1.6212208775374,0.12783524753853667
1773063916426082560,3.103971481323242,2.5027647018432617,0.28549250960350037,0.09680227935314178,0.9072951078414917,0.4188137948513031,0.03756027668714523,-0.2461317777633667,0.538904070854187,0.15021443367004395,0.6831722375909755,-0.1837886691311613,0.6964207519756008,-0.12039788135388177,-0.43213864075454483,1.6121707835406673,0.1009159569422298
1773063916436118528,3.1140074729919434,2.413213014602661,0.2472795993089676,0.0224582739174366,0.9074732661247253,0.4190557599067688,0.029744790866971016,-0.08947998285293579,0.22391918301582336,0.10383057594299316,0.6844514619010744,-0.17491670251511487,0.6958998077411933,-0.12905001694596163,-0.4324051014398072,1.6035621898216255,0.07362923867350683
1773063916446155520,3.124044418334961,2.4697718620300293,0.25288769602775574,-0.03048563376069069,0.9073299169540405,0.41986361145973206,0.021617261692881584,0.07220816612243652,0.08118933439254761,0.12259352207183838,0.6857185418733991,-0.16650131341330374,0.6950438430287266,-0.1377736979258101,-0.4332950225744518,1.5946169607120617,0.046848409689457145
1773063916456191488,3.134080410003662,2.5712080001831055,0.08935815095901489,0.032473091036081314,0.9073452353477478,0.4202022850513458,0.012451059184968472,0.16688889265060425,0.21645551919937134,0.30313122272491455,0.6871969723240361,-0.15757260621167185,0.6938273583233684,-0.14674792747721827,-0.433668234235347,1.5845179810654235,0.01869883871474093
1773063916466228480,3.1441173553466797,2.5043485164642334,0.06637786328792572,-0.17369960248470306,0.9070841073989868,0.42094218730926514,0.002421273849904537,0.20552563667297363,0.3471394181251526,0.17192566394805908,0.6888056269766449,-0.1488023156022864,0.6921477499530087,-0.15600025099907117,-0.4344837681438218,1.5734656139642944,-0.009835291285292523
1773063916476264448,3.154153347015381,1.7170380353927612,0.03277143836021423,0.1479220986366272,0.9067302346229553,0.42166846990585327,-0.006003152579069138,0.20493358373641968,0.24265342950820923,0.010199308395385742,0.6901333727522049,-0.14194572857550225,0.6905431440721329,-0.1634550319047864,-0.4352845918393889,1.564175763609526,-0.032619231078880435
1773063916486301440,3.1641902923583984,1.4280062913894653,-0.16359588503837585,0.4325070381164551,0.9083155393600464,0.4180760085582733,-0.013239642605185509,0.17753034830093384,0.0864863395690918,-0.023625612258911133,0.691716199249617,-0.13500975096504433,0.6893130969965299,-0.16777509252654738,-0.4313263045775074,1.5562213195001997,-0.05063470066862547
1773063916496338688,3.174227476119995,-0.14588721096515656,-0.0356975682079792,-0.4457440972328186,0.9081765413284302,0.4182230830192566,-0.017458217218518257,0.13500583171844482,-0.1402079463005066,-0.11359947919845581,0.6926498129975592,-0.13279929000804602,0.6882116243495595,-0.17019202727760835,-0.431488207420225,1.551575320211116,-0.05835782938285691
1773063916506374656,3.1842634677886963,-1.2852047681808472,0.2062637358903885,-0.07836997509002686,0.9067225456237793,0.4215225577354431,-0.013163349591195583,0.14947575330734253,-0.7582228779792786,-0.38531988859176636,0.6914554612713227,-0.13666996295408673,0.6890135313471909,-0.16873410883197854,-0.43512367238292543,1.5562798412754832,-0.04965476947699741
1773063916516411648,3.194300413131714,-1.102033019065857,0.1781974732875824,0.16544561088085175,0.9071459770202637,0.4207746386528015,-0.0059102000668644905,0.020359575748443604,-0.8639813661575317,-0.2483164668083191,0.6899393685310241,-0.14058777002451703,0.6908545279698699,-0.1641304707126645,-0.4342990554571766,1.5642812602174043,-0.03553436000748479
1773063916526447616,3.204336404800415,-0.2487054169178009,0.18381284177303314,0.035489343106746674,0.9075407981872559,0.4199615716934204,-0.0014756337041035295,-0.01479482650756836,-0.3113342225551605,-0.020909011363983154,0.6889350219764728,-0.14248018242389826,0.69207050274445,-0.1615748619711117,-0.43340297133893285,1.5691703586586223,-0.028009530907673028
1773063916536484352,3.2143733501434326,0.1654912382364273,-0.01577402651309967,0.0150101687759161,0.9076447486877441,0.41973891854286194,-0.0006295155035331845,0.06995534896850586,-0.04286208748817444,0.0536995530128479,0.6886181603811594,-0.14225997901935575,0.6924213605914017,-0.16161641685105302,-0.4331576648664395,1.5701027565068095,-0.028182485380305686
1773063916546521344,3.22441029548645,-0.2016722559928894,-0.2035549134016037,-0.024168748408555984,0.907611608505249,0.4198070466518402,-0.0018451465293765068,0.05773580074310303,-0.03131818771362305,-0.15849417448043823,0.6890666043377599,-0.14235546769551902,0.6919626778784614,-0.16158547909260998,-0.4332327070918895,1.5687633603212523,-0.028294425995272814
1773063916556557312,3.2344462871551514,-0.7744428515434265,-0.1524914652109146,0.046238839626312256,0.9075953960418701,0.4198433756828308,-0.001516053918749094,0.05999493598937988,0.01519995927810669,-0.17977362871170044,0.6893609804670251,-0.14416141160536278,0.6917076408540479,-0.15981092392134905,-0.43327274579931924,1.5691259210144526,-0.023029591084374343
1773063916566594560,3.244483470916748,-1.0760291814804077,-0.018887260928750038,0.2578587830066681,0.9082497954368591,0.4184247851371765,0.0018244251841679215,0.10070723295211792,0.00851622223854065,-0.08283329010009766,0.6890624688635405,-0.1470628055282961,0.692303938912383,-0.15582307093686248,-0.4317102726764917,1.5728050504080167,-0.012242885368219202
1773063916576630528,3.254519462585449,-0.9925656914710999,-0.061849113553762436,0.1576344221830368,0.9091919660568237,0.4163363575935364,0.005846615880727768,0.10412907600402832,-0.1132509708404541,0.09994256496429443,0.6885786624326258,-0.14986196965365065,0.6931556088282179,-0.15144712932331728,-0.42941211543652863,1.5772268007201087,-0.0008921958084052404
1773063916586667520,3.264556407928467,-0.7500855922698975,-0.06317143142223358,0.1681671440601349,0.909812867641449,0.4149210453033447,0.009014013223350048,0.11904162168502808,-0.17052096128463745,0.20520412921905518,0.6882502619801075,-0.15259847208866495,0.6937007373586543,-0.14766394072429503,-0.42785602492284164,1.5807035494964545,0.009293736482484083
1773063916596703488,3.274592399597168,-0.33734485507011414,0.08352906256914139,0.007130318321287632,0.9102266430854797,0.41395947337150574,0.011177368462085724,0.03481113910675049,-0.06953811645507812,0.13252997398376465,0.6878997275421967,-0.1539357558954876,0.6941847501301797,-0.1456202693518587,-0.4267994365004965,1.5830754734395271,0.014694025584401285
1773063916606740480,3.2846293449401855,-0.13757462799549103,0.039967130869627,0.12241314351558685,0.9103289246559143,0.4136725664138794,0.013278069905936718,-0.1366015076637268,0.0769890546798706,0.05476081371307373,0.6873243690138461,-0.15463033181800145,0.6947866545747085,-0.1447280080118746,-0.4264842842681604,1.5853813059142954,0.017487225157994238
1773063916616777472,3.294666290283203,0.35787585377693176,0.15837900340557098,0.5641809701919556,0.9117664098739624,0.41048192977905273,0.013653501868247986,-0.24123430252075195,0.07235187292098999,-0.13020014762878418,0.6874096669689737,-0.1532682386247433,0.6952234157792735,-0.1436702095476621,-0.42298250239494983,1.5857699874841495,0.017098420204856767
1773063916626813440,3.3047022819519043,0.8327111005783081,-0.04340765252709389,0.5466943383216858,0.9142276644706726,0.40502914786338806,0.011795555241405964,-0.24564862251281738,0.14305126667022705,0.1549677848815918,0.6880405333271765,-0.1488906056449269,0.6955065528247826,-0.14388333975721612,-0.41701071773713533,1.583697818632278,0.009968016503524397
1773063916636850688,3.314739465713501,0.5661576986312866,0.0327124148607254,0.39635148644447327,0.9159924387931824,0.4011079668998718,0.008372534066438675,-0.15962964296340942,0.1031186580657959,0.04208827018737793,0.6890745595081768,-0.14489839846921926,0.6951192135575204,-0.1448790142445552,-0.4127260631842286,1.5799364683412487,0.0019414597150702183
1773063916646886656,3.324775457382202,0.08220326900482178,0.0019241427071392536,0.4176660180091858,0.9176626205444336,0.39729219675064087,0.007376190274953842,-0.2484579086303711,-0.04844573140144348,0.007592678070068359,0.6894791196612812,-0.14221177319637127,0.695315688556316,-0.1446739213189503,-0.4085642820811311,1.5788341734940974,-0.0018907678353265924
1773063916656923648,3.3348124027252197,-0.2521965503692627,-0.10779489576816559,0.2769152820110321,0.919039249420166,0.39409658312797546,0.007396756671369076,-0.2998833656311035,-0.051674097776412964,0.21396243572235107,0.6898357441802411,-0.14155306795400613,0.6954574806088568,-0.14292739262785709,-0.40508467148163774,1.5788445110001121,-0.0003313880532878132
1773063916666959616,3.344848394393921,0.27577605843544006,-0.18881911039352417,0.34960323572158813,0.9202388525009155,0.39131197333335876,0.005953924264758825,-0.22217977046966553,0.051696449518203735,0.27373969554901123,0.6905939077269894,-0.14059835327238132,0.6951324084661238,-0.14178539230943354,-0.4020568210512062,1.5772662139942761,-0.0003947940367418152
1773063916676996352,3.3548853397369385,0.5921606421470642,-0.22392889857292175,0.5073031187057495,0.9219458699226379,0.38731127977371216,0.0023692126851528883,-0.06293720006942749,0.02466067671775818,0.2837941646575928,0.6919214656424326,-0.13773710294000896,0.6944156513128085,-0.14163331083650313,-0.39771346923649825,1.573366116952328,-0.005102968148704679
1773063916687033344,3.364922285079956,0.5345094799995422,-0.2127721756696701,0.6061831116676331,0.9240855574607849,0.38218095898628235,-0.0019056262681260705,0.11044508218765259,-0.10099199414253235,0.08694285154342651,0.6934519449530162,-0.13383158080445479,0.6936398884584951,-0.14169414177608836,-0.3921552679410969,1.5687341546068883,-0.011746247386958866
1773063916697069312,3.3749582767486572,0.2572847902774811,-0.20900514721870422,0.5464896559715271,0.9262552261352539,0.37685438990592957,-0.005668387748301029,0.2488241195678711,-0.07981154322624207,-0.01837944984436035,0.6949605466923016,-0.13061223202747987,0.6928969987568586,-0.14093992205760797,-0.386397957689844,1.5646767204850782,-0.016079895546929873
1773063916707106560,3.384995460510254,-0.010491443797945976,-0.08260814845561981,0.4435180723667145,0.9281394481658936,0.3721553087234497,-0.007591630797833204,0.31018757820129395,-0.024987339973449707,-0.009666085243225098,0.6959318668324741,-0.12849582802115508,0.6925987343433844,-0.13955167210366815,-0.38133004411398375,1.5626171016992527,-0.017502867805320836
