time,seconds_elapsed,rotationRateX,rotationRateY,rotationRateZ,gravityX,gravityY,gravityZ,accelerationX,accelerationY,accelerationZ,quaternionW,quaternionX,quaternionY,quaternionZ,pitch,roll,yaw
1773062763883249920,0.023530960083007812,-0.16079606115818024,-0.18524321913719177,-0.019145406782627106,-0.13372860848903656,0.19912703335285187,-0.9708064198493958,-0.00303591787815094,0.006744548678398132,-0.009845435619354248,0.8417639619384121,-0.12075241803573451,-0.003956108794724366,-0.5261525519111029,-0.20046703465028004,-0.13688853866913775,-1.131072346302901
1773062763893285888,0.033566951751708984,-0.17775793373584747,-0.16438837349414825,-0.010232916101813316,-0.13542887568473816,0.200755313038826,-0.9702351689338684,0.01259562373161316,0.005009457468986511,-0.014612853527069092,0.8416284194592635,-0.12191957042764884,-0.004245065590443921,-0.5260982303772801,-0.20212886425196744,-0.1386874769559292,-1.1314229043023396
1773062763903321856,0.043602943420410156,-0.188944011926651,-0.15276527404785156,-0.027930952608585358,-0.13702675700187683,0.2025231420993805,-0.969643235206604,0.02794167399406433,0.006842717528343201,-0.001304030418395996,0.8414613738985063,-0.12312026502032904,-0.004446778062014442,-0.5260838918201921,-0.20393376785852124,-0.1403870714695843,-1.131878007434612
1773062763913358080,0.05363893508911133,-0.22926408052444458,-0.13976748287677765,0.005806283093988895,-0.1384814828634262,0.20451955497264862,-0.9690173268318176,0.0370715856552124,0.0020844191312789917,0.015251517295837402,0.8412892675704431,-0.12438181208348954,-0.004526661622815762,-0.5260617116468788,-0.20597286792830413,-0.141948057665034,-1.132331011434307
1773062763923394816,0.0636758804321289,-0.29125046730041504,-0.13626143336296082,0.06135023385286331,-0.1397245228290558,0.2071007788181305,-0.968290388584137,0.02847270667552948,-0.012535974383354187,0.03144657611846924,0.8412203434633515,-0.12583928162705005,-0.0043896129243703235,-0.5258264800347677,-0.20861055408039947,-0.14331098034764575,-1.1323355817163923
1773062763933430784,0.07371187210083008,-0.3283127546310425,-0.13905727863311768,0.05906249210238457,-0.14094164967536926,0.21021200716495514,-0.9674432277679443,0.014797240495681763,-0.028800249099731445,0.043386220932006836,0.8411780076474411,-0.127520501182608,-0.0041131799270346225,-0.5254912598016463,-0.21179180201336825,-0.144666933991323,-1.132183335756267
1773062763943467008,0.08374786376953125,-0.33675578236579895,-0.12553641200065613,0.07069305330514908,-0.14209026098251343,0.2135627567768097,-0.9665408730506897,0.0037541091442108154,-0.039536282420158386,0.04819071292877197,0.8411313923411807,-0.12928851507186806,-0.0037461664260678394,-0.5251364778518726,-0.21522041166190886,-0.14596354645302081,-1.132018334871837
1773062763953502976,0.09378385543823242,-0.30113711953163147,-0.09603141248226166,0.08775436878204346,-0.14299127459526062,0.2168012112379074,-0.9656866788864136,-0.00713995099067688,-0.043934375047683716,0.048526644706726074,0.8411386999210712,-0.13094152328338848,-0.0033148777704876844,-0.5247179427712033,-0.21853655087397952,-0.14700396600107277,-1.1316543678436652
1773062763963539712,0.10382080078125,-0.2439846247434616,-0.06794891506433487,0.06846456229686737,-0.14362794160842896,0.21957458555698395,-0.964965283870697,-0.009829699993133545,-0.029419541358947754,0.03857368230819702,0.8411734419213607,-0.13232146986024426,-0.002895215319350953,-0.524318478760184,-0.22137839007642796,-0.14775782125434936,-1.1312295011673617
1773062763973575936,0.11385679244995117,-0.17580105364322662,-0.04401002451777458,0.038143936544656754,-0.14406129717826843,0.22167348861694336,-0.9644206762313843,-0.0024230927228927612,-0.006616115570068359,0.012028098106384277,0.8411616634297415,-0.1333535824230416,-0.002547662882622161,-0.5240777803233808,-0.22353032935224326,-0.14827961343295998,-1.1310501239092874
1773062763983611904,0.12389278411865234,-0.15558724105358124,-0.007841968908905983,0.06310441344976425,-0.1442044973373413,0.22331316769123077,-0.9640209078788757,0.0017179399728775024,0.010863468050956726,0.008469760417938232,0.8411751772644821,-0.13410714464305262,-0.002197161018065754,-0.5238651140809305,-0.22521216091675847,-0.14848551465344376,-1.130821102065762
1773062763993647872,0.13392877578735352,-0.1528318077325821,0.017807401716709137,0.1037471815943718,-0.14394868910312653,0.22492828965187073,-0.963683545589447,0.005810871720314026,0.0050064027309417725,0.013366222381591797,0.8412981989817964,-0.13474159693917803,-0.0017071808783511663,-0.5235064607716404,-0.226869434783795,-0.14827707688714264,-1.130176316620158
1773062764003685120,0.1439659595489502,-0.1738353669643402,0.02998310886323452,0.1054643914103508,-0.14347928762435913,0.22663888335227966,-0.9633527398109436,0.004700601100921631,-0.003463834524154663,0.019367754459381104,0.8414661473904225,-0.13536022471072992,-0.0011118836008026352,-0.523078564508243,-0.22862538140961502,-0.14785060444027034,-1.1293469203814106
1773062764013721088,0.15400195121765137,-0.20424753427505493,0.04764868691563606,0.10450747609138489,-0.14284510910511017,0.2286359965801239,-0.962975025177002,0.0008315593004226685,-0.0197431743144989,0.03318071365356445,0.8416092177748259,-0.13606014818041534,-0.0003663451430698273,-0.5226676327591594,-0.23067633526605488,-0.147263437810623,-1.128575349142416
1773062764023757056,0.16403794288635254,-0.20526298880577087,0.051688969135284424,0.10758794844150543,-0.14214414358139038,0.23080046474933624,-0.9625623226165771,-0.002066671848297119,-0.03133757412433624,0.03334784507751465,0.8417387471522876,-0.13681608075943502,0.00045347822420162834,-0.5222615671656042,-0.23290027526736715,-0.1466130516624567,-1.1278307609100813
1773062764033793024,0.1740739345550537,-0.17182393372058868,0.04356333240866661,0.11833380162715912,-0.14142227172851562,0.23282448947429657,-0.9621810913085938,0.0007973015308380127,-0.02248208224773407,0.030647337436676025,0.8418976057223438,-0.13750603896566402,0.0012384209296858308,-0.5218226299765346,-0.2349809736666271,-0.14593601629482075,-1.1269828983098877
1773062764043830016,0.1841108798980713,-0.10851980745792389,0.057302046567201614,0.09867328405380249,-0.1406843364238739,0.2342960685491562,-0.9619320631027222,0.004789561033248901,-0.01618693768978119,0.011019587516784668,0.8420915713442324,-0.13795084070826116,0.0018811120570604775,-0.521390353818442,-0.23649441789353337,-0.14522227053874315,-1.1260617319018544
1773062764053865984,0.19414687156677246,-0.0965021625161171,0.07482224702835083,0.07020097970962524,-0.13984642922878265,0.23536500334739685,-0.9617933034896851,0.007308587431907654,-0.007352918386459351,-0.009352326393127441,0.8422396879849904,-0.13819270495073863,0.002477761337845037,-0.5210845603713079,-0.23759410932104447,-0.14438988326885918,-1.125360579487862
1773062764063901952,0.20418286323547363,-0.09949635714292526,0.07248905301094055,0.03328691050410271,-0.13899600505828857,0.2363644689321518,-0.9616714119911194,0.012073412537574768,0.008905291557312012,-0.02335965633392334,0.8423077186287588,-0.13840077660742767,0.0030834012277607273,-0.5209159799144152,-0.23862259002748254,-0.14354180843522452,-1.1249719118894483
1773062764073938944,0.2142198085784912,-0.13296157121658325,0.05768537521362305,-0.0011861573439091444,-0.13828814029693604,0.2375001609325409,-0.9614936709403992,0.01781998574733734,0.026019126176834106,-0.01557236909866333,0.842260742107379,-0.13870666772793006,0.0036914507274998396,-0.520906686677404,-0.23979156921276412,-0.14284675729593685,-1.1250070005728219
1773062764083974912,0.22425580024719238,-0.16890466213226318,0.056826505810022354,0.016735319048166275,-0.13774007558822632,0.2389799952507019,-0.9612056016921997,0.02748006582260132,0.015551865100860596,-0.004050135612487793,0.8421603564112771,-0.13920647639479652,0.004330369513371898,-0.5209305447434628,-0.2413152729844296,-0.1423303306179902,-1.12520210922022
1773062764094010880,0.23429179191589355,-0.13199344277381897,0.052649375051259995,0.07158724963665009,-0.13711445033550262,0.24055150151252747,-0.960902988910675,0.02569478750228882,-0.003796130418777466,-0.0027810335159301758,0.8421663992080075,-0.13972657901993618,0.004997775713893055,-0.5207755334600774,-0.24293399344547673,-0.14173651381024552,-1.1249736588666677
1773062764104046848,0.24432778358459473,-0.0625922679901123,0.07469209283590317,0.09260891377925873,-0.13630060851573944,0.24160949885845184,-0.960753321647644,0.011697351932525635,-0.007341325283050537,0.010344445705413818,0.8423140014162531,-0.13997210192747842,0.0055801750228648035,-0.5204648795840958,-0.24402414157635732,-0.14092802157484688,-1.1242620669290233
1773062764114084096,0.2543649673461914,0.0011487663723528385,0.11147720366716385,0.07311572879552841,-0.13520030677318573,0.24202008545398712,-0.9608054757118225,-0.00377674400806427,-0.010117009282112122,0.00497967004776001,0.8425071752043052,-0.13985671243619804,0.006112843800026759,-0.5201771436563782,-0.2444472977762503,-0.13979769912662912,-1.1234533102890942
1773062764124120064,0.2644009590148926,0.02261943742632866,0.13341552019119263,0.05814742669463158,-0.1338425725698471,0.24195881187915802,-0.9610109925270081,-0.016380205750465393,-0.00799579918384552,-0.006014764308929443,0.8426862233167118,-0.13946459852718437,0.006643463213559073,-0.5199859940216143,-0.2443841371447944,-0.13838252281452665,-1.1227558356269167
1773062764134156032,0.27443695068359375,0.009831137955188751,0.14055263996124268,0.063995860517025,-0.13236185908317566,0.24188415706157684,-0.9612348079681396,-0.019356265664100647,-0.0026568621397018433,0.0014417171478271484,0.8428514968903911,-0.13903360088268082,0.0072281950687130905,-0.5198256225177807,-0.2443072038679674,-0.13683927376106755,-1.1221090587705516
1773062764144192000,0.2844729423522949,0.013624011538922787,0.14303655922412872,0.08756057918071747,-0.1308038830757141,0.2418532818555832,-0.9614558219909668,-0.003732845187187195,-0.008287012577056885,0.014739573001861572,0.8430508295389509,-0.13860186437997005,0.007848643911225325,-0.5196087912682428,-0.24427538203267002,-0.13521755937267796,-1.1213229803011957
1773062764154228992,0.2945098876953125,0.007167843170464039,0.14037851989269257,0.11598174273967743,-0.12916254997253418,0.24190901219844818,-0.9616637229919434,0.00715327262878418,-0.02514265477657318,0.03484487533569336,0.8433121549612944,-0.1381872570779591,0.008510773752727432,-0.5192846184772593,-0.24433282028836356,-0.13351255352280592,-1.1202824458190779
1773062764164264960,0.30454587936401367,0.04409896582365036,0.14453890919685364,0.13483799993991852,-0.12751200795173645,0.24179048836231232,-0.9619137644767761,0.00216105580329895,-0.03855867683887482,0.03886383771896362,0.8436549679097516,-0.13769569372395124,0.009111698127284873,-0.5188480037603967,-0.24421066391587368,-0.13179237256485576,-1.1189484507572043
1773062764174300928,0.31458187103271484,0.07169869542121887,0.1679990142583847,0.14575299620628357,-0.125650554895401,0.24142737686634064,-0.9622498154640198,-0.006490543484687805,-0.03372475504875183,0.04199230670928955,0.8440516745133291,-0.13704166266118703,0.009729536272835433,-0.5183643293511272,-0.243836471864692,-0.12984529455276678,-1.1174321410379027
1773062764184336896,0.324617862701416,0.0940580666065216,0.20041313767433167,0.17427624762058258,-0.1234617754817009,0.24079792201519012,-0.9626907706260681,-0.0031251460313796997,-0.019881173968315125,0.025053441524505615,0.8445164225233549,-0.1361848453150171,0.01040636091527043,-0.5178199465799705,-0.2431878768990683,-0.12755031057919372,-1.1156803572000995
1773062764194373888,0.3346548080444336,0.07142791897058487,0.20665894448757172,0.19410912692546844,-0.12101888656616211,0.24022136628627777,-0.9631448984146118,-0.0010971948504447937,-0.0018485784530639648,0.019236266613006592,0.8450453263613401,-0.13528598590010543,0.01119134154050766,-0.517175764256291,-0.24259388345229954,-0.12499466361641375,-1.1136622590212384
1773062764204409856,0.34469079971313477,0.005592184141278267,0.21031467616558075,0.18946723639965057,-0.11852290481328964,0.24005474150180817,-0.9634968042373657,-0.011253096163272858,0.0025752484798431396,0.013042092323303223,0.8455652865139577,-0.13455510204121032,0.012105133009827202,-0.5164957071300851,-0.24242224493783607,-0.12239836903912302,-1.1116153570873517
1773062764214445824,0.35472679138183594,-0.08481600880622864,0.17321524024009705,0.1806947886943817,-0.11618848890066147,0.24067118763923645,-0.9636273384094238,-0.02558092027902603,-0.00332072377204895,0.022053241729736328,0.8459922081658189,-0.13421225943178042,0.013168451116411718,-0.5158593665136265,-0.2430573068636329,-0.11999482865496304,-1.1098149084637101
1773062764224481792,0.3647627830505371,-0.1271592080593109,0.14019204676151276,0.19479435682296753,-0.11425003409385681,0.24190329015254974,-0.9635505676269531,-0.03023543208837509,-0.026861175894737244,0.038990020751953125,0.8463926390415853,-0.13424801863021504,0.014218962800063026,-0.51516471498473,-0.244326915384811,-0.11802087248484362,-1.1080310537103706
1773062764234519040,0.3747999668121338,-0.1657947599887848,0.14227916300296783,0.2144964337348938,-0.11238833516836166,0.24359016120433807,-0.9633445143699646,-0.017036698758602142,-0.052946850657463074,0.037181854248046875,0.8468152576424325,-0.13450773227383167,0.015342812548186441,-0.5143696555716141,-0.2460657949913517,-0.11613972248371375,-1.1060875269822614
1773062764244555008,0.38483595848083496,-0.18412980437278748,0.16284728050231934,0.1948806494474411,-0.11041481792926788,0.24551987648010254,-0.9630828499794006,0.0014975890517234802,-0.04810166358947754,0.006158411502838135,0.8472195752072518,-0.13484691867720872,0.016579802194006045,-0.5135760157129914,-0.24805594699458886,-0.11414888929028039,-1.1041629108063615
1773062764254590976,0.39487195014953613,-0.18664437532424927,0.17219312489032745,0.19231203198432922,-0.10832130163908005,0.24752020835876465,-0.9628084897994995,0.0008536577224731445,-0.0061719417572021484,-0.003240644931793213,0.847574827645858,-0.13518644836303348,0.017898735462049727,-0.5128559014652636,-0.25011997791283,-0.11203444148961277,-1.1024010973655078
1773062764264626944,0.4049079418182373,-0.22152432799339294,0.1782587319612503,0.24431903660297394,-0.10608327388763428,0.24969221651554108,-0.962496817111969,-0.013927094638347626,0.024782881140708923,0.0011625885963439941,0.8479691215348656,-0.13556781486995292,0.01931209670925675,-0.5120514729014184,-0.25236239115862974,-0.10977368421102407,-1.1004394148367507
1773062764274663936,0.4149448871612549,-0.3470449447631836,0.23842167854309082,0.4908510446548462,-0.10335249453783035,0.2527116537094116,-0.9620057344436646,-0.018290556967258453,0.01636180281639099,0.016708552837371826,0.8486252914101952,-0.13620857821919166,0.02107950648694993,-0.5107229815907761,-0.25548186827554176,-0.10702388400763081,-1.0972781214175955
1773062764284699904,0.42498087882995605,-0.3428768515586853,0.11636180430650711,0.5958612561225891,-0.10042738914489746,0.25679314136505127,-0.9612343907356262,-0.006170511245727539,-0.010958820581436157,0.033912062644958496,0.8498301786922443,-0.13730203621371756,0.023042154317046357,-0.5083363237185314,-0.25970262051273235,-0.10409984724360799,-1.0917402405370589
1773062764294735872,0.4350168704986572,-0.3173293471336365,0.28242790699005127,0.18990768492221832,-0.09749710559844971,0.2603578269481659,-0.9605769515037537,0.03876602649688721,-0.036755532026290894,0.05896562337875366,0.8507536329344302,-0.138163026137882,0.02494983486067379,-0.5064648487035035,-0.26339278720027326,-0.10115207982256166,-1.0873424274594368
1773062764304771840,0.4450528621673584,-0.23571144044399261,0.09529557079076767,-0.31882426142692566,-0.09598377346992493,0.26286008954048157,-0.9600477814674377,0.08057238906621933,-0.06487730145454407,0.049281179904937744,0.8501511465114353,-0.13885129855942505,0.026390096968135105,-0.5072149728072769,-0.26598534089616954,-0.09964699193361795,-1.0891991346746233
1773062764314808832,0.455089807510376,-0.2528612017631531,0.21030747890472412,0.2223740518093109,-0.09471803903579712,0.26516735553741455,-0.9595388174057007,0.02629762887954712,-0.05899059772491455,-0.015406250953674316,0.8498295369050087,-0.13953115595654536,0.027597822795810217,-0.507502885025169,-0.2683774758035935,-0.09839328547666583,-1.0899833285812872
1773062764324844800,0.46512579917907715,-0.1553889811038971,0.16580472886562347,0.37690451741218567,-0.09201113879680634,0.26750558614730835,-0.9591531157493591,0.044205352663993835,-0.08948129415512085,-0.04125887155532837,0.8504862359762434,-0.13990068967741393,0.029175926349074198,-0.5062111860190602,-0.27080333611854074,-0.09563691427992542,-1.0868072244373084
1773062764334880768,0.4751617908477783,0.004674059338867664,0.21479962766170502,0.3389146029949188,-0.08925402164459229,0.2685251533985138,-0.959128737449646,0.07144701480865479,0.019988030195236206,-0.057259202003479004,0.851343688565592,-0.13968386600286387,0.03039807334344464,-0.5047556429738103,-0.2718616250978318,-0.0927901669344631,-1.0830548440061076
1773062764344916736,0.4851977825164795,0.021734535694122314,0.20367294549942017,0.35754793882369995,-0.08623724430799484,0.2685920298099518,-0.9593859910964966,-0.01068657636642456,0.10567554831504822,-0.08507812023162842,0.8522013407618825,-0.1389768460593236,0.03150317025424938,-0.5034339735840859,-0.2719310639623548,-0.08964702903846836,-1.079446185658839
1773062764354953984,0.49523496627807617,-0.203963503241539,0.19737380743026733,0.29067057371139526,-0.08338169008493423,0.2696171700954437,-0.9593508839607239,-0.06426236033439636,0.053350359201431274,-0.07417267560958862,0.8529154585592892,-0.13873747183973087,0.03280973781885989,-0.5022059161063316,-0.2729954442402007,-0.08669683071898952,-1.076218587950759
1773062764364989952,0.5052709579467773,-0.6240542531013489,0.16042830049991608,0.22998808324337006,-0.08091412484645844,0.27373889088630676,-0.958394467830658,-0.025241278111934662,-0.03997424244880676,-0.02202850580215454,0.8532692701788692,-0.13997243874176768,0.034792054284884286,-0.5011275958808994,-0.2772782529064058,-0.08422700133394878,-1.0738217452030046
1773062764375025920,0.5153069496154785,-1.0270673036575317,0.14282090961933136,0.3493146002292633,-0.07894901931285858,0.28190430998802185,-0.9561887979507446,0.0057068392634391785,-0.12496766448020935,0.05352461338043213,0.8533064649583472,-0.14314688097050976,0.037610816364197774,-0.4999624345794837,-0.28577833944476305,-0.08237949206044413,-1.0718508702255853
1773062764385061888,0.5253429412841797,-1.3775782585144043,0.0652930960059166,0.9072551131248474,-0.07597733289003372,0.29401203989982605,-0.9527771472930908,0.035800956189632416,-0.17432212829589844,0.1152833104133606,0.8539955225996562,-0.1479181481748992,0.04161290384923821,-0.49707152248406916,-0.298421720732537,-0.07957463653360307,-1.0662071583749015
1773062764395098880,0.5353798866271973,-1.4133089780807495,-0.044503577053546906,1.011901617050171,-0.07296782732009888,0.3082893192768097,-0.9484900832176208,0.09216339141130447,-0.2229163944721222,0.13982003927230835,0.8553300841516629,-0.15377709137639745,0.0459083521743537,-0.49260074070432786,-0.3133942399174207,-0.07677928567569864,-1.057185496404075
1773062764405134848,0.5454158782958984,-1.371114730834961,-0.01185588538646698,1.1884793043136597,-0.06992857158184052,0.32214149832725525,-0.944105327129364,0.16544857621192932,-0.27107030153274536,0.127790629863739,0.8568111772700074,-0.15952016248390516,0.050006526014391706,-0.4877780748940801,-0.3279906976223748,-0.07393360884673832,-1.0473123010181915
1773062764415170816,0.5554518699645996,-1.7700377702713013,0.06481332331895828,1.7462722063064575,-0.06471554934978485,0.33764246106147766,-0.93904709815979,0.09982602298259735,-0.36426904797554016,0.05684494972229004,0.8590473866676326,-0.16564451850398884,0.05512115721734996,-0.4812079573904932,-0.34441114368388315,-0.06880739551982368,-1.0331993681031175
1773062764425207808,0.5654888153076172,-2.5220673084259033,0.027242515236139297,2.083311080932617,-0.05753197520971298,0.35887935757637024,-0.9316091537475586,0.06842675805091858,-0.3975299000740051,0.02061372995376587,0.8618051407818105,-0.17418546542636737,0.06208732288728295,-0.47233080405052014,-0.3670670053606967,-0.06167715481756284,-1.0141748043526273
1773062764435243776,0.5755248069763184,-3.437793016433716,-0.13650453090667725,2.2184014320373535,-0.049860067665576935,0.3876339793205261,-0.9204639196395874,0.24534040689468384,-0.4053952395915985,0.08242076635360718,0.8641473008587031,-0.18641860408078437,0.07082464389599537,-0.4620405714636163,-0.39806350686498804,-0.054115520833598364,-0.9929251333070293
1773062764445279744,0.5855607986450195,-4.463360786437988,-0.3464934527873993,2.3261523246765137,-0.0427984781563282,0.42484956979751587,-0.9042516946792603,0.3552679419517517,-0.48683077096939087,0.14593565464019775,0.8654984621899449,-0.2032249830504611,0.08107869323100725,-0.450597763944769,-0.43879571363272474,-0.04729497504313867,-0.9705660773576383
1773062764455315712,0.5955967903137207,-5.394600868225098,-0.6289915442466736,2.5497889518737793,-0.03626129776239395,0.47014787793159485,-0.8818424344062805,0.36931487917900085,-0.5809876918792725,0.14348489046096802,0.8657445702127554,-0.2247224889478821,0.09262061738864169,-0.4375015891400961,-0.48945832761983776,-0.04109677663234795,-0.9460971402769409
1773062764465352960,0.6056339740753174,-6.077974319458008,-0.7911559343338013,2.836851119995117,-0.029119329527020454,0.521051287651062,-0.8530284762382507,0.3870600163936615,-0.6241702437400818,0.138413667678833,0.865003288609892,-0.24986465779771166,0.10513518552075908,-0.42223637041732587,-0.5480822029119785,-0.034123159192055094,-0.9178108558487602
1773062764475388928,0.6156699657440186,-6.67114782333374,-0.8586611151695251,3.0517468452453613,-0.019821271300315857,0.5753228664398193,-0.8176862001419067,0.39236462116241455,-0.5813653469085693,0.17291080951690674,0.8630683050770019,-0.2775885357668012,0.11874973830610278,-0.4049150334689782,-0.6129988019741864,-0.02423593613261285,-0.8850116353923949
1773062764485424896,0.6257059574127197,-7.094043731689453,-0.9856776595115662,3.0961785316467285,-0.008406061679124832,0.6309192776679993,-0.7758029103279114,0.3881362974643707,-0.49499398469924927,0.21302825212478638,0.8595801740018121,-0.3072248462809418,0.13308431241532387,-0.3860354030641012,-0.6827375198444419,-0.010834881813093241,-0.848055866457573
1773062764495460864,0.6357419490814209,-7.078620433807373,-1.316908359527588,3.1615707874298096,0.0036392672918736935,0.6848061084747314,-0.7287161946296692,0.34215542674064636,-0.42885518074035645,0.2800162434577942,0.8547252707350161,-0.33781710252875374,0.14670208180816413,-0.3657906660258071,-0.7543376301627864,0.004994038865429491,-0.8067767498496091
1773062764505497856,0.6457788944244385,-6.457257270812988,-1.8858394622802734,3.2457923889160156,0.015272513963282108,0.7325711250305176,-0.680519163608551,0.2869125306606293,-0.39176613092422485,0.292884886264801,0.8496241705373041,-0.36724069667215803,0.15771715578400577,-0.34409054281116896,-0.8220915189421164,0.022438679290784736,-0.7598230674399181
1773062764515533824,0.6558148860931396,-5.873348236083984,-1.9470782279968262,3.186124324798584,0.026686694473028183,0.7723935842514038,-0.6345832943916321,0.3224038779735565,-0.3224272131919861,0.23571860790252686,0.8448761596353145,-0.3939795505399112,0.16579642878096124,-0.32167685428941556,-0.8826011677401225,0.04202912218190897,-0.7077287693106936
1773062764525569792,0.6658508777618408,-5.258825302124023,-1.8019447326660156,3.0295114517211914,0.03966335207223892,0.8057742118835449,-0.5908931493759155,0.4446658492088318,-0.14668607711791992,0.1139492392539978,0.8398945887624102,-0.41791922794318476,0.17290729657323267,-0.30003938077748804,-0.9369815735893421,0.0670238632042652,-0.6522823802292356
1773062764535606016,0.675886869430542,-4.220834732055664,-1.4727967977523804,2.9964799880981445,0.055004656314849854,0.8316602110862732,-0.5525537729263306,0.49136680364608765,0.15927600860595703,-0.03378039598464966,0.8354494716119607,-0.43761355523994216,0.17949229117911644,-0.2798231692438612,-0.9820908961448637,0.09921937192046419,-0.593299882857455
1773062764545642752,0.6859238147735596,-3.325498342514038,-1.2615313529968262,2.977081060409546,0.07294664531946182,0.84987872838974,-0.5219050645828247,0.3064021170139313,0.37758398056030273,0.019677340984344482,0.8323651085779497,-0.45230835640251144,0.1856464635352996,-0.2609996392718014,-1.0157550867940808,0.13887029638662365,-0.5303299246594364
1773062764555678720,0.6959598064422607,-3.288536787033081,-1.144844889640808,2.8719398975372314,0.09205596894025803,0.864039957523346,-0.49493491649627686,0.11106903851032257,0.3912547826766968,-0.04907140135765076,0.8296605175036801,-0.46455187740071346,0.1916353311087075,-0.24316828817999853,-1.0432402412291433,0.1838947389427775,-0.46433059223954715
1773062764565714944,0.7059957981109619,-3.782625675201416,-1.2334847450256348,2.7143213748931885,0.11085839569568634,0.8782029747962952,-0.4652634859085083,-0.03433559089899063,0.32093948125839233,-0.1123121976852417,0.8256812922906878,-0.47780430700479515,0.19766462569039034,-0.22557097943872131,-1.0720919118996082,0.23390869643868342,-0.39400397045803587
1773062764575750912,0.7160317897796631,-3.92331600189209,-1.582493782043457,2.514665126800537,0.12782487273216248,0.8926321268081665,-0.4322829842567444,-0.14433486759662628,0.2562935948371887,-0.10471957921981812,0.8203604466900043,-0.49272915738786505,0.2026733325706376,-0.2077261914390496,-1.103150839164933,0.2875046060951961,-0.31834694497655464
1773062764585787904,0.7260689735412598,-3.3418328762054443,-1.8619760274887085,2.3401787281036377,0.14239487051963806,0.9045858979225159,-0.40180614590644836,-0.13813766837120056,0.15953153371810913,-0.16580551862716675,0.8153609626109127,-0.5068552039179532,0.20541355441762132,-0.1899729107403456,-1.1304073533025605,0.3405776898572192,-0.24056156805121348
1773062764595824128,0.7361049652099609,-2.7652182579040527,-1.812470555305481,2.3759496212005615,0.15656177699565887,0.9130452871322632,-0.37661200761795044,-0.020239755511283875,0.04056793451309204,-0.24010244011878967,0.8114445125363979,-0.5185412466983759,0.20690330857484399,-0.17281106293289034,-1.150689216353876,0.39397662142430695,-0.16223104520378817
1773062764605860096,0.7461409568786621,-2.005124568939209,-1.5642565488815308,2.4468798637390137,0.17257001996040344,0.9178507924079895,-0.35744890570640564,0.11037369072437286,0.07160550355911255,-0.27957502007484436,0.8088528385187022,-0.5270214288196453,0.20862395644631684,-0.1564662500726401,-1.1626314455968167,0.44977885116197575,-0.08378553942512823
1773062764615896064,0.7561769485473633,-1.424878716468811,-1.294526219367981,2.358794689178467,0.18976542353630066,0.9194130897521973,-0.344482958316803,0.12018635869026184,0.3080190420150757,-0.13943424820899963,0.8075833955028092,-0.5322731095321693,0.21081710633111977,-0.14159964638313627,-1.1665856162034784,0.5035111072381901,-0.010889023863452708
1773062764625933056,0.7662138938903809,-1.3909246921539307,-0.9853454828262329,2.2408812046051025,0.20709848403930664,0.919492781162262,-0.33413082361221313,0.00011587142944335938,0.4640216827392578,-0.04845282435417175,0.8065974431169025,-0.5359935159676882,0.2136481835099314,-0.12832027893186673,-1.1667882670958887,0.5548603432255679,0.056050887634492765
1773062764635969024,0.776249885559082,-1.963415503501892,-0.7489611506462097,2.1213486194610596,0.22442282736301422,0.9201692938804626,-0.32081592082977295,-0.17736472189426422,0.37965065240859985,0.02723681926727295,0.8043301176710588,-0.5406370002773893,0.21749408045713,-0.1160217000802435,-1.1685127078492026,0.6104156318891863,0.12427528540820748
1773062764646004992,0.7862858772277832,-2.529578924179077,-0.7276740074157715,1.9584065675735474,0.24105682969093323,0.9225216507911682,-0.3014058470726013,-0.3145584464073181,0.1540774703025818,0.1162557303905487,0.7999254913694457,-0.5477703252797121,0.22191158866985752,-0.10402958266025518,-1.1745639454096521,0.6746037012278019,0.2000153779557203
1773062764656040960,0.7963218688964844,-2.713226079940796,-0.8326284289360046,1.7485694885253906,0.2559192180633545,0.9255786538124084,-0.27894356846809387,-0.3520343005657196,-0.11646610498428345,0.20068126916885376,0.7943223814058888,-0.5563812875888243,0.2257611109985788,-0.09232427790925392,-1.1825614069635362,0.7423774918058097,0.2798134458180143
1773062764666077952,0.806358814239502,-2.616960048675537,-0.8343203663825989,1.6783547401428223,0.2694897949695587,0.9282964468002319,-0.2562048137187958,-0.2882276177406311,-0.3206457495689392,0.20620179176330566,0.7883692985164575,-0.5651836161227113,0.22905254128266572,-0.0810941543485357,-1.1898049739157128,0.810664074633962,0.36017020119957077
1773062764676113920,0.8163948059082031,-2.2336337566375732,-0.6543996334075928,1.747550368309021,0.28359222412109375,0.9295921921730042,-0.2354440689086914,-0.13126376271247864,-0.35825735330581665,0.2179574966430664,0.7827993624168251,-0.572860534985695,0.2326129231796792,-0.07033672056006651,-1.1933048720450528,0.8778979780208526,0.4381820824647685
1773062764686149888,0.8264307975769043,-1.569027304649353,-0.34598636627197266,1.6036629676818848,0.29825854301452637,0.9289606809616089,-0.2192572057247162,0.010884493589401245,-0.11690330505371094,0.2764165997505188,0.7783917839374292,-0.5781127629402649,0.23697475305836901,-0.06111252216759753,-1.191595312891278,0.9368836302112855,0.5042665092036387
1773062764696185856,0.8364667892456055,-1.2240455150604248,-0.027012832462787628,1.2900463342666626,0.31132206320762634,0.9274781942367554,-0.20703312754631042,0.03723442554473877,0.19747596979141235,0.31129640340805054,0.774950457738444,-0.581415813414095,0.24174178325828352,-0.05448229634874881,-1.1876103929115738,0.9839396706129218,0.5539012641485846
1773062764706223104,0.8465039730072021,-1.0792555809020996,0.2568095624446869,1.145962119102478,0.3227558434009552,0.9259620904922485,-0.1960170418024063,-0.05214124917984009,0.4206717014312744,0.2888972759246826,0.7716894096418183,-0.5839422689834102,0.24698765541735454,-0.05003891722634959,-1.183575561640625,1.02500964760786,0.5936155310224677
1773062764716259072,0.8565399646759033,-1.2467248439788818,0.4492911100387573,1.1320087909698486,0.3339869976043701,0.9243869781494141,-0.18428660929203033,-0.17167925834655762,0.5478268265724182,0.35207223892211914,0.7680976868219549,-0.5863981535960511,0.2529701583909082,-0.0465763588058767,-1.1794254210161352,1.0665892412179838,0.6312955954385031
1773062764726295040,0.8665759563446045,-1.605831265449524,0.5095352530479431,1.1156095266342163,0.34529396891593933,0.9230796694755554,-0.16939951479434967,-0.18660253286361694,0.5081033110618591,0.371502161026001,0.7634328336169554,-0.5898554862195626,0.25955875851441895,-0.043245664655880374,-1.1760123559077198,1.1147009481778578,0.6744434763574969
1773062764736331008,0.8766119480133057,-1.8238472938537598,0.4847604036331177,1.0959432125091553,0.3563387095928192,0.9219666123390198,-0.15165938436985016,-0.11315938830375671,0.3289337754249573,0.31978070735931396,0.7577989485125909,-0.594397168810485,0.2661997668158901,-0.03963098979314164,-1.1731283454974903,1.1684137239694838,0.7235516204826244
1773062764746368000,0.8866488933563232,-1.8919302225112915,0.411953866481781,1.0865044593811035,0.36706632375717163,0.9206728339195251,-0.13275504112243652,-0.02449125051498413,0.13285493850708008,0.23018240928649902,0.75173401119365,-0.5994249290922984,0.2726027099322304,-0.03568682115110452,-1.1698007994061828,1.223767569395503,0.7751144559196218
1773062764756403968,0.8966848850250244,-1.8202446699142456,0.3648262619972229,1.036988377571106,0.37742021679878235,0.9189903736114502,-0.1140647903084755,0.06217026710510254,-0.028914690017700195,0.10910570621490479,0.7456764181245468,-0.6043989339351828,0.27869254620116063,-0.031608851080841625,-1.1655120933485854,1.2773020140052922,0.8254690345551613
1773062764766439680,0.9067206382751465,-1.896672010421753,0.24041080474853516,0.8429754972457886,0.38639089465141296,0.9173519611358643,-0.0957469716668129,0.10727673768997192,-0.07102322578430176,0.04624748229980469,0.7396591150146825,-0.609402716735562,0.2841739653912193,-0.027890297249786075,-1.16137652543224,1.3278909989487206,0.8732486057244622
1773062764776475648,0.9167566299438477,-1.4613949060440063,0.21415910124778748,0.810609757900238,0.3942562937736511,0.9156010150909424,-0.07897330820560455,0.08648708462715149,0.014986753463745117,0.027230747044086456,0.734091830804172,-0.6140202827602474,0.28895058252859757,-0.024409801659583254,-1.157000083297514,1.3731031285777042,0.9163266858301716
1773062764786512640,0.9267935752868652,-1.0828819274902344,0.19641205668449402,0.640254557132721,0.4010457396507263,0.913607656955719,-0.06695762276649475,-0.008803308010101318,0.147061288356781,0.10875147581100464,0.7300663313812641,-0.6168848999062236,0.2932135864409371,-0.021953029348567948,-1.1520702246604158,1.4053646165828795,0.9456645765918769
1773062764796548608,0.9368295669555664,-1.2203528881072998,0.2598116993904114,0.5713289380073547,0.4067177474498749,0.9118661284446716,-0.05550506338477135,-0.03951504826545715,0.24862581491470337,-0.052008386701345444,0.7261870863969336,-0.6196107429170632,0.2972036279120389,-0.020119985648917742,-1.1478074202026247,1.4351634932523953,0.9720454335472313
1773062764806584576,0.9468655586242676,-1.3034757375717163,0.2131781280040741,0.5207634568214417,0.41181206703186035,0.910264253616333,-0.042776357382535934,-0.08292415738105774,0.3436267375946045,-0.17624831199645996,0.721840717170387,-0.6228924972179364,0.3010261740430086,-0.018280703893119643,-1.143921916177193,1.4672940205409015,1.0010291049462243
1773062764816620544,0.9569015502929688,-1.0820025205612183,0.22438187897205353,0.44402220845222473,0.41631442308425903,0.9086873531341553,-0.03113730065524578,-0.17156347632408142,0.38293856382369995,-0.10840433835983276,0.7178378451440217,-0.6258677779750351,0.30450102486553676,-0.01665709761747872,-1.1401290060326827,1.4961425753113282,1.026926553579193
1773062764826657536,0.9669384956359863,-1.2120490074157715,0.30146363377571106,0.37369292974472046,0.42011740803718567,0.9072564244270325,-0.019669778645038605,-0.22094449400901794,0.22424370050430298,-0.05779910087585449,0.7138576041162822,-0.6287481942715406,0.30796236590817927,-0.01555880872875353,-1.1367140874360413,1.5240107742982998,1.0510961309229454
1773062764836693504,0.9769744873046875,-1.1388283967971802,0.25714388489723206,0.33530300855636597,0.4233121871948242,0.9059528708457947,-0.0074776215478777885,-0.2223082184791565,0.0772165060043335,0.00901872105896473,0.709620000401117,-0.632503405296487,0.31016226649888473,-0.01334577890392313,-1.1336249101877216,1.5531336089649397,1.0800737490731198
1773062764846729472,0.9870104789733887,-0.6271811723709106,0.17173470556735992,0.40217843651771545,0.42666858434677124,0.9044067859649658,0.00161075871437788,-0.18770065903663635,0.1764649748802185,0.18883419036865234,0.706425306019005,-0.6345540798989661,0.31328341651732833,-0.01257110622327382,-1.1299872710414096,1.5745715078395528,1.0978170506409768
1773062764856765696,0.997046709060669,-0.12937968969345093,0.16248486936092377,0.4390034079551697,0.4304952323436737,0.9025754928588867,0.005609678104519844,-0.1180562674999237,0.3379030227661133,0.2409571409225464,0.7050145384893933,-0.6346208027202185,0.3163246365835051,-0.012236989173381719,-1.1257146570423426,1.5838263441281413,1.1027975043568763
1773062764866802688,1.0070836544036865,0.11621543020009995,0.24660080671310425,0.46604064106941223,0.4345853626728058,0.9006078839302063,0.006419078446924686,-0.04232761263847351,0.38183242082595825,0.15237915515899658,0.7047231313220355,-0.6333185797437777,0.31955768776787064,-0.012485040397919886,-1.1211661165123645,1.5855658339367211,1.0990815365342121
1773062764876838656,1.0171196460723877,0.10664690285921097,0.29208463430404663,0.46108660101890564,0.43879905343055725,0.8985621333122253,0.006449347827583551,-0.03944602608680725,0.35200250148773193,0.10048425197601318,0.70470227170553,-0.631569480716881,0.32302424831810184,-0.01304114835501593,-1.1164819210676196,1.5854929936410103,1.0927229084772865
1773062764886874624,1.0271556377410889,-0.2896367907524109,0.2955874800682068,0.4118655025959015,0.4427507221698761,0.8966050744056702,0.008451389148831367,-0.09387373924255371,0.20443874597549438,0.07501423358917236,0.7039852887613705,-0.6305999611801043,0.3264496647765777,-0.01338470676573607,-1.1120425445897233,1.5898823779193372,1.0912066965495646
1773062764896910592,1.03719162940979,-0.7736988663673401,0.24991250038146973,0.2895030677318573,0.44589975476264954,0.894967257976532,0.014389395713806152,-0.13613110780715942,-0.008645236492156982,0.03848230838775635,0.7018771350142381,-0.631363457104895,0.329507030254549,-0.013183496355904187,-1.1083578072172615,1.6030556053163396,1.099876547969502
1773062764906947584,1.0472285747528076,-1.433020830154419,0.16362369060516357,0.2282133549451828,0.4481024742126465,0.8936281800270081,0.02515863999724388,-0.1522192656993866,-0.16248804330825806,-0.04778742790222168,0.6980489464352293,-0.6342951581691388,0.33203760612372835,-0.012182447417368845,-1.1053652883944305,1.6268822791149486,1.1212258335676566
1773062764916983552,1.0572645664215088,-2.111341714859009,0.011087880469858646,0.29164156317710876,0.45031484961509705,0.8919069170951843,0.04145512357354164,-0.13110101222991943,-0.22961443662643433,-0.13369452953338623,0.6922294956139479,-0.6396301662072668,0.33406707862048013,-0.009526839453850982,-1.1015446448458195,1.66259567411477,1.1576445306446919
1773062764927019520,1.06730055809021,-2.677299737930298,-0.12392213940620422,0.4233178496360779,0.45355162024497986,0.8890231251716614,0.06267997622489929,-0.08978208899497986,-0.20622283220291138,-0.18662714958190918,0.6845693723131283,-0.6468887458842342,0.33596865545366844,-0.0049746459431980515,-1.095207109774133,1.7081245756524575,1.2067622726102873
1773062764937055488,1.0773365497589111,-3.051262855529785,-0.2118978649377823,0.4904176890850067,0.4578028619289398,0.8847384452819824,0.08748812973499298,-0.058587223291397095,-0.15536844730377197,-0.21276283264160156,0.6754640643108478,-0.6559239437985223,0.3369092506637815,0.002029707660896614,-1.085932554382759,1.7596239505054534,1.2667940027508697
1773062764947092480,1.0873734951019287,-3.1792194843292236,-0.24852004647254944,0.49006137251853943,0.46242111921310425,0.8792744278907776,0.11420799791812897,-0.05458417534828186,-0.14001649618148804,-0.22103475034236908,0.6654325399773423,-0.6656419047363653,0.3376756647595842,0.00978030539699611,-1.0743367435645348,1.812929060951284,1.3298692096101241
1773062764957128448,1.0974094867706299,-2.9691038131713867,-0.2538279891014099,0.46906721591949463,0.46696028113365173,0.8730911016464233,0.1402134746313095,-0.07429066300392151,-0.1391282081604004,-0.2111516147851944,0.6554299743307743,-0.6750534196256104,0.3382449050406582,0.01745683610207909,-1.061506789854835,1.8624994404693518,1.3893177059774817
1773062764967164672,1.1074457168579102,-2.537213087081909,-0.26221004128456116,0.4545564651489258,0.47137483954429626,0.8667088747024536,0.16316042840480804,-0.08848607540130615,-0.10842341184616089,-0.17611515522003174,0.6463883579146713,-0.6832783866135641,0.33868991736590887,0.02453202789468419,-1.0485661414393148,1.904025871696406,1.439999079800564
1773062764977200640,1.1174817085266113,-1.940726637840271,-0.25043025612831116,0.4595223665237427,0.475768506526947,0.8606579899787903,0.18141695857048035,-0.06706184148788452,-0.017457306385040283,-0.11015845835208893,0.6390213175331342,-0.6897171628179928,0.33911460012581673,0.030712287970914298,-1.036560470135354,1.9350906006359323,1.4789636571751257
1773062764987237632,1.127518653869629,-1.3468366861343384,-0.2219562977552414,0.45737504959106445,0.48017799854278564,0.8553665280342102,0.19436322152614594,-0.017897725105285645,0.12493425607681274,-0.05975022912025452,0.6336702108843575,-0.6941122259632367,0.3396907851350932,0.03578248573920817,-1.026257962310135,1.9554108256949156,1.5053942099738231
1773062764997273600,1.13755464553833,-0.883518397808075,-0.16512346267700195,0.43688255548477173,0.48442453145980835,0.8509783744812012,0.20290054380893707,0.02079397439956665,0.22003597021102905,-0.028629913926124573,0.6300524160850576,-0.6968249094762259,0.34041933108167927,0.03979513284392741,-1.0178453427426775,1.9674451977934406,1.52183779102063
1773062765007309568,1.1475906372070312,-0.6576130986213684,-0.11783451586961746,0.4208116829395294,0.48835548758506775,0.8473511934280396,0.20857831835746765,0.02400413155555725,0.21560657024383545,0.015893682837486267,0.6275901746592875,-0.6984208532947913,0.34131725591031675,0.04291163583943188,-1.0109771859203949,1.974447277072352,1.5317421057006249
1773062765017345792,1.1576266288757324,-0.7384611368179321,-0.09954702109098434,0.42761585116386414,0.4921731650829315,0.8438016772270203,0.21392589807510376,0.006102561950683594,0.14806532859802246,0.04826591908931732,0.6252508845759168,-0.6998490903570845,0.3423071662130675,0.04580805013091674,-1.0043282853104327,1.9808169652426746,1.5405567571564702
1773062765027382528,1.16766357421875,-0.8535946607589722,-0.07609069347381592,0.4710509181022644,0.49615898728370667,0.8398477435112,0.22018620371818542,-0.012348562479019165,0.06650906801223755,0.05462455749511719,0.6225081227346497,-0.7015401468420811,0.34341596174594147,0.048892798891511074,-0.9970026727943725,1.9884669730834819,1.5507113513644837
1773062765037418496,1.1776995658874512,-1.0491669178009033,-0.06205600127577782,0.5194705128669739,0.5004398822784424,0.8352665305137634,0.2277929186820984,-0.027814209461212158,0.008391857147216797,0.03188107907772064,0.6191685775792614,-0.7036149877451442,0.3447062646712449,0.05228521145514155,-0.9886172930609096,1.9979540368650466,1.562822340811924
1773062765047454720,1.1877355575561523,-1.309068202972412,-0.08208297938108444,0.5767641663551331,0.5051587820053101,0.8297731280326843,0.2372574359178543,-0.03323495388031006,-0.037246882915496826,-0.03117227554321289,0.6149836727612743,-0.7062964047747439,0.3460839592326973,0.05627014753253539,-0.9787010457395985,2.0098861005442927,1.578038597705917
1773062765057490688,1.1977715492248535,-1.4909255504608154,-0.07594818621873856,0.6522500514984131,0.5104615092277527,0.8232025504112244,0.24852874875068665,-0.04505324363708496,-0.04439401626586914,-0.06092192232608795,0.6099405062689459,-0.7095268597771254,0.34761473932563014,0.060894724947141855,-0.9670289399606966,2.0238854242291793,1.595938775182086
1773062765067527424,1.207808494567871,-1.5822674036026,-0.026221374049782753,0.683776319026947,0.5161117315292358,0.8158136010169983,0.26091450452804565,-0.07049417495727539,-0.04538226127624512,-0.055500805377960205,0.604326439678858,-0.7130270196336629,0.34935615964351097,0.06581898416247654,-0.954134691731057,2.0388651454134994,1.6148685116947281
1773062765077563648,1.2178444862365723,-1.6971043348312378,0.03705882653594017,0.685316801071167,0.5216916799545288,0.8078396916389465,0.27428528666496277,-0.09581899642944336,-0.07402938604354858,-0.04270273447036743,0.5982073165285476,-0.7167612887816589,0.35127753364381603,0.0707474808125074,-0.9404776035835073,2.054839945335165,1.63446977245631
1773062765087599872,1.2278807163238525,-1.7501870393753052,0.0646534413099289,0.708189070224762,0.5271489024162292,0.7992922067642212,0.28852352499961853,-0.10945487022399902,-0.06523770093917847,-0.038844019174575806,0.5916161768616405,-0.7207158727836023,0.35331345359932115,0.0756865373891987,-0.9261164685080594,2.0715860546460205,1.6546290333638296
1773062765097635840,1.2379167079925537,-1.771209478378296,0.015882235020399094,0.7061448693275452,0.532672643661499,0.7903136610984802,0.302761435508728,-0.09633231163024902,-0.01557910442352295,-0.03673970699310303,0.5848937021859426,-0.7246538998073905,0.3553272306243244,0.08073877009495879,-0.911320720302729,2.08764261863234,1.6742675740355695
1773062765107672576,1.2479536533355713,-1.8800702095031738,-0.046393390744924545,0.7242013812065125,0.5383435487747192,0.7807956337928772,0.31708723306655884,-0.047376811504364014,0.008175194263458252,-0.03872111439704895,0.5779582062856078,-0.7287050807866927,0.357116955963699,0.08614335160009655,-0.8959382965853125,2.10309230088171,1.6941324899297743
1773062765117708800,1.2579896450042725,-1.7777451276779175,-0.07560017704963684,0.7431869506835938,0.5442776083946228,0.7707866430282593,0.3311345875263214,0.011890053749084473,0.013133823871612549,-0.041431158781051636,0.5709669710369427,-0.7326810112415294,0.358811689217331,0.0918123601388781,-0.8800749314351084,2.1173641826246565,1.7133328937010044
1773062765127744768,1.2680256366729736,-1.562958002090454,-0.10646940767765045,0.7179883718490601,0.5502368211746216,0.7611008882522583,0.34346073865890503,0.04769408702850342,0.02899932861328125,-0.018784135580062866,0.5646328584369654,-0.7360693348758266,0.36046123345773945,0.0972600873816343,-0.8650086633357145,2.12882393673681,1.7295096756611503
1773062765137780736,1.2780616283416748,-1.2703901529312134,-0.12209048122167587,0.7275535464286804,0.5561004281044006,0.7521327137947083,0.3536224067211151,0.054678380489349365,0.021762609481811523,0.013397216796875,0.5592177052436537,-0.7387206833631401,0.3620814159413923,0.10229560031125953,-0.8512923384418845,2.1371930895804523,1.742108416292187
1773062765147817728,1.2880985736846924,-0.9138767123222351,-0.08353829383850098,0.747528076171875,0.5620460510253906,0.744041383266449,0.3612571358680725,0.040889739990234375,0.038276731967926025,0.054117679595947266,0.5549544735980955,-0.7403780875619069,0.36396271077130565,0.10675664374720253,-0.8390989326416943,2.1420605715639924,1.7500322712473872
1773062765157853696,1.2981345653533936,-0.5323562622070312,-0.0253096092492342,0.6771225929260254,0.5675501823425293,0.7373716235160828,0.36629191040992737,0.03436321020126343,0.09687209129333496,0.08368977904319763,0.5519933681660415,-0.7410391855757394,0.3660695041039125,0.11026022941065045,-0.8291709576185231,2.1439248190950053,1.7532956350723128
1773062765167889664,1.3081705570220947,-0.23639708757400513,-0.007853653281927109,0.6364385485649109,0.5724038481712341,0.7322751879692078,0.368954062461853,0.034346699714660645,0.12438380718231201,0.06889691948890686,0.550273901931533,-0.7408549237368542,0.3682540100019584,0.11279043522338722,-0.8216569018552814,2.1433445077754367,1.7526692484074666
1773062765177925632,1.318206548690796,-0.09218623489141464,0.013974480330944061,0.6633120179176331,0.577147364616394,0.7279660701751709,0.3700895309448242,0.01730448007583618,0.10842913389205933,0.0775575339794159,0.5493284121062693,-0.7400819465938864,0.3705718242646089,0.114863004260047,-0.8153507104359329,2.1409881794056482,1.7494393758127031
1773062765187962624,1.3282434940338135,-0.027163032442331314,0.0646139532327652,0.6761454939842224,0.5818982720375061,0.7238389849662781,0.3707446753978729,0.008265912532806396,0.08814221620559692,0.11025810241699219,0.548647805680068,-0.7390103334248974,0.37314349647123835,0.11667600053801279,-0.8093502414778678,2.1380706355929155,1.7448690250304297
1773062765197998592,1.3382794857025146,-0.04815327003598213,0.07826411724090576,0.6367353796958923,0.586377739906311,0.7198720574378967,0.37140992283821106,0.01228553056716919,0.0900338888168335,0.10704466700553894,0.548002746117112,-0.7379106492104984,0.375756354584503,0.11827089370485572,-0.8036179558531961,2.13541119818689,1.7401672859297896
1773062765208034816,1.348315715789795,-0.1406824141740799,0.07720790803432465,0.6371316313743591,0.5906569957733154,0.7157770395278931,0.3725419342517853,0.006129443645477295,0.05816394090652466,0.10353228449821472,0.5471299212586387,-0.7370172119530705,0.378254670982957,0.11990771285444937,-0.7977361769265205,2.1335016671594444,1.7364384780962279
1773062765218070784,1.358351707458496,-0.13367097079753876,0.10110412538051605,0.6486606597900391,0.594962477684021,0.7114263772964478,0.37402164936065674,-0.007254958152770996,0.0032648444175720215,0.09410274028778076,0.5460710250971946,-0.736221813542736,0.3807732381025552,0.1216372815978306,-0.7915257791610789,2.1320141970179884,1.733209369782059
1773062765228107776,1.3683886528015137,-0.13099555671215057,0.12446536868810654,0.6573870778083801,0.599189817905426,0.7070049047470093,0.37565380334854126,-0.012565672397613525,-0.0314067006111145,0.061449527740478516,0.544958914060209,-0.7354004346888541,0.38342286770937933,0.12325966268868484,-0.7852540890400251,2.130786741544867,1.7298543137578213
1773062765238143744,1.3784246444702148,-0.17964717745780945,0.08718141168355942,0.6229642629623413,0.6033087968826294,0.7025880217552185,0.3773444592952728,-0.010443806648254395,-0.05599677562713623,0.02150505781173706,0.5438109243134139,-0.7346312485402318,0.3859911288558661,0.12489015714880597,-0.7790279044233048,2.1297250710477895,1.7267989128924695
1773062765248179712,1.388460636138916,-0.24886514246463776,0.05393904075026512,0.6214731931686401,0.6073904633522034,0.6980030536651611,0.3793000876903534,-0.003249228000640869,-0.05566906929016113,0.005679100751876831,0.5424805914987364,-0.7340711586687375,0.3883163410935504,0.126746757345931,-0.7726050094752307,2.1290179677472993,1.7248064976590969
1773062765258215680,1.3984966278076172,-0.2782364785671234,0.03465409576892853,0.6719020009040833,0.611745297908783,0.6930553913116455,0.3813683092594147,0.011133670806884766,-0.04553347826004028,-0.016301780939102173,0.5410266369491135,-0.7335439728626172,0.3906371736360733,0.12886416413695576,-0.76571885883314,2.128251676770457,1.7231226238971646
1773062765268252672,1.4085335731506348,0.9794000387191772,1.0212702751159668,2.1801419258117676,0.6194608807563782,0.6843457818031311,0.3846282660961151,0.02577221393585205,-0.06291639804840088,-0.022430479526519775,0.5393847297153618,-0.7301233619969613,0.39904135608683233,0.12942145056255547,-0.7537060691937434,2.1264477148541467,1.707903872297415
1773062765278288640,1.418569564819336,0.13570989668369293,-0.273425817489624,1.3896321058273315,0.6304964423179626,0.675987720489502,0.38146474957466125,0.03832697868347168,-0.09139281511306763,-0.033610016107559204,0.5400862904103853,-0.725384517090776,0.4056472295643959,0.132569289369997,-0.7423042497096668,2.114900910696428,1.6898356679432454
1773062765288324608,1.428605556488037,-0.35172367095947266,-0.9395918846130371,0.9440658092498779,0.6413151621818542,0.6677459478378296,0.37792909145355225,0.34112197160720825,0.02308046817779541,-0.33946168422698975,0.5402250276930972,-0.7227129990483365,0.40822844657184965,0.13853682459387878,-0.7311766121656083,2.103313405984414,1.6825471124746951
1773062765298360576,1.4386415481567383,-0.7649164795875549,-0.6062484979629517,0.7071919441223145,0.6499781012535095,0.6601337194442749,0.37650007009506226,0.41226255893707275,0.13558167219161987,-0.2112014889717102,0.5392324065472183,-0.7219052774179567,0.40878209342259236,0.14483962994816638,-0.720996802114615,2.0958190164914785,1.6831964520817115
1773062765308397568,1.4486784934997559,-0.9109112620353699,-0.029840543866157532,0.7042685747146606,0.6557778120040894,0.6521866917610168,0.38027361035346985,0.17556679248809814,0.20096272230148315,-0.11831068992614746,0.5361841846393077,-0.7225344086449639,0.40997663410207874,0.14956507051314777,-0.7104654463508301,2.0962916883207017,1.6882754963844984
1773062765318433536,1.458714485168457,-0.8807598352432251,0.26674753427505493,0.7521473169326782,0.6599379777908325,0.643877387046814,0.38717418909072876,-0.13439476490020752,0.08610308170318604,-0.22396612167358398,0.5320418617004296,-0.7235347299531271,0.41241312902451577,0.15278870848339834,-0.6995551595520688,2.1013661392080354,1.6935593873237782
1773062765328469760,1.4687507152557373,-0.7594836950302124,0.14296382665634155,0.7107101082801819,0.6637288331985474,0.6357647776603699,0.39403992891311646,-0.2661457061767578,0.011757194995880127,-0.1254240870475769,0.5279889259339309,-0.7243799198575461,0.4150827542426526,0.15558866950235198,-0.6889989463531917,2.1065529142163424,1.6979300316929664
1773062765338506752,1.4787876605987549,-0.5529102087020874,-0.12376061081886292,0.6101020574569702,0.6678212285041809,0.6287544369697571,0.3983497619628906,-0.16809594631195068,0.023635029792785645,-0.1093636155128479,0.5250367675569084,-0.7247591510841629,0.4170120549074115,0.15862366367314942,-0.6799503850261851,2.1086321391084817,1.700887864355759
1773062765348542720,1.488823652267456,-0.34458598494529724,-0.27252984046936035,0.5294556617736816,0.672146737575531,0.623192310333252,0.39981260895729065,0.011157095432281494,0.08858442306518555,-0.07164180278778076,0.5233776785298376,-0.7246038065891462,0.4181574172217436,0.16176994356033,-0.6728179805906481,2.1074051928120765,1.7021602472357065
1773062765358578688,1.4988596439361572,-0.15553072094917297,-0.27275028824806213,0.48688048124313354,0.6763782501220703,0.6188045144081116,0.3994913697242737,0.11509507894515991,0.10176122188568115,-0.044953376054763794,0.5226432022038626,-0.723980549674733,0.41904396152069356,0.1646157977456766,-0.6672199332928377,2.104299916325935,1.70164235355086
1773062765368614656,1.5088956356048584,-0.07518129050731659,-0.21101316809654236,0.48367059230804443,0.680321455001831,0.6151158809661865,0.3984912633895874,0.09735798835754395,0.05294442176818848,-0.019585013389587402,0.5223750392430941,-0.72303837258172,0.4200727777886043,0.16696927256898397,-0.6625329632000656,2.1006642878673856,1.699668385447752
1773062765378650624,1.5189316272735596,-0.12202350050210953,-0.12749983370304108,0.45861077308654785,0.6838982105255127,0.6114948987960815,0.3979414999485016,0.02467411756515503,-0.0009143948554992676,-0.0085829496383667,0.5219750456478438,-0.7221636536273057,0.42124862532393254,0.1690307261915092,-0.6579484951890319,2.097780044984097,1.6977514937828626
1773062765388687616,1.5289685726165771,-0.1386386901140213,-0.08497979491949081,0.41506487131118774,0.686974287033081,0.607982873916626,0.3980240523815155,-0.027474164962768555,-0.018932580947875977,-0.00018167495727539062,0.521354400425908,-0.7214900735604405,0.4224501178642436,0.1708144284993603,-0.6535175223237834,2.0959213976961455,1.6963872292820272
1773062765398723584,1.5390045642852783,-0.2468898594379425,-0.09209991991519928,0.3579328656196594,0.6896758079528809,0.6045588850975037,0.3985674977302551,-0.036035001277923584,-0.019109606742858887,-0.002220332622528076,0.520523309981399,-0.7210901774766985,0.423453316293857,0.1725451068494432,-0.6492119907914856,2.094811499445969,1.696017423386044
1773062765408759552,1.5490405559539795,-0.3637981116771698,-0.13946717977523804,0.29137861728668213,0.6921142339706421,0.6010986566543579,0.3995726406574249,-0.024603307247161865,-0.01909792423248291,0.007501333951950073,0.5193987547137952,-0.7210876011168792,0.4240506943658972,0.17446661010670858,-0.6448751044251183,2.0943737613024447,1.697278223787228
1773062765418796544,1.559077501296997,-0.5100101232528687,-0.1284220814704895,0.25971516966819763,0.6942987442016602,0.5974606275558472,0.4012359082698822,-0.005715310573577881,0.0006687045097351074,0.019479453563690186,0.5178773911843744,-0.7215189047962621,0.42429756296758453,0.17659307974118832,-0.6403306597213699,2.094808028991304,1.700288112635489
1773062765428832512,1.5691134929656982,-0.5768203139305115,-0.09889508038759232,0.26233917474746704,0.6962979435920715,0.5934239625930786,0.40375441312789917,0.0020511746406555176,-0.0067996978759765625,0.0073175132274627686,0.5158854257665405,-0.7222984845943471,0.42445507539830324,0.17884406327484273,-0.6353061779963941,2.096274371490925,1.7046305789549445
1773062765438868480,1.5791494846343994,-0.5308339595794678,-0.07598447054624557,0.280998557806015,0.6982572078704834,0.5892542600631714,0.40646788477897644,-0.004318058490753174,-0.04077714681625366,0.008616864681243896,0.513795352360023,-0.7230915121651942,0.4247029687165063,0.1810534323828816,-0.6301355196094152,2.0979632989548107,1.7089714528723445
1773062765448904704,1.5891857147216797,-0.4077725112438202,-0.08553962409496307,0.3152849078178406,0.7003251910209656,0.5852466225624084,0.408693790435791,-0.009819388389587402,-0.0535237193107605,0.01717895269393921,0.5119804807809168,-0.723603101778651,0.42514167531391184,0.18310917572571042,-0.6251842024658857,2.0990526642374694,1.7121808859886707
1773062765458941696,1.5992226600646973,-0.2262684851884842,-0.11138014495372772,0.3612866699695587,0.7027132511138916,0.5815480947494507,0.4098731279373169,-0.009506404399871826,-0.021108031272888184,0.027504801750183105,0.5107207352386769,-0.7236001429342033,0.42583964537825647,0.18500752878004825,-0.6206303989069835,2.0988252187370917,1.7134408465142568
1773062765468977664,1.6092586517333984,-0.09467370063066483,-0.0893869623541832,0.39860954880714417,0.705392599105835,0.5781833529472351,0.41003093123435974,-0.006082296371459961,0.04574853181838989,0.03038346767425537,0.5100218846183804,-0.7230769279517777,0.4268198892243064,0.18671430620308685,-0.6165003960470885,2.097337727401006,1.7127160302968418
1773062765479013632,1.6192946434020996,0.009212018921971321,-0.05739038065075874,0.39778932929039,0.7079945206642151,0.5751768946647644,0.4097746014595032,-0.006334424018859863,0.09469914436340332,0.010757535696029663,0.5096400807733529,-0.7222721273138359,0.42803068789012383,0.1880948523470195,-0.6128203984192635,2.0954683437935846,1.7107507499324017
1773062765489049600,1.6293306350708008,0.09891420602798462,-0.07983256876468658,0.4161987006664276,0.7105909585952759,0.5725457668304443,0.40896424651145935,-0.017246901988983154,0.08916682004928589,-0.009077221155166626,0.5096171730796468,-0.7211825840233151,0.4293923663008355,0.1892305099921912,-0.6096076005398919,2.093026542582239,1.7076159324290336
1773062765499086592,1.6393675804138184,0.11051194369792938,-0.1456274688243866,0.41832128167152405,0.7134552597999573,0.5699677467346191,0.4075757563114166,-0.0250093936920166,0.05149209499359131,-0.015379160642623901,0.50982672141351,-0.7199153777036048,0.4307084025156408,0.19049598057295766,-0.606466610636637,2.089823065567114,1.7040099039706196
1773062765509122560,1.6494035720825195,0.14158090949058533,-0.19447463750839233,0.41115257143974304,0.7165322303771973,0.5675563216209412,0.40553826093673706,-0.005655825138092041,0.04422950744628906,-0.019567281007766724,0.5103002431258148,-0.7185065189492564,0.4318767341833439,0.19189710923404454,-0.6035347670118625,2.0858204890125025,1.700085874565471
1773062765519158528,1.6594395637512207,0.12313978374004364,-0.1800689697265625,0.40697917342185974,0.7196031808853149,0.5651572346687317,0.4034457206726074,0.016053497791290283,0.059415459632873535,-0.00925019383430481,0.5107814620636598,-0.7171152915093932,0.4329763449221448,0.19333752000175736,-0.6006238494286821,2.081779545050685,1.6963008011918195
1773062765529194496,1.6694755554199219,0.10710382461547852,-0.1796891987323761,0.41847044229507446,0.7226769328117371,0.5626267194747925,0.40148356556892395,0.014948070049285889,0.032923758029937744,0.00340840220451355,0.5111855799119077,-0.715744790245037,0.43410964631984256,0.19480112135649286,-0.5975597143924426,2.077891004110214,1.6926347722323525
1773062765539231488,1.6795125007629395,0.08936384320259094,-0.13178524374961853,0.3836476802825928,0.7255953550338745,0.5600952506065369,0.39975613355636597,0.0018674731254577637,-0.01012265682220459,0.012444913387298584,0.5114981527044727,-0.714450029691507,0.4352461581504367,0.19619296793788862,-0.5945007960476987,2.0743573680154803,1.6892013661412488
1773062765549267456,1.6895484924316406,0.04673968628048897,-0.08420681208372116,0.3457042872905731,0.7280569076538086,0.5577141046524048,0.39860787987709045,-0.009810388088226318,-0.04546135663986206,0.021787047386169434,0.5116103705643602,-0.7133806517067723,0.4363392938408285,0.1973599019216351,-0.5916292797273721,2.071714661657254,1.6863811673488398
1773062765559303424,1.6995844841003418,-0.024009717628359795,-0.04890548065304756,0.32597026228904724,0.7301987409591675,0.555317223072052,0.3980359435081482,-0.025761544704437256,-0.04851186275482178,0.011281102895736694,0.5114772218963524,-0.712539077251583,0.43738544836405585,0.19842655943076903,-0.588744376687625,2.069874615078682,1.6842740819062407
1773062765569339648,1.709620714187622,-0.10509578138589859,-0.05417374521493912,0.28079476952552795,0.7320849299430847,0.5528292059898376,0.3980344831943512,-0.03210324048995972,-0.03371000289916992,0.008627474308013916,0.5110509939893628,-0.7119877529099123,0.4382815040618796,0.19952345299597798,-0.5857556504358454,2.068789727559931,1.6832049317679272
1773062765579376640,1.7196576595306396,-0.20054946839809418,-0.01329668890684843,0.24583449959754944,0.7336572408676147,0.5503144264221191,0.3986239731311798,-0.02020210027694702,-0.031759798526763916,0.00739714503288269,0.5103183145107376,-0.7117826363661018,0.43895040791895146,0.20065704376041976,-0.5827407949407841,2.0685104728643293,1.683369651573724
1773062765589412608,1.7296936511993408,-0.26278752088546753,0.04498206451535225,0.2557443678379059,0.7349615693092346,0.5475519299507141,0.4000231921672821,-0.01096254587173462,-0.037206411361694336,-0.015852689743041992,0.509201295194668,-0.7118467323887029,0.4396428364271655,0.20174858527212428,-0.5794357979809762,2.0692356129682272,1.6844006217583747
1773062765599448576,1.739729642868042,-0.3382931649684906,0.06332062184810638,0.29919952154159546,0.7362736463546753,0.5443013310432434,0.40204179286956787,-0.020483672618865967,-0.03920477628707886,-0.03592231869697571,0.5077384683286418,-0.7120482415565462,0.4404636154089774,0.20293078469094986,-0.5755560183125833,2.070601388084323,1.685949151766273
1773062765609484800,1.7497656345367432,-0.41746655106544495,0.08081971853971481,0.30988091230392456,0.7376625537872314,0.5404995679855347,0.4046165347099304,-0.03073805570602417,-0.04130816459655762,-0.03967195749282837,0.5059199627845842,-0.7123993834089687,0.44135630740116977,0.20429593601462326,-0.5710307355771896,2.07249618577399,1.6881392663196726
1773062765619521536,1.7598025798797607,-0.4723970293998718,0.10038536787033081,0.30732792615890503,0.7389581799507141,0.5363988280296326,0.40769708156585693,-0.018133044242858887,-0.04697328805923462,-0.03594723343849182,0.5038106594155828,-0.7129323349925621,0.44223978965775873,0.20573337671945147,-0.5661643494540226,2.074958158621692,1.6909927904226523
1773062765629557504,1.769838571548462,-0.5329295992851257,0.09711900353431702,0.30437713861465454,0.7401978373527527,0.5320500731468201,0.41113266348838806,-0.008798301219940186,-0.05461770296096802,-0.044112980365753174,0.5014703871347755,-0.7136219503458263,0.4430689001942686,0.20727080178983837,-0.5610199260334221,2.0778036143954006,1.6944528362377678
1773062765639593728,1.779874563217163,-0.5782824754714966,0.1038244441151619,0.292410671710968,0.7413803339004517,0.5275333523750305,0.41480594873428345,-0.010667383670806885,-0.04894143342971802,-0.04210996627807617,0.4989541205582088,-0.7144534837870126,0.4438008435029427,0.2089063824731472,-0.5556944210445709,2.0809076918538847,1.6984730455178865
1773062765649629696,1.7899105548858643,-0.6030123233795166,0.13925886154174805,0.3001173138618469,0.742432713508606,0.522854208946228,0.41882869601249695,-0.004365026950836182,-0.027477502822875977,-0.03444451093673706,0.496249813138696,-0.7153979439790548,0.44454485830407986,0.2105276727599889,-0.5501958702876601,2.084423267091203,1.7028424432588274
1773062765659666432,1.7999475002288818,-0.5256111025810242,0.16436441242694855,0.2919294536113739,0.743343710899353,0.5182037949562073,0.4229714274406433,-0.004711568355560303,-0.01875317096710205,-0.035199910402297974,0.493530009558268,-0.716316665797609,0.4453943787938191,0.21199611860632944,-0.5447494039750364,2.0881187780680563,1.70696993019883
1773062765669702656,1.809983491897583,-0.4480867385864258,0.166815847158432,0.266000896692276,0.7440765500068665,0.5140624642372131,0.4267195165157318,-0.00973212718963623,-0.024377524852752686,-0.019218415021896362,0.49111779834249436,-0.7170724664041549,0.4462811212611139,0.21317464180204196,-0.5399142783597096,2.09149412056523,1.710300949129758
1773062765679738624,1.8200194835662842,-0.3070705831050873,0.16433508694171906,0.2662874162197113,0.7447274327278137,0.5104269981384277,0.42993682622909546,-0.011222124099731445,-0.007329404354095459,0.0013529658317565918,0.48908270508407997,-0.7175895091885627,0.4472512741510867,0.2140790133052201,-0.5356812902016123,2.0943631041023902,1.7125968535405764
1773062765689774848,1.8300557136535645,-0.13929995894432068,0.14198504388332367,0.2692413926124573,0.7454022169113159,0.5074991583824158,0.4322267174720764,0.004414618015289307,0.02249962091445923,0.008401334285736084,0.4876511253440197,-0.717711943294959,0.4483335017893589,0.21466936913768228,-0.532279893247992,2.096273143364697,1.7133156019735545
1773062765699811584,1.840092658996582,0.05720817297697067,0.08376960456371307,0.27154314517974854,0.7462852001190186,0.5052907466888428,0.4332892596721649,0.020407915115356445,0.03918862342834473,0.034957170486450195,0.4869533797040051,-0.7173255624515877,0.44954272566318615,0.21501568484827685,-0.5297188464001906,2.0968250285992345,1.7121502284099903
1773062765709847808,1.8501286506652832,0.26894623041152954,0.04764515906572342,0.2519627809524536,0.7473517656326294,0.5040218830108643,0.4329288601875305,0.027809977531433105,0.04733926057815552,0.06731539964675903,0.48711151123837726,-0.7164052889391106,0.45080804278745723,0.21507671911753984,-0.5282491209991046,2.095844120915036,1.7090040069613204
1773062765719883776,1.8601646423339844,0.47350358963012695,0.04208151251077652,0.22975793480873108,0.7483561635017395,0.5038580894470215,0.43138134479522705,0.03506046533584595,0.07136768102645874,0.07728561758995056,0.48809112764995904,-0.7150070591798563,0.4521676422710932,0.2146539331403694,-0.52805945895798,2.0937110323577843,1.7038869897998656
1773062765729919744,1.8702006340026855,0.7468885183334351,0.04683446139097214,0.24170994758605957,0.7493617534637451,0.5046986937522888,0.4286445677280426,0.024762332439422607,0.0762796401977539,0.0624748170375824,0.48990424118262116,-0.7130402074359313,0.4537575790965767,0.21370899486036868,-0.5290329081390093,2.0903827995686037,1.696455506046888
1773062765739956736,1.8802375793457031,1.174386978149414,0.019833635538816452,0.29970723390579224,0.7505748867988586,0.5067601203918457,0.42406511306762695,0.010396063327789307,0.07220393419265747,0.06696262955665588,0.492944066470168,-0.7101126007403545,0.4558208547561422,0.2120695496681338,-0.5314224616656785,2.085073073470421,1.6852652478299603
1773062765749992704,1.8902735710144043,1.74673330783844,-0.040262993425130844,0.3809341788291931,0.7523221969604492,0.5103214383125305,0.41663306951522827,0.01186835765838623,0.09337717294692993,0.09436851739883423,0.4977446636531197,-0.7057294999480646,0.45854378702791304,0.20960349809678272,-0.5355585019331598,2.076549305570184,1.6685999734134171
1773062765760028672,1.9003095626831055,2.3974435329437256,-0.14528006315231323,0.4643605947494507,0.7549328207969666,0.5156235694885254,0.40522682666778564,0.021709024906158447,0.1576704978942871,0.13696372509002686,0.5048239919265374,-0.6994339366726562,0.46195842049200336,0.20625066767993824,-0.5417352999828692,2.063427021054542,1.6449693750295806
1773062765770065152,1.9103460311889648,3.304642915725708,-0.24199222028255463,0.5711983442306519,0.758305013179779,0.5231297016143799,0.388984352350235,0.03396183252334595,0.2507808208465576,0.1897205114364624,0.5146822909682326,-0.6907491911719277,0.4662164036281891,0.20151913488333484,-0.5505190950381158,2.044762506457765,1.6124495380844253
1773062765780101888,1.9203829765319824,4.1088786125183105,-0.20749419927597046,0.6911043524742126,0.7625625133514404,0.5322778224945068,0.36766642332077026,0.040736377239227295,0.3230535387992859,0.20951244235038757,0.5272614362260755,-0.6794154222508572,0.4714105351768588,0.1953512625655422,-0.5612889386053743,2.0200589384655405,1.570246890075157
1773062765790138112,1.9304189682006836,5.213037490844727,-0.1627482920885086,0.6146101355552673,0.7667182087898254,0.5438510775566101,0.3411291837692261,0.031407952308654785,0.3454463481903076,0.24999627470970154,0.5427975896774764,-0.6651427384235404,0.4776502151487442,0.18656402660156546,-0.5750193816643662,1.9894187074933347,1.5164810206346684
1773062765800174080,1.9404549598693848,6.33418083190918,-0.4336734116077423,0.6242978572845459,0.7710548639297485,0.5578718781471252,0.3070073127746582,0.01977771520614624,0.36481183767318726,0.2829585075378418,0.5619412618361231,-0.6473825288701895,0.4841482387233697,0.17526661736413515,-0.5918193366298672,1.9497201010391718,1.4495795010529962
1773062765810210048,1.950490951538086,7.195544719696045,-0.7461183667182922,0.3630675673484802,0.7757186889648438,0.5733286738395691,0.26373291015625,0.0171433687210083,0.4530843496322632,0.3418274223804474,0.5847044784655805,-0.6260213229272301,0.4898609655281124,0.16203194062196585,-0.6105628356971723,1.8985216215616647,1.3696616437493039
1773062765820247040,1.9605278968811035,5.933121204376221,-0.19354988634586334,-0.14666971564292908,0.7773829698562622,0.5891267657279968,0.22046718001365662,0.051718711853027344,0.7131804823875427,0.3606332838535309,0.6064259503081119,-0.606264545245011,0.49262246427618384,0.14837159674223738,-0.629977704904194,1.8471418127126176,1.2939476014797187
1773062765830283008,1.9705638885498047,4.813107967376709,-0.02149343304336071,-0.5911393165588379,0.7759442925453186,0.6028984785079956,0.1855376660823822,-0.0006451010704040527,0.7682868838310242,0.3646026849746704,0.6238248226866785,-0.5898617449268881,0.4948049628600849,0.13443917536033326,-0.6471291208424869,1.8055015842567417,1.2282472174823227
1773062765840318976,1.9805998802185059,3.7465593814849854,0.8484223484992981,-0.7508293986320496,0.7707470059394836,0.6158035397529602,0.16350851953029633,-0.20106011629104614,0.2166854739189148,0.6084336042404175,0.6354251457276217,-0.5786613220570875,0.49689569510412707,0.12033545858300605,-0.663405445529144,1.7798400400392675,1.178338005049248
1773062765850354944,1.990635871887207,3.3021392822265625,0.8338775038719177,-0.31361401081085205,0.7658106684684753,0.6256483793258667,0.1486549973487854,-0.28308361768722534,-0.6246718168258667,0.5907554626464844,0.6435904750905396,-0.5692829922080058,0.5002443130218376,0.10706953419221113,-0.6759623898601717,1.7625264488777084,1.1355680228220577
1773062765860392192,2.0006730556488037,2.495250940322876,0.11181236058473587,0.22792750597000122,0.7648211717605591,0.6301864385604858,0.13384176790714264,-0.20232117176055908,-0.9055160880088806,0.38179850578308105,0.6507206655484297,-0.560145931602982,0.5031475122411677,0.09819247578470057,-0.6817933433486776,1.7440395290099004,1.0985577568659177
1773062765870428160,2.010709047317505,1.6820299625396729,-0.059102658182382584,0.213060662150383,0.766602098941803,0.6306905150413513,0.12062669545412064,0.08370918035507202,-0.7201222777366638,0.04253554344177246,0.65640930906227,-0.5526207228318104,0.5048996774075529,0.09388031357119467,-0.6824426620457973,1.726869031553145,1.0714674092891547
1773062765880464128,2.020745038986206,0.7040458917617798,0.10363548994064331,0.03137853369116783,0.7671744227409363,0.6314141154289246,0.11295762658119202,0.26158827543258667,-0.48224425315856934,-0.23971237242221832,0.6597128026166922,-0.5483904151967378,0.5057141137586866,0.09110506676013765,-0.6833754816470784,1.716984466569772,1.0557939850534863
1773062765890500096,2.0307810306549072,-0.20464546978473663,0.26410531997680664,-0.008096971549093723,0.7669829726219177,0.6316205859184265,0.11310487985610962,0.12014776468276978,-0.6621686816215515,-0.4067298173904419,0.6598134273252116,-0.5477017434690356,0.5065325647611068,0.0899659547864096,-0.6836417291098583,1.7172083477238291,1.0528199021173712
1773062765900537088,2.040817975997925,-0.8151548504829407,0.22524398565292358,0.2047305703163147,0.7671986222267151,0.6303975582122803,0.11834409832954407,-0.06880384683609009,-0.8354909420013428,-0.4718139171600342,0.6576834280372104,-0.5494377385313203,0.507237835752165,0.09099739063519584,-0.6820652343072344,1.723844864708257,1.0597381107406179
1773062765910573056,2.050853967666626,-0.856746256351471,0.29259851574897766,0.3538438677787781,0.7686892151832581,0.6271243691444397,0.12582573294639587,-0.073239266872406,-0.6031527519226074,-0.32785212993621826,0.654484467734854,-0.5517151095454623,0.5084518735030364,0.0934735039938162,-0.6778558959811204,1.733046136718765,1.0703390658459133
1773062765920609024,2.060889959335327,-0.3702928423881531,0.2633639872074127,0.402997761964798,0.7707516551017761,0.6232779026031494,0.13216173648834229,-0.020095527172088623,-0.26907557249069214,-0.13600695133209229,0.6517559352908779,-0.552965766316103,0.5102055745774027,0.09556886607338248,-0.6729274274703845,1.7406160429914386,1.0776614043798318
1773062765930644992,2.0709259510040283,0.17068040370941162,-0.002610954223200679,0.4162038266658783,0.7730888724327087,0.6200664043426514,0.13360849022865295,0.004910945892333984,-0.07627362012863159,0.058026671409606934,0.6510292035424562,-0.5522472698901988,0.5116905331082997,0.0967301599635157,-0.6688273174999371,1.7419301050507525,1.0777555373224832
1773062765940681984,2.080962896347046,0.2802046537399292,-0.058104775846004486,0.39219826459884644,0.7757334113121033,0.617152750492096,0.13175801932811737,0.03734642267227173,0.21802181005477905,0.11950838565826416,0.6516150892690741,-0.550341764786286,0.5128381325958612,0.09756415756191837,-0.6651189798924872,1.7390403175859568,1.0737228676019195
1773062765950717952,2.090998888015747,0.028617940843105316,0.0008480260148644447,0.21166713535785675,0.7776674628257751,0.6149968504905701,0.13043059408664703,0.08086824417114258,0.44100284576416016,0.13310395181179047,0.6520282096971359,-0.5489669250987567,0.5136639068332428,0.09820333851437656,-0.6623819357772545,1.736969940755647,1.0708806802121205
1773062765960753920,2.1010348796844482,-0.4537523090839386,-0.09814173728227615,0.07110290229320526,0.7785651087760925,0.6136685013771057,0.1313290297985077,0.08367854356765747,0.1728304624557495,0.13437221944332123,0.6515224455285925,-0.5492352296240655,0.5138143426027731,0.09926705410236604,-0.660698469257826,1.737904123586988,1.0730515242187215
1773062765970789888,2.1110708713531494,-1.169408917427063,-0.24991901218891144,-0.01427244208753109,0.7789568305015564,0.6124135255813599,0.13481733202934265,0.10261964797973633,-0.26405543088912964,0.09084485471248627,0.6497759035720727,-0.5516789940435163,0.5128927340762551,0.1018945393441305,-0.6591099744150115,1.7421728186591459,1.082962539534836
1773062765980827136,2.121108055114746,-1.8324742317199707,-0.2346697896718979,-0.04639411345124245,0.7790694832801819,0.6106134057044983,0.14213311672210693,0.16677695512771606,-0.44890081882476807,0.07596074044704437,0.6462398163694535,-0.5565507339631576,0.5111925658206149,0.1063366950265806,-0.6568349651701804,1.7512512782289764,1.1018810693269707
1773062765990863104,2.1311440467834473,-2.160128116607666,-0.11865317076444626,-0.021835774183273315,0.7791164517402649,0.6078786253929138,0.15317018330097198,0.20713531970977783,-0.4360799193382263,0.016919493675231934,0.6410038673980748,-0.5631134255969219,0.5094000034014969,0.11193280894411267,-0.6533861883661922,1.76491544627111,1.1272578306774619
1773062766000899072,2.1411800384521484,-1.9757087230682373,-0.07219555974006653,-0.048704273998737335,0.7790724039077759,0.6047776341438293,0.16519732773303986,0.17042094469070435,-0.40612345933914185,-0.03677941858768463,0.6353055868814097,-0.5698346870979537,0.507825849565671,0.11742283986649696,-0.6494865965125661,1.7797450092567872,1.153184454357873
1773062766010936064,2.151216983795166,-1.712467074394226,-0.15947000682353973,-0.007961105555295944,0.7790478467941284,0.6019073128700256,0.17547643184661865,0.1341143250465393,-0.2712494134902954,0.046676263213157654,0.6303197534563427,-0.5756977156896433,0.5062710303653278,0.1223059983868846,-0.6458873924273046,1.7923437115483887,1.1758885012255358
1773062766020972032,2.161252975463867,-1.4584791660308838,-0.07152264565229416,-0.0329538956284523,0.779264509677887,0.5990858674049377,0.18396423757076263,0.14030635356903076,0.03471839427947998,0.09897947311401367,0.6260701345302372,-0.580619398087014,0.5048398081368625,0.12670458576254767,-0.6423589624936661,1.802626004922684,1.195279127746274
1773062766031008000,2.1712889671325684,-1.4619492292404175,0.0640714019536972,-0.10011029988527298,0.7787661552429199,0.5969849824905396,0.1926967352628708,0.15824544429779053,0.23110944032669067,0.1077183187007904,0.6218882655474205,-0.5853032704644782,0.5037543573764893,0.13002516025656422,-0.6397376478686874,1.813362734023711,1.2129074983227732
1773062766041043968,2.1813249588012695,-1.602906584739685,0.036153219640254974,-0.22618602216243744,0.7778345942497253,0.5950393676757812,0.20224156975746155,0.12994134426116943,0.09102636575698853,0.021421819925308228,0.6173273089225041,-0.5904920404111207,0.5024340110465892,0.13336515587942066,-0.6373146017231813,1.8251698946599884,1.2320586731481737
1773062766051080960,2.191361904144287,4.023179054260254,-3.2020134925842285,-2.339635133743286,0.773568332195282,0.6037716865539551,0.19248898327350616,0.12087148427963257,-0.19208943843841553,-0.06039366126060486,0.6215712920721317,-0.5911269409246579,0.4968032096055187,0.1319268961705279,-0.6482240687137208,1.8146759160220323,1.2301485376153587
1773062766061116928,2.2013978958129883,1.4401123523712158,-1.58269202709198,-1.5039198398590088,0.7657608985900879,0.6237637400627136,0.15661756694316864,0.1828322410583496,-0.3988491892814636,-0.13047921657562256,0.6370800808946272,-0.5853851948847725,0.48542039053631325,0.12577836602020645,-0.6735488388010418,1.772539431214759,1.2002958891907065
1773062766071152896,2.2114338874816895,2.509922981262207,-0.7982289791107178,-0.6528265476226807,0.7618106007575989,0.6344274878501892,0.13094483315944672,-0.011093318462371826,-0.2381567358970642,-0.7326446771621704,0.6477981291306677,-0.5798546161415546,0.4787912309915949,0.12200511549058814,-0.6872676725820267,1.7410192718253261,1.1753522802602034
1773062766081188864,2.2214698791503906,3.6743876934051514,-0.7306479215621948,-0.08821897208690643,0.7596232295036316,0.6421769261360168,0.10286586731672287,-0.2798869013786316,0.7468764185905457,-0.6395633220672607,0.6597811048173517,-0.5697644330484154,0.47623673064216193,0.11513462428302311,-0.6973347946751292,1.7053945268091906,1.134083605673059
1773062766091226112,2.2315070629119873,1.7913439273834229,1.1182719469070435,1.4417319297790527,0.7633713483810425,0.6404630541801453,0.0840902253985405,-0.42519086599349976,1.0384156703948975,-0.2750844955444336,0.6677882679430498,-0.5583131302815699,0.47992870243611385,0.109606787042376,-0.6951010268567589,1.6805103605329919,1.093870342719454
1773062766101262080,2.2415430545806885,2.7648825645446777,-0.430815726518631,0.41634389758110046,0.7706232070922852,0.6332839131355286,0.0713554248213768,-0.4689415693283081,0.9460160732269287,-0.2705284357070923,0.6728778534219615,-0.5480785665347495,0.48506452918717385,0.10750727645111872,-0.6857891223460728,1.6631274920104013,1.0633200740686422
1773062766111298048,2.2515790462493896,1.756712794303894,-0.37977173924446106,-0.8201442360877991,0.7680155038833618,0.6380251049995422,0.05546620115637779,-0.12954181432724,0.2777617573738098,0.3745112419128418,0.6797347215544713,-0.5413875650587519,0.48438889932746765,0.10113233409492527,-0.6919307675046149,1.6428913196573547,1.0346517801553414
1773062766121334016,2.261615037918091,1.0716298818588257,-1.148123025894165,-0.6454901695251465,0.7643962502479553,0.6434816122055054,0.0403735488653183,0.29679161310195923,-0.7303498387336731,0.215684175491333,0.685724625760351,-0.537841644168449,0.48053422467464724,0.09795441452947734,-0.6990380156498828,1.623564862830596,1.0174744339434458
1773062766131371008,2.2716519832611084,0.7626782059669495,-0.7906043529510498,-0.9768697023391724,0.7587268352508545,0.6508742570877075,0.02638772875070572,0.4456493854522705,-0.848063588142395,-0.11763525009155273,0.6911935496403029,-0.5362394402399019,0.4750169757064202,0.09517157778932368,-0.7087354376264238,1.605561272146721,1.005329465077225
1773062766141406976,2.2816879749298096,0.700251579284668,-0.7432560324668884,-0.6894331574440002,0.7539939880371094,0.6566564440727234,0.017193933948874474,0.4972268342971802,-0.4152471423149109,0.39062774181365967,0.694804612519866,-0.5355808482681542,0.47090351683330833,0.09300378626444292,-0.7163768796753148,1.593596184316245,0.9976088104274181
1773062766151442944,2.2917239665985107,0.45935213565826416,-0.02259797789156437,-0.4557218551635742,0.7499083876609802,0.6614586114883423,0.01049686037003994,0.03436291217803955,0.02779620885848999,0.126969575881958,0.6975749657677418,-0.5346911586163082,0.46835221266948635,0.09022667415410264,-0.7227619556269634,1.584792936801285,0.9893273918097077
1773062766161478912,2.301759958267212,0.09363708645105362,0.009888892062008381,-0.14197273552417755,0.747940182685852,0.6637139916419983,0.008330784738063812,-0.08433544635772705,0.3480047583580017,0.1975407600402832,0.6985636225434595,-0.5343383735709766,0.4675980055763874,0.08856400607938984,-0.7257732139833984,1.5819341691156714,0.9854112043238439
1773062766171515904,2.3117969036102295,-1.3554354906082153,0.25418731570243835,0.5648879408836365,0.7492498755455017,0.6621310710906982,0.014389357529580593,-0.009396970272064209,0.38120388984680176,0.27595484256744385,0.6961841873376841,-0.5362507527487557,0.46864678468428883,0.09018254442012882,-0.7236589480662402,1.589998983999464,0.9941079776206055
1773062766181551872,2.3218328952789307,-1.7786718606948853,-0.023182742297649384,-0.23731732368469238,0.7510402798652649,0.6597544550895691,0.025737857446074486,0.30106842517852783,0.34924817085266113,0.3882788419723511,0.6914846020150701,-0.5413133038904115,0.4688804065998442,0.09476316007921345,-0.7204919605929597,1.6050525304824754,1.0157779793179935
1773062766191587840,2.331868886947632,-2.3383681774139404,-0.4667803943157196,-0.5449411869049072,0.7483161091804504,0.6622962951660156,0.03723948076367378,0.6728417277336121,0.07917404174804688,0.4637981653213501,0.6867537923339396,-0.5491740262766276,0.46586224340643084,0.09873988501936655,-0.7238794849839222,1.620519681895557,1.043038178537073
1773062766201623808,2.341904878616333,-2.4495151042938232,-0.549241304397583,-0.9652601480484009,0.7435894012451172,0.6667887568473816,0.049677979201078415,0.8445301651954651,-0.20299774408340454,0.2591294050216675,0.6815315614728864,-0.5590401325130532,0.4607744780381922,0.103324131732544,-0.7298914510010787,1.6375055453232907,1.0764356838668052
1773062766211661056,2.3519420623779297,-1.9940065145492554,-0.5967206358909607,-1.2199510335922241,0.7364825010299683,0.673734724521637,0.06062406301498413,0.723402202129364,-0.4369487762451172,0.05534280091524124,0.6770253666457612,-0.5690055979647801,0.45447184912612804,0.1064177270752852,-0.7392511558547394,1.6529268470765024,1.108151787321838
1773062766221697024,2.361978054046631,-1.2523373365402222,-0.5302156805992126,-1.2724485397338867,0.7283753156661987,0.6818539500236511,0.06741491705179214,0.5407440066337585,-0.4065548777580261,0.00741422176361084,0.6743265307775811,-0.5770631084165775,0.44800181774142234,0.10759331792267991,-0.7502941049579906,1.6630885849738546,1.1318931618964074
1773062766231732992,2.372014045715332,-0.38497570157051086,-0.3968437612056732,-1.2644423246383667,0.7199497818946838,0.690520167350769,0.06967169791460037,0.36028093099594116,-0.04278463125228882,-0.14395153522491455,0.6736713756736895,-0.5823969475064847,0.44232300856463436,0.1064472437619004,-0.7622079626935914,1.667268912403361,1.1446904865614145
1773062766241768960,2.382050037384033,0.17847034335136414,-0.42911356687545776,-1.1734752655029297,0.7117258310317993,0.6992188096046448,0.06737669557332993,0.25940459966659546,0.2937164306640625,-0.1661773920059204,0.6749512936841218,-0.5851670562322554,0.43734181745546624,0.10369428541301715,-0.7743042236593483,1.665181693719122,1.1475111674257508
1773062766251805952,2.392086982727051,0.7905055284500122,-0.49755173921585083,-1.1055420637130737,0.7040284276008606,0.7075648307800293,0.06079651787877083,0.1935698390007019,0.2648473381996155,-0.22043395042419434,0.6779129874664404,-0.5858114024681281,0.4326930317522607,0.10017900078660519,-0.786046116487842,1.6569378256579996,1.1423570164760402
1773062766261841920,2.402122974395752,1.6186788082122803,-0.6462748646736145,-1.0946989059448242,0.6966034173965454,0.715837836265564,0.048164840787649155,0.2364562749862671,0.11503374576568604,-0.26383256912231445,0.6832203763985516,-0.5837429018669543,0.42816660949853386,0.09553787020684058,-0.7978232529663539,1.639828874012326,1.1263370769280765
1773062766271877888,2.412158966064453,2.4642679691314697,-0.9056678414344788,-1.0345505475997925,0.6893196105957031,0.7239204049110413,0.027884114533662796,0.2929190993309021,0.01252967119216919,-0.2901216745376587,0.6913658959718688,-0.5785542275617802,0.42334036311480583,0.08983896695211989,-0.8094682077228673,1.611225932902804,1.0975921717521127
1773062766281914112,2.4221949577331543,3.077024221420288,-0.9487236738204956,-1.015395164489746,0.681993842124939,0.731357216835022,0.0010155063355341554,0.30857622623443604,0.14783889055252075,-0.2059410810470581,0.7018480806794198,-0.570538005983915,0.41832300546624507,0.08307547552628763,-0.8203099421364123,1.5722853514087478,1.05703659057171
1773062766291950848,2.432231903076172,1.8787964582443237,-1.2149358987808228,-1.049678087234497,0.6743965148925781,0.7379439473152161,-0.025057638064026833,0.2997550368309021,0.31596529483795166,-0.11683386564254761,0.7117414516744791,-0.5631471889623367,0.412718335234942,0.07715482615507302,-0.8300186727161002,1.5336577656859853,1.01891278590831
1773062766301986816,2.442267894744873,1.7711987495422363,-0.9203429222106934,-1.367013692855835,0.66591876745224,0.7446075677871704,-0.045957572758197784,0.24834215641021729,0.18828433752059937,-0.06723213195800781,0.7195506113040063,-0.5582654485298146,0.4066459186740528,0.07229008594945498,-0.8399467143080329,1.501891801455044,0.9900434910045507
1773062766312023040,2.452303886413574,1.2279099225997925,-0.591313362121582,-1.526232123374939,0.6540195345878601,0.7539491653442383,-0.06179986894130707,0.2028988003730774,-0.0906190276145935,0.18675410747528076,0.725637880257582,-0.5558747710026276,0.40012911030096937,0.06595176481635588,-0.85405300020513,1.4765836742199092,0.9664092889413944
1773062766322059008,2.4623398780822754,1.1944278478622437,-0.5484614372253418,-1.2803518772125244,0.6431564688682556,0.7620729804039001,-0.07479705661535263,0.12278896570205688,-0.37927573919296265,0.15872037410736084,0.7306092417207743,-0.553977658847961,0.39460135088707954,0.06007254853355599,-0.8665086637178389,1.4550195948472173,0.9455015714406425
1773062766332096000,2.472377061843872,1.1354268789291382,-0.6548259854316711,-1.2872388362884521,0.6328952312469482,0.769267737865448,-0.08758274465799332,0.06998562812805176,-0.1425740122795105,-0.04066735506057739,0.735386759689174,-0.5520141494625002,0.3892158886884605,0.05475115858489649,-0.8776942993329406,1.4332854149376888,0.924926935322422
1773062766342131968,2.4824130535125732,0.9194516539573669,-0.7596389651298523,-1.348036766052246,0.6219969987869263,0.7765889167785645,-0.10014736652374268,0.174710214138031,-0.04706615209579468,0.012027844786643982,0.7399928644421337,-0.5505374285567942,0.38319036409413804,0.04984285315113648,-0.8892332784241034,1.4111570025779148,0.9056017570371251
1773062766352168192,2.4924490451812744,0.6469447612762451,-0.7792521119117737,-1.4122333526611328,0.6104042530059814,0.7842690348625183,-0.1110353171825409,0.20583415031433105,-0.08312767744064331,0.08268451690673828,0.7439477421077517,-0.5500780146047903,0.3766915417539476,0.045381384570549,-0.9015170583443185,1.3908592073323989,0.8895664009571668
1773062766362204160,2.5024850368499756,0.5291152596473694,-0.7509024739265442,-1.3681588172912598,0.5985643863677979,0.7919905185699463,-0.12029891461133957,0.16182690858840942,-0.13998234272003174,0.17281965911388397,0.7472967512379209,-0.5503086317449359,0.37014990321815144,0.041195761384040526,-0.9140623872849543,1.3724595306506833,0.8759032037652228
1773062766372240896,2.512521982192993,0.3757706880569458,-0.7387182712554932,-1.3208047151565552,0.5869244933128357,0.7993904948234558,-0.12843042612075806,0.0780687928199768,-0.21090489625930786,0.24981410801410675,0.7502131850199997,-0.5508867267108278,0.3637424886424239,0.03735400590727415,-0.9262800607283741,1.3553724438934818,0.8638045164681792
1773062766382277120,2.5225579738616943,0.05710477754473686,-0.6964641809463501,-1.2502964735031128,0.5755426287651062,0.8066518902778625,-0.13440091907978058,0.0364568829536438,-0.22224020957946777,0.20428615808486938,0.7523543473866003,-0.5522912214789086,0.357454817761539,0.034109956234955274,-0.9384650708571379,1.3413870351624309,0.8554954468006721
1773062766392313088,2.5325939655303955,-0.09166552871465683,-0.7185010313987732,-1.0646166801452637,0.5653111934661865,0.813217282295227,-0.13820689916610718,0.03809767961502075,-0.2699432373046875,0.12580148875713348,0.7537220506583376,-0.554271528312163,0.35168114265192746,0.03172771028335071,-0.9496592878242065,1.3310203147529116,0.8512142268885293
1773062766402349056,2.5426299571990967,-0.289737731218338,-0.8486911058425903,-0.9467816352844238,0.555923581123352,0.8191863894462585,-0.1410066783428192,0.039840638637542725,-0.379672110080719,0.10852067172527313,0.7547027154830744,-0.5566758299022351,0.34584487810178116,0.030451684825349823,-0.959990992853421,1.3223909628610475,0.8503459215973812
1773062766412386048,2.5526669025421143,-0.2860231399536133,-0.9170647859573364,-0.7716130018234253,0.5477189421653748,0.8242584466934204,-0.14353491365909576,0.05410301685333252,-0.41533803939819336,0.11541293561458588,0.7555494069837045,-0.5590690840224649,0.3401092533600923,0.03021116030328497,-0.96889126564713,1.3145002155393037,0.8514884322216887
1773062766422422016,2.5627028942108154,-0.43619608879089355,-0.9665999412536621,-0.780015230178833,0.540168046951294,0.8288332223892212,-0.1457872837781906,0.03925389051437378,-0.31252163648605347,0.1656695008277893,0.7562773476123266,-0.5615121210611193,0.3343807662214135,0.03063056540526108,-0.9770190939849693,1.307184738118561,0.8540986932736638
1773062766432457984,2.5727388858795166,-0.7200770378112793,-0.9313706159591675,-0.8162807822227478,0.5322157144546509,0.8339015245437622,-0.1461319774389267,8.71419906616211e-05,-0.23941916227340698,0.1656479835510254,0.7563636999790269,-0.5648502786674701,0.32844812545792124,0.03130320790377746,-0.9861394939802567,1.3028272889501251,0.8603831809936895
1773062766442493952,2.5827748775482178,-1.024888038635254,-0.9001227617263794,-0.7364112734794617,0.5243632197380066,0.8392731547355652,-0.1437489092350006,-0.07053631544113159,-0.2677704691886902,0.20559275150299072,0.7555304273118184,-0.5692447125747345,0.3226236231741912,0.03237561194520235,-0.9959449643368398,1.3032298676212788,0.8718612261963963
1773062766452531200,2.5928120613098145,-1.2235287427902222,-0.9011390209197998,-0.48796847462654114,0.5179129838943481,0.8441012501716614,-0.13877764344215393,-0.12893593311309814,-0.3580172657966614,0.23893636465072632,0.7537926406162522,-0.5743963298335457,0.3173011689512658,0.0344313061500029,-1.004886779391508,1.3089910341054596,0.8893130728651049
1773062766462567168,2.6028480529785156,-1.1919242143630981,-0.9897761940956116,-0.19923585653305054,0.5137492418289185,0.8475298285484314,-0.13324804604053497,-0.12367355823516846,-0.4326128363609314,0.18170994520187378,0.7517953166482035,-0.5793810433874537,0.31255973110799373,0.03778806721548557,-1.011313765150696,1.3170241291620446,0.9099162620631076
1773062766472603136,2.612884044647217,-0.9920046329498291,-1.108978033065796,0.06659501791000366,0.511773943901062,0.8493533730506897,-0.12917460501194,-0.07531160116195679,-0.45958298444747925,0.0742582231760025,0.7501957161757336,-0.5834840473856647,0.3081542803358691,0.042350694356766236,-1.0147589989236752,1.3235548529206214,0.9301083598421459
1773062766482640128,2.6229209899902344,-0.5078144073486328,-1.2927436828613281,0.33661025762557983,0.5119872093200684,0.8492355942726135,-0.1291036456823349,-0.032586634159088135,-0.4432145953178406,0.006148353219032288,0.7498445231213717,-0.5856575359025864,0.30406154738504354,0.04780051202979081,-1.014535908054239,1.3237840104174508,0.9446253395434534
1773062766492676096,2.6329569816589355,-0.04077185317873955,-1.4546561241149902,0.514359712600708,0.5138509273529053,0.8473894000053406,-0.133747398853302,-0.036723971366882324,-0.37102532386779785,0.007267311215400696,0.7509788279969116,-0.5857254041596364,0.3000867392548941,0.05389332569126772,-1.011049206892073,1.3161618727965172,0.9518854207792562
1773062766502712064,2.6429929733276367,0.36585283279418945,-1.4538049697875977,0.5701085925102234,0.5165188908576965,0.8442695140838623,-0.14288821816444397,-0.07189309597015381,-0.24881064891815186,-0.061930522322654724,0.7535530737198555,-0.583784748362405,0.2962283905723095,0.0600146604300711,-1.0052006027478464,1.3009088960601667,0.9512557052897381
1773062766512748032,2.653028964996338,0.32270801067352295,-1.2723318338394165,0.5377680063247681,0.519153356552124,0.8408417701721191,-0.15318284928798676,-0.14754080772399902,-0.20825815200805664,-0.03247082233428955,0.7565021798799798,-0.5811096109719942,0.29278011185570973,0.06554335928431293,-0.998836531628688,1.28387517963889,0.947323374231152
1773062766522785024,2.6630659103393555,0.08671120554208755,-1.0897976160049438,0.6171029210090637,0.5220964550971985,0.8375702500343323,-0.160908043384552,-0.2428758144378662,-0.28445446491241455,-0.011928260326385498,0.7585731075491364,-0.5791613398227649,0.2900312428408367,0.07085817872550218,-0.9928205593849377,1.2718373174927005,0.9470449687249212
1773062766532820992,2.6731019020080566,0.1310160905122757,-1.0534989833831787,0.7249857187271118,0.5260347127914429,0.8338513970375061,-0.16726966202259064,-0.32274192571640015,-0.30446308851242065,0.09858985245227814,0.7601325074947616,-0.5774279525191744,0.2879967481464679,0.0763760634738111,-0.9860486626722988,1.2629248486465718,0.9490983108517653
1773062766542856960,2.683137893676758,0.2725377082824707,-1.147138237953186,0.8334327340126038,0.530629575252533,0.829375147819519,-0.1748407930135727,-0.31940215826034546,-0.28256118297576904,0.2012385129928589,0.7620094771059225,-0.5750789283004157,0.28611855783317536,0.08223171962002696,-0.9779883292472855,1.2525025307012834,0.9498624215622271
1773062766552892928,2.693173885345459,0.2789871096611023,-1.2193940877914429,0.9626234769821167,0.5359771251678467,0.8240379691123962,-0.18354785442352295,-0.24747925996780396,-0.2966943383216858,0.12338246405124664,0.7641408114985007,-0.5721840128064324,0.2843088595970331,0.0886717298814603,-0.968502045025193,1.2408591621414917,0.9501257484254306
1773062766562930176,2.7032110691070557,0.1457880437374115,-1.2626515626907349,1.0559340715408325,0.5419480800628662,0.818160355091095,-0.19210952520370483,-0.1776597499847412,-0.2682945728302002,-0.009352296590805054,0.7660795230347471,-0.5693208086530115,0.2825226664215936,0.0957969943520422,-0.9582043074363323,1.2301364047997554,0.9522828928922981
1773062766572966144,2.713247060775757,-0.19487100839614868,-1.1256183385849,1.0775359869003296,0.5483835935592651,0.8122833967208862,-0.19867321848869324,-0.1497478485107422,-0.22825324535369873,-0.08576588332653046,0.7672296778561294,-0.5672275139052403,0.2809205238083012,0.1034174882364027,-0.9480563412257785,1.2232160677639528,0.9587382732828897
1773062766583002112,2.723283052444458,-0.6107373833656311,-0.7737670540809631,0.9867222309112549,0.5548788905143738,0.807372510433197,-0.20064666867256165,-0.20209574699401855,-0.273040235042572,-0.05763882398605347,0.7668552238446908,-0.5668343376520537,0.2799562448788304,0.11070879893778038,-0.9396853887846988,1.2238211280399331,0.9713671654862504
1773062766593038080,2.733319044113159,-0.8248123526573181,-0.4510292112827301,0.8777174949645996,0.5612280964851379,0.8035983443260193,-0.19812346994876862,-0.27553772926330566,-0.34909993410110474,-0.047604113817214966,0.7650909968880949,-0.567979929598266,0.2798875876595536,0.11703683140281258,-0.933316673399887,1.2314356250931562,0.9883160147477501
1773062766603075072,2.7433559894561768,-0.7081148624420166,-0.4094706177711487,0.8179905414581299,0.5671740770339966,0.8004065752029419,-0.19406947493553162,-0.3201647996902466,-0.3044043779373169,0.06853538751602173,0.762906017542088,-0.5695820997158129,0.28025256023911815,0.12251205760716473,-0.9279731696420882,1.2411147340853015,1.005450659490542
1773062766613111040,2.753391981124878,-0.17014968395233154,-0.5661396384239197,0.9777956604957581,0.5733612179756165,0.7962185740470886,-0.19311358034610748,-0.27299201488494873,-0.1168973445892334,0.21180559694766998,0.7616990527143985,-0.5698039361792937,0.2806540349439814,0.12795051600680352,-0.9210190695065917,1.2459203958242635,1.0175479961213652
1773062766623147008,2.763427972793579,0.4017609655857086,-0.6661150455474854,1.0869587659835815,0.580477774143219,0.7899032831192017,-0.19773294031620026,-0.13421928882598877,0.13691550493240356,0.15685464441776276,0.7622552162616218,-0.5674270186445867,0.2813540599718544,0.13354190135492425,-0.9106512878613864,1.2424857981162098,1.0210678181616106
1773062766633182976,2.7734639644622803,0.5684404969215393,-0.6337373852729797,1.0026122331619263,0.5874692797660828,0.7826840281486511,-0.20563443005084991,0.01693129539489746,0.2617342472076416,-0.11531893908977509,0.7639206446174325,-0.5635212056280778,0.28218191378579327,0.13871712111317105,-0.8989664717258387,1.2340908807059885,1.0187743388023704
1773062766643219968,2.783500909805298,0.2628237307071686,-0.5303551554679871,0.8594385385513306,0.5935240387916565,0.7762203216552734,-0.21262940764427185,0.052838265895843506,0.19948768615722656,-0.32066524028778076,0.7653603544248722,-0.5600616041425341,0.2828715148220747,0.14331170197365314,-0.888648359600751,1.2267916953866913,1.0169755650177699
1773062766653255936,2.793536901473999,-0.3294965922832489,-0.36555367708206177,0.7313846945762634,0.5987431406974792,0.7715268731117249,-0.2150656133890152,-0.04439127445220947,0.05125772953033447,-0.2698282301425934,0.7653285540234998,-0.5587230736964933,0.28336499174031354,0.14766572676310616,-0.8812376355126538,1.225953458296494,1.0216908292376343
1773062766663291904,2.8035728931427,-0.17123106122016907,-0.11914858222007751,0.9517907500267029,0.6040776968002319,0.7677740454673767,-0.2135724127292633,-0.13517510890960693,-0.05633300542831421,-0.0867357850074768,0.7640009149938531,-0.5589857659865937,0.2841631644329266,0.1519500677013106,-0.8753597469315448,1.2309613228963385,1.0317520972660732
1773062766673327872,2.8136088848114014,0.6394360065460205,-0.16566042602062225,0.8967037796974182,0.6112343072891235,0.7615447044372559,-0.21550531685352325,-0.13117754459381104,-0.026803433895111084,0.11559075117111206,0.7638748021297658,-0.5568916844431216,0.28656411863035147,0.15571794626009128,-0.8656931697784906,1.2318302527875689,1.0343379279167075
1773062766683365120,2.823646068572998,0.3899240493774414,-0.6107373833656311,0.5837475657463074,0.6159852147102356,0.7557247877120972,-0.22235634922981262,0.015698134899139404,0.14187359809875488,0.11920693516731262,0.765472339680258,-0.5533000731644426,0.28754278959790963,0.15884069577968368,-0.8567601803850095,1.2243763346079308,1.0298077764862361
1773062766693401088,2.833682060241699,0.12473368644714355,-0.7226916551589966,0.46363553404808044,0.6182747483253479,0.7520902752876282,-0.22824662923812866,0.20215976238250732,0.5283662676811218,-0.03342634439468384,0.7666735615209509,-0.5511447502672441,0.286559150145593,0.16228052694386894,-0.851227969121322,1.2171493094629768,1.029092816136405
1773062766703437056,2.8437180519104004,-0.08819190412759781,-0.7000062465667725,0.6076772212982178,0.6205456852912903,0.7487820386886597,-0.23291262984275818,0.18577444553375244,0.6138735413551331,0.06123599410057068,0.7673667621597948,-0.5496672558915828,0.28532366736653636,0.16614589288826764,-0.8462226347914584,1.2117318481394157,1.0312443839183907
1773062766713473024,2.8537540435791016,-0.5708866119384766,-0.5384261608123779,0.8118913173675537,0.6244386434555054,0.7450957298278809,-0.23432554304599762,0.09061866998672485,0.1884063482284546,0.013073131442070007,0.7667428848159094,-0.5493893152360304,0.2846201182590192,0.17107881454882448,-0.8406783950226363,1.2117995688490335,1.0396878722858591
1773062766723510016,2.863790988922119,-0.9798540472984314,-0.38946208357810974,0.8616624474525452,0.6296781301498413,0.7415938973426819,-0.23139530420303345,-0.01952493190765381,-0.12262117862701416,-0.09762993454933167,0.7645137562726069,-0.5507664035920601,0.2845324478978016,0.1766812499631964,-0.8354431733424695,1.2186331139116355,1.0550019089627332
1773062766733545984,2.8738269805908203,-1.3217806816101074,-0.34287193417549133,0.7379474639892578,0.6348475813865662,0.7391384243965149,-0.2250395566225052,-0.09111595153808594,0.001492619514465332,-0.123257577419281,0.7610808198911437,-0.553737813479635,0.2843495282981602,0.18241635469666986,-0.8317903466377714,1.2301377142329473,1.0753944148832857
1773062766743581952,2.8838629722595215,-1.520035743713379,-0.3476889133453369,0.5332971215248108,0.6387994885444641,0.7382330298423767,-0.21667282283306122,-0.1332148313522339,0.24597406387329102,-0.0910206288099289,0.7569999449310967,-0.5579483537982233,0.28347349943105943,0.1878494902590167,-0.8304471106183879,1.2437862764239338,1.0986003771817783
1773062766753617920,2.8938989639282227,-1.5794751644134521,-0.2997967600822449,0.3611476719379425,0.6413830518722534,0.7386937141418457,-0.20726625621318817,-0.13292968273162842,0.2579798698425293,-0.10181576013565063,0.7526717278621018,-0.5628944972563376,0.2819869859066536,0.19266111295453878,-0.8311302747557434,1.2582339042069461,1.1226436582886372
1773062766763655168,2.9039361476898193,-1.5258616209030151,-0.19236227869987488,0.24684345722198486,0.6430986523628235,0.7399289011955261,-0.19730450212955475,-0.14045900106430054,0.060089290142059326,-0.15863725543022156,0.7483053108893736,-0.5681019516798138,0.28037104570301213,0.19670093309807057,-0.8329646898720662,1.2731101314338518,1.1461620200181901
1773062766773691392,2.9139723777770996,-1.360986351966858,-0.014694815501570702,0.20879006385803223,0.64456707239151,0.7412645220756531,-0.18724332749843597,-0.18509441614151,-0.06011223793029785,-0.19714079797267914,0.7440880394542236,-0.5730976397800108,0.2791727573292775,0.19988638932984287,-0.8349523503076812,1.2880826128975136,1.1678401683384394
1773062766783727360,2.924008369445801,-1.1729272603988647,0.1990709900856018,0.23942920565605164,0.646399974822998,0.7421237826347351,-0.17725573480129242,-0.25949805974960327,0.028674006462097168,-0.17384900152683258,0.7400876603841379,-0.5775805209502545,0.27887788282354736,0.20223309377852233,-0.8362333710473133,1.3031555036102402,1.186952458081712
1773062766793763328,2.934044361114502,-1.092143177986145,0.39408841729164124,0.24578510224819183,0.6487393379211426,0.742478609085083,-0.1669209748506546,-0.33579689264297485,0.19364804029464722,-0.1231028288602829,0.7361448410245071,-0.5817117180269115,0.27955498207888896,0.20384104398854141,-0.8367629346854727,1.3189584724637435,1.2041799796849177
1773062766803800320,2.9440813064575195,-1.0445256233215332,0.48971107602119446,0.21600164473056793,0.6512097716331482,0.7426878809928894,-0.15601469576358795,-0.3981427550315857,0.2427247166633606,-0.11243319511413574,0.732139342655673,-0.5857853503212911,0.2807991665440082,0.20488863347683434,-0.8370754167417072,1.335651602908241,1.2205816690227753
1773062766813836288,2.9541172981262207,-0.9623226523399353,0.45978593826293945,0.18293796479701996,0.6534239053726196,0.7428979873657227,-0.14539532363414764,-0.41532576084136963,0.13506221771240234,-0.15546220541000366,0.728295554185701,-0.5896760218970943,0.28210730301010195,0.20562895527378544,-0.8373892271427056,1.3518503019084984,1.235925672988022
1773062766823872256,2.964153289794922,-0.7856395244598389,0.41207486391067505,0.14975124597549438,0.6552990674972534,0.7430388927459717,-0.13592801988124847,-0.3836926221847534,-0.00765681266784668,-0.19292938709259033,0.7248748896468232,-0.5931150665890634,0.2832852026621365,0.20620483202582382,-0.8375997242682224,1.3662678126248329,1.2494343393396834
1773062766833908224,2.974189281463623,-0.44115906953811646,0.40607982873916626,0.10707169771194458,0.6567920446395874,0.7430197596549988,-0.12863142788410187,-0.3437884449958801,-0.051384568214416504,-0.18009968101978302,0.722313121567324,-0.5956068615329332,0.28449385873944205,0.20634814503894483,-0.8375711270938904,1.3773962217573676,1.258945440501443
1773062766843945216,2.9842262268066406,-0.07875239104032516,0.44591405987739563,0.03649339824914932,0.6578737497329712,0.7428568601608276,-0.12395914644002914,-0.3329683542251587,0.009447216987609863,-0.13583701848983765,0.7208752376363321,-0.5968555965194661,0.28597871347102455,0.2057145733191112,-0.8373277889433395,1.3845559896204818,1.2628845594697509
1773062766853981184,2.994262218475342,0.16344307363033295,0.518113911151886,-0.04365602880716324,0.6584253907203674,0.7428345084190369,-0.1211322546005249,-0.34912973642349243,0.10018306970596313,-0.0685344934463501,0.7203322104162452,-0.5971837519185716,0.2877593426696722,0.20417562988551025,-0.8372943772044757,1.3888581077377928,1.262147154407561
1773062766864017152,3.004298210144043,0.3007523715496063,0.5156413912773132,-0.1200966089963913,0.6584331393241882,0.7430933713912964,-0.11949153244495392,-0.36401480436325073,0.1665898561477661,-0.019882261753082275,0.720385944449816,-0.5969625449044327,0.2896376270857018,0.20196523528772237,-0.8376811757497962,1.3912715465185852,1.258363209264822
1773062766874053120,3.014334201812744,0.30885663628578186,0.2249930500984192,-0.7476686835289001,0.6557626128196716,0.7452092170715332,-0.12098944187164307,-0.3541879653930664,0.16087287664413452,-0.00774894654750824,0.721713982680493,-0.5962250356688263,0.28986373588650854,0.19905672642083438,-0.8408485649767166,1.388346232335079,1.2507621449047275
1773062766884090112,3.0243711471557617,-0.15315870940685272,0.5525887608528137,-0.23860830068588257,0.6522102952003479,0.7487914562225342,-0.11803878843784332,-0.3157234787940979,0.08566594123840332,-0.011172667145729065,0.721577259554541,-0.5974990107396523,0.2897853321119227,0.19582066681497173,-0.8462368616131279,1.391751689121652,1.249521535118567
1773062766894126336,3.034407377243042,-0.04629165306687355,0.6853244304656982,0.14686961472034454,0.6528637409210205,0.7489811778068542,-0.11311870813369751,-0.33677804470062256,0.0525018572807312,-0.0760139599442482,0.7203850651037758,-0.5984605975175697,0.2920369160473708,0.19391895047401586,-0.8465230927163743,1.3992342051444544,1.250714120336408
1773062766904162304,3.044443368911743,-0.07175440341234207,0.42916932702064514,-0.047292131930589676,0.6540143489837646,0.7485902309417725,-0.1089852973818779,-0.2892225384712219,0.13281840085983276,0.03797090798616409,0.7193173569857099,-0.5991097005601067,0.29423615919658785,0.19254904080195007,-0.845933278170543,1.405673078458896,1.2517226598708242
1773062766914198272,3.0544793605804443,-0.08867373317480087,0.2829442024230957,-0.17549510300159454,0.6533898711204529,0.7495543360710144,-0.10606484860181808,-0.13539981842041016,0.04643559455871582,0.061310842633247375,0.7186650054932411,-0.5999639374614739,0.2949760140736081,0.1911881471386485,-0.8473885579902398,1.4098699442777203,1.2527759707284154
1773062766924235264,3.064516305923462,-0.014166274107992649,0.33799904584884644,-0.07005972415208817,0.652752697467804,0.7504382133483887,-0.10371192544698715,-0.10352790355682373,0.012348532676696777,0.014249637722969055,0.7181866964801668,-0.6006237272853063,0.2956267483430768,0.18990449898711964,-0.8487248877107075,1.4132294433262602,1.25324186495468
1773062766934271232,3.074552297592163,0.057983022183179855,0.3894944489002228,-0.05875939130783081,0.6527449488639832,0.7507463693618774,-0.1015082374215126,-0.09204554557800293,0.03849917650222778,-0.02663504332304001,0.717770992745518,-0.6009510572869989,0.2968226867572868,0.188570708791121,-0.8491911697304557,1.4165222255137826,1.252712417452043
1773062766944307200,3.0845882892608643,-0.0021415690425783396,0.4044819176197052,-0.15376926958560944,0.6523451209068298,0.7514020204544067,-0.0992010086774826,-0.09074538946151733,0.03511226177215576,-0.0894433856010437,0.7173909186612858,-0.6013510981446281,0.2979536050079861,0.18695125502549884,-0.8501843081935259,1.419884207041676,1.251934291471651
1773062766954344192,3.094625234603882,0.03717467933893204,0.48262864351272583,-0.18679140508174896,0.6514557600021362,0.7525467872619629,-0.09632561355829239,-0.127682626247406,0.041200101375579834,-0.08021853864192963,0.716894324997633,-0.6020258492423247,0.2990017914251,0.18500067370122059,-0.8519208757294919,1.4239978940786813,1.2515561040136545
1773062766964380160,3.104661226272583,0.29141169786453247,0.5783811211585999,-0.1796620637178421,0.6505935192108154,0.7535809874534607,-0.09404051303863525,-0.16464698314666748,0.08759021759033203,-0.02584778517484665,0.7167342021184004,-0.6022276241092194,0.30050230123518457,0.18251652811897173,-0.8534927862823284,1.4272448605277197,1.2488127541092284
1773062766974416128,3.114697217941284,0.5128561854362488,0.6153124570846558,-0.2023918777704239,0.6497060060501099,0.7544420957565308,-0.09326846152544022,-0.15646576881408691,0.1305522918701172,-0.039101533591747284,0.7172525634405599,-0.6015725377569792,0.30245041122288246,0.17939596131273886,-0.8548037596587295,1.428215572458575,1.2421420819409148
1773062766984452352,3.1247332096099854,0.605833113193512,0.6198568344116211,-0.18216419219970703,0.6487903594970703,0.7551997900009155,-0.09351076930761337,-0.10533338785171509,0.1167941689491272,-0.10262572020292282,0.7181860110384694,-0.6003958689119001,0.30458072187246094,0.17596652728166398,-0.8559588807911256,1.427651171706866,1.2331867560046266
1773062766994488320,3.1347692012786865,0.5865249633789062,0.639204204082489,-0.13300490379333496,0.6482123136520386,0.7556317448616028,-0.09402972459793091,-0.04593271017074585,0.10195803642272949,-0.1440379023551941,0.719185644464477,-0.5989907516957065,0.3069123939519476,0.17258894508549275,-0.8566180571694172,1.4267410781592602,1.2236401902400678
1773062767004525312,3.144806146621704,0.44173866510391235,0.6973041892051697,-0.13981571793556213,0.6478085517883301,0.7560296654701233,-0.09361226856708527,-0.003078937530517578,0.08228820562362671,-0.13923686742782593,0.7198217285295867,-0.5979095473058743,0.30935099556066686,0.1693010206367548,-0.8572258491632254,1.4272836906895467,1.2155163842302612
1773062767014561536,3.1548423767089844,0.4356352388858795,0.7695165872573853,-0.1660449206829071,0.6473335027694702,0.7566237449645996,-0.09208694100379944,0.003347039222717285,0.036573946475982666,-0.11714154481887817,0.7200907559839872,-0.5972151368749627,0.3119144243210521,0.16586996173872906,-0.8581339015671176,1.4294886366156896,1.2086584042147779
1773062767024597504,3.1648783683776855,0.45609962940216064,0.8224117159843445,-0.18059368431568146,0.6467435956001282,0.7573459148406982,-0.09027688205242157,-0.022521793842315674,0.010293245315551758,-0.12058430910110474,0.7203062119273078,-0.5965457144251651,0.3146343421128904,0.16216480520034282,-0.8592391461122015,1.4321056413075974,1.2015654586725326
1773062767034634240,3.174915313720703,0.6053487658500671,0.8788808584213257,-0.2123289853334427,0.6460136771202087,0.7581425905227661,-0.08880294114351273,-0.053759098052978516,-0.003916025161743164,-0.11568009108304977,0.7207036691259942,-0.5956216690671472,0.31754268272099756,0.15807461367017736,-0.8604599492172701,1.4341895311153836,1.193071754791783
1773062767044670464,3.1849513053894043,0.7674764394760132,0.932659387588501,-0.21533870697021484,0.645179033279419,0.7589354515075684,-0.08809595555067062,-0.055716753005981445,0.0016998648643493652,-0.11931675672531128,0.7214508196934588,-0.594210348870606,0.32072742935834264,0.15348176395162896,-0.8616767373163531,1.435090590452095,1.1822086999879313
1773062767054706432,3.1949872970581055,0.9984886050224304,0.8918456435203552,-0.19398094713687897,0.6444090008735657,0.7594999074935913,-0.08886611461639404,-0.033767521381378174,0.03597134351730347,-0.12721359729766846,0.7227437389418653,-0.5920535011818759,0.32409812360946677,0.14857541854471254,-0.8625439750886537,1.4337573812595532,1.1683308758419635
1773062767064742400,3.2050232887268066,1.112333059310913,0.8394298553466797,-0.14872537553310394,0.6438729166984558,0.7596466541290283,-0.09145806729793549,2.1457672119140625e-06,0.0835844874382019,-0.09811711311340332,0.7246366425170689,-0.5890743766041672,0.32750930724072197,0.1436342011430986,-0.8627696563897839,1.4296965830654398,1.1515710486540292
1773062767074779392,3.215060234069824,0.9121547341346741,0.8368415236473083,-0.12322346866130829,0.6436267495155334,0.7595537304878235,-0.09392856806516647,0.03944814205169678,0.07151609659194946,-0.12813256680965424,0.7263950839713699,-0.5861305726276036,0.3308876961653414,0.13897617226803746,-0.862626727797052,1.425882914812807,1.1355096604476504
1773062767084815360,3.2250962257385254,0.5217192769050598,0.8366055488586426,-0.13346031308174133,0.6434484124183655,0.7596950531005859,-0.09400714188814163,0.053038954734802246,-0.02824985980987549,-0.17985759675502777,0.727199116762682,-0.5842919601717103,0.33406486758757414,0.13485130484748245,-0.8628440006585427,1.42572375227409,1.124231413880624
1773062767094851328,3.2351322174072266,0.19310683012008667,0.8777886629104614,-0.14293797314167023,0.6431982517242432,0.7602542638778687,-0.0911557599902153,0.022634267807006836,-0.1541447639465332,-0.1527712345123291,0.7268719378750192,-0.5838286680865745,0.33699585656588293,0.13128215464685045,-0.8637044299415846,1.4300112516339651,1.1186524165866827
1773062767104887296,3.2451682090759277,0.09513578563928604,0.96290522813797,-0.14932796359062195,0.6428742408752441,0.7611057758331299,-0.0862000435590744,-0.02373373508453369,-0.23765313625335693,-0.09170215576887131,0.7257840404874993,-0.5842104716518447,0.33999720910783776,0.1278179510962123,-0.8650162129914408,1.437505949620893,1.116355796693403
1773062767114924288,3.2552051544189453,0.30738359689712524,0.9716928601264954,-0.0873255655169487,0.642749011516571,0.7617575526237488,-0.08123555034399033,-0.05981755256652832,-0.22126072645187378,-0.050508856773376465,0.7247013963548445,-0.5844020864100927,0.34330223862738524,0.12420027333333174,-0.8660216544371016,1.4450752489665646,1.1134133845350827
1773062767124960256,3.2652411460876465,0.7449694871902466,0.8776127696037292,0.017849674448370934,0.6432340741157532,0.761553168296814,-0.07929089665412903,-0.0607144832611084,-0.07873743772506714,-0.007089145481586456,0.7246623930385332,-0.5831154212432987,0.34688753028891267,0.12045761092847954,-0.8657062052088064,1.4481459523338711,1.105263306088718
1773062767134996480,3.2752773761749268,1.0204728841781616,0.8388275504112244,0.08420020341873169,0.6443455815315247,0.7604659199714661,-0.0806865394115448,-0.0019048452377319336,0.07670754194259644,-0.022325508296489716,0.7257750926536611,-0.580235706428091,0.3506896825132735,0.11659217264747859,-0.8640302747375143,1.4462222894076304,1.0914968448441944
1773062767145032448,3.285313367843628,0.9700306057929993,0.8685392737388611,0.13678117096424103,0.645882248878479,0.7589213252067566,-0.082913838326931,0.061820387840270996,0.10504657030105591,-0.10650879144668579,0.7271518524293225,-0.5768314638906469,0.35469499872113025,0.11272616563849686,-0.8616550186179768,1.4431216174234944,1.0761727383331676
1773062767155069440,3.2953503131866455,0.7078743577003479,0.9078957438468933,0.16812683641910553,0.647796630859375,0.7572133541107178,-0.0835915058851242,0.057403624057769775,0.023197412490844727,-0.1287192702293396,0.7279228468573582,-0.573953049327684,0.358862291767095,0.10919750326699684,-0.8590361248676054,1.4424657392131617,1.0635202992067816
1773062767165105408,3.3053863048553467,0.43940746784210205,0.9156020879745483,0.1585395485162735,0.6498004794120789,0.7556712031364441,-0.08197754621505737,0.006479978561401367,-0.09595751762390137,-0.06261473149061203,0.7278198383976376,-0.5720695318396345,0.36297062718672474,0.10614619868873049,-0.8566783295628146,1.4453012760734631,1.0551775904820846
1773062767175141376,3.315422296524048,0.4221203625202179,0.9441772699356079,0.1797252595424652,0.6518116593360901,0.754252016544342,-0.07902675867080688,-0.03152668476104736,-0.1806895136833191,0.0013595297932624817,0.7272111658712141,-0.5707482145081698,0.3670600730548139,0.10333041056198736,-0.8545141645565423,1.4501435035444223,1.0492255739664305
1773062767185177344,3.325458288192749,0.6170259714126587,1.0276625156402588,0.283661812543869,0.6543053388595581,0.7523641586303711,-0.07637379318475723,-0.04360276460647583,-0.16383254528045654,0.030505888164043427,0.7267082673145283,-0.5689917807426009,0.3715662200788366,0.10040993857565925,-0.8516436627571754,1.4545971451571593,1.0420036731192162
1773062767195214336,3.3354952335357666,0.9379914999008179,0.9982060790061951,0.40494322776794434,0.6576952338218689,0.7494817972183228,-0.07559183239936829,-0.03222215175628662,-0.060104966163635254,0.012267880141735077,0.7268609091523582,-0.5659852930111785,0.3766493475506596,0.09730980457598465,-0.8472790127556763,1.4563639996708875,1.030775145687409
1773062767205250304,3.3455312252044678,1.0990568399429321,0.9288679957389832,0.46129733324050903,0.6617000699043274,0.7458048462867737,-0.0769934430718422,0.005719244480133057,0.04518020153045654,-0.01809930056333542,0.7277508972958113,-0.5618401766626457,0.38188858693206557,0.09420879578601676,-0.8417422218903202,1.454960207249702,1.015991030542475
1773062767215286272,3.355567216873169,0.9729995727539062,0.9536106586456299,0.5109359622001648,0.6660595536231995,0.7417483329772949,-0.07857541739940643,0.04782289266586304,0.07221651077270508,-0.03397339582443237,0.728628771114758,-0.55764329570749,0.38697060301019853,0.09158518423086542,-0.8356734535850548,1.4533685164136312,1.0019068979630037
1773062767225322240,3.36560320854187,0.8170096278190613,1.0266398191452026,0.552315890789032,0.6708015203475952,0.7374614477157593,-0.07858637720346451,0.042760491371154785,0.015819132328033447,-0.036037616431713104,0.7289253458685055,-0.5538788439322556,0.39233281569658995,0.08922424028195197,-0.829303973411951,1.454174972293052,0.990114511189133
1773062767235359232,3.3756401538848877,0.6697538495063782,1.08181631565094,0.5507912039756775,0.6757067441940308,0.7331414222717285,-0.07696671783924103,-0.017763078212738037,-0.06578314304351807,0.002519078552722931,0.7286430528847819,-0.5505834553378933,0.397962937772287,0.08696308248158763,-0.8229297873279032,1.4573796407501765,0.9804021438869502
1773062767245395200,3.385676145553589,0.652199923992157,1.1436066627502441,0.5511010885238647,0.6805576682090759,0.728934645652771,-0.0741320550441742,-0.08418315649032593,-0.1259835958480835,0.025456488132476807,0.7279314561778536,-0.5476874578223624,0.40369842908421766,0.08474548267812947,-0.8167644139154042,1.4622957141604862,0.9722672424954125
1773062767255431424,3.395712375640869,0.9885497093200684,1.2588582038879395,0.61726975440979,0.6856620907783508,0.7243686318397522,-0.07181745022535324,-0.13382798433303833,-0.10542631149291992,0.04723554849624634,0.7274524905714043,-0.5440835406272471,0.40995655255103564,0.08198580932396475,-0.8101181215189361,1.4664351032901362,0.9615736806408735
