time,seconds_elapsed,rotationRateX,rotationRateY,rotationRateZ,gravityX,gravityY,gravityZ,accelerationX,accelerationY,accelerationZ,quaternionW,quaternionX,quaternionY,quaternionZ,pitch,roll,yaw
1773064962241145344,0.12779736518859863,0.8872790336608887,0.1072656512260437,-1.2338149547576904,0.3134388327598572,-0.574020266532898,-0.7564765810966492,-0.025459706783294678,0.09634387493133545,0.06998366117477417,-0.19013061807791676,0.10161793289927466,-0.33381957153027647,-0.9176538602589766,0.6114071693450588,0.39280735248775517,2.6075668675802897
1773064962251183616,0.13783550262451172,0.8381825089454651,0.12793724238872528,-1.2667200565338135,0.32167959213256836,-0.5763838291168213,-0.7512016892433167,-0.07886645197868347,0.11871170997619629,0.06000906229019165,-0.19618258758279963,0.10349504639605112,-0.33717640756484474,-0.9149389490319335,0.614296529984297,0.4045948407213196,2.5892178718368384
1773064962261221376,0.1478734016418457,0.8705300688743591,0.17295478284358978,-1.1431288719177246,0.329805463552475,-0.5788482427597046,-0.7457634806632996,-0.09501847624778748,0.1254485845565796,0.08517992496490479,-0.20193630168913804,0.10537343890911612,-0.34060932113378173,-0.9121971256492762,0.6173155361730753,0.4163809207113571,2.5713616010469726
1773064962271259392,0.1579113006591797,0.8447980880737305,0.2385721504688263,-1.0307581424713135,0.3376578092575073,-0.58161461353302,-0.7400753498077393,-0.0644797682762146,0.0901595950126648,0.05443698167800903,-0.2069946705076772,0.10729924818350756,-0.3441644855754871,-0.9095002672918743,0.620712176438269,0.42803750885923303,2.554842584937122
1773064962281297408,0.16794943809509277,0.8716651797294617,0.318168967962265,-1.029770851135254,0.34570470452308655,-0.5844221711158752,-0.7341246604919434,-0.06453099846839905,0.08819109201431274,0.03420400619506836,-0.21163835645226386,0.1094477651653241,-0.3477913927533272,-0.9067919398088403,0.6241677829804978,0.44010380695811446,2.538940183825417
1773064962291335424,0.17798733711242676,0.9078385233879089,0.35611048340797424,-1.1489137411117554,0.3545835316181183,-0.5871237516403198,-0.7277061343193054,-0.10585001111030579,0.11704623699188232,0.04910200834274292,-0.2164814735833292,0.11193891613448516,-0.3515915323337857,-0.9038743826079622,0.6275011182310181,0.45340536903792206,2.52203082437512
1773064962301373440,0.18802547454833984,0.9639651775360107,0.41910862922668457,-1.2133857011795044,0.36439573764801025,-0.5896432399749756,-0.720788836479187,-0.15091004967689514,0.13595372438430786,0.05091279745101929,-0.221691304501037,0.11476701978832483,-0.3555757359153363,-0.9006926790543671,0.6306170309196455,0.4680787629306609,2.5036978201984725
1773064962311411456,0.19806337356567383,1.0382250547409058,0.4075467884540558,-1.1822339296340942,0.374406099319458,-0.5924437046051025,-0.7133235931396484,-0.16006585955619812,0.14319443702697754,0.03897666931152344,-0.227018498331395,0.11758090014448377,-0.359879047040898,-0.8972872633772486,0.6340888060718817,0.48334940296470547,2.4845790523349005
1773064962321449472,0.20810151100158691,1.0471941232681274,0.6203812956809998,-1.2611184120178223,0.38540342450141907,-0.5952856540679932,-0.7050526142120361,-0.09957578778266907,0.11374878883361816,0.012562990188598633,-0.23202917807682402,0.12099864738915582,-0.3644626333930921,-0.8936939085783548,0.6376210870329597,0.5002527635989361,2.4652988077379367
1773064962331487488,0.2181394100189209,1.0192137956619263,0.6051576137542725,-1.4412063360214233,0.3978959023952484,-0.5971096754074097,-0.6965190768241882,-0.0142136812210083,0.06944555044174194,-0.04179263114929199,-0.23763378756451028,0.12505874510079648,-0.36891838280927575,-0.889825633269285,0.6398931084389385,0.5190216400755695,2.4441767019374177
1773064962341525248,0.22817730903625488,1.0708284378051758,0.6723781824111938,-1.4398033618927002,0.41098955273628235,-0.5985093116760254,-0.6876584887504578,-0.04860857129096985,0.06327676773071289,0.10411661863327026,-0.24357688435051736,0.12931440224278273,-0.37342810460873704,-0.8857198066330705,0.6416390814103078,0.5387009937713644,2.4218956975405
1773064962351563520,0.23821544647216797,0.9837632179260254,0.7042199969291687,-1.3720592260360718,0.42420968413352966,-0.5997194051742554,-0.6785151362419128,-0.10816964507102966,0.04669511318206787,0.12526202201843262,-0.24919511145194573,0.13376219557179383,-0.37795514923002765,-0.8815664901166219,0.6431504276391968,0.5587452538660646,2.4000617330765777
1773064962361601280,0.24825334548950195,0.8096696734428406,0.6664718389511108,-1.2271296977996826,0.4367063045501709,-0.6001869440078735,-0.6701219081878662,-0.0727689266204834,0.016919732093811035,0.07312178611755371,-0.2542620518311585,0.13813716450408153,-0.3819125216446991,-0.877731138522329,0.6437348131725362,0.577556658270828,2.3801786102838065
1773064962371639552,0.25829148292541504,0.7226966619491577,0.6830136179924011,-1.0792655944824219,0.44816434383392334,-0.6001304388046265,-0.6625648736953735,-0.02866971492767334,0.023943305015563965,0.10490190982818604,-0.25855743125885106,0.14235208842114921,-0.3852965818379218,-0.8743171798413779,0.643664195064305,0.5947164977910219,2.3628875418882473
1773064962381677312,0.268329381942749,0.7345005869865417,0.6286585330963135,-0.9941688179969788,0.4587649405002594,-0.6001971960067749,-0.65520840883255,0.016180068254470825,0.0456165075302124,0.09029752016067505,-0.2623101373359555,0.14631855549208145,-0.38857005045804915,-0.8710898428778076,0.6437475911148489,0.6108479162396504,2.3470991632295557
1773064962391715584,0.2783675193786621,0.5124225616455078,0.6362270712852478,-0.9113858938217163,0.46851831674575806,-0.5999473929405212,-0.6485011577606201,0.06065651774406433,0.03726428747177124,0.07867693901062012,-0.2656990968459424,0.1500336421053656,-0.39145795831476254,-0.8681328147353645,0.6434353504109258,0.6256434888721466,2.3328072105969784
1773064962401753344,0.2884054183959961,0.3537636995315552,0.5950785875320435,-0.9249605536460876,0.4780327379703522,-0.5983536839485168,-0.6430066823959351,0.08008798956871033,0.011454880237579346,0.09872567653656006,-0.2687933906341371,0.15395486827438393,-0.3934393762068751,-0.8655943130902478,0.6414447818795325,0.6392852804210387,2.3203875612169744
1773064962411791360,0.2984433174133301,0.2972013056278229,0.5372498035430908,-0.9428073763847351,0.48731178045272827,-0.5958860516548157,-0.6383158564567566,0.059822678565979004,-0.0199282169342041,0.10120648145675659,-0.27198877577543246,0.15784000002369689,-0.3948779497720901,-0.8632381976446896,0.6383685182338911,0.652043308138685,2.30858522018555
1773064962421829376,0.30848145484924316,0.338850736618042,0.4464498460292816,-0.924126386642456,0.4960630536079407,-0.5932608246803284,-0.6340054869651794,0.039932429790496826,-0.05444425344467163,0.06450176239013672,-0.2753118088069112,0.161410410990616,-0.3961614908561645,-0.8609332685481049,0.6351034923877653,0.6639335046316219,2.2969388012943717
1773064962431867392,0.31851935386657715,0.39469727873802185,0.39541715383529663,-0.8580760955810547,0.5040104985237122,-0.5911440849304199,-0.6297000050544739,0.06343334913253784,-0.03619050979614258,0.011261224746704102,-0.2786334085961815,0.16446992860195184,-0.39761747113285856,-0.8586113012378596,0.6324765564596507,0.6749834793587243,2.2853511167758915
1773064962441905408,0.32855749130249023,0.3866047263145447,0.3686124384403229,-0.8328104615211487,0.5114138126373291,-0.5893246531486511,-0.6254216432571411,0.09437531232833862,0.0178525447845459,-0.03882390260696411,-0.28183396998344046,0.1672434559110208,-0.39914760256799436,-0.8563178571508533,0.6302226679563614,0.6854471061622164,2.2741030141872156
1773064962451943424,0.3385953903198242,0.36248141527175903,0.3212655484676361,-0.8609625697135925,0.5185670256614685,-0.5872959494590759,-0.6214271783828735,0.1136656403541565,0.029983937740325928,-0.041399359703063965,-0.28507972220179084,0.1698927232626945,-0.40052824906799084,-0.8540744211718497,0.6277138208181481,0.6954131730441169,2.2630697213803437
1773064962461980416,0.3486323356628418,0.3398621380329132,0.2642771005630493,-0.9020599722862244,0.5255909562110901,-0.5848798751831055,-0.6177941560745239,0.10076701641082764,-0.011723518371582031,0.0009881258010864258,-0.28856925205150863,0.17241937143434755,-0.40171443774446963,-0.8518361426177364,0.6247319781058,0.7049317658787289,2.251874984676323
1773064962472018432,0.3586704730987549,0.30418360233306885,0.1937873512506485,-0.9229320883750916,0.5323628187179565,-0.58200603723526,-0.6147021055221558,0.060379981994628906,-0.042566657066345215,0.010881364345550537,-0.29229359538040295,0.17477447365345813,-0.4026199470887221,-0.8496560577152563,0.621193407785775,0.7137384994034305,2.240713213104072
1773064962482056448,0.36870837211608887,0.3593240976333618,0.17709572613239288,-0.9603047370910645,0.5389207005500793,-0.5789508819580078,-0.6118664145469666,0.02812647819519043,-0.027982711791992188,0.006321370601654053,-0.2961737056342907,0.1769699465328331,-0.4034209115307791,-0.8474753751313627,0.6174414189274047,0.7220951658034259,2.2294822282539983
1773064962492094464,0.37874650955200195,1.3809300661087036,-0.13153427839279175,-1.9043697118759155,0.5478280782699585,-0.5765866041183472,-0.6061620116233826,0.022972702980041504,0.0020169615745544434,0.0032109618186950684,-0.30305650082436,0.17885617352062796,-0.4061150843832926,-0.8433492205893505,0.6145447514368888,0.7348913664643456,2.2085467625288953
1773064962502132480,0.38878440856933594,1.6659154891967773,-0.10091005265712738,-2.004884719848633,0.5587313771247864,-0.574948787689209,-0.5977066159248352,0.012740790843963623,0.013593196868896484,-0.03934788703918457,-0.31323114660465756,0.1800225332667022,-0.4107780318399721,-0.8371018917450251,0.612541576882359,0.7517080798887645,2.1771941872560236
1773064962512170240,0.3988223075866699,1.348494291305542,0.0004385396605357528,-1.4413269758224487,0.5684877634048462,-0.5741419792175293,-0.5892221927642822,-0.0008608102798461914,0.0720820426940918,-0.14857077598571777,-0.32198022868776166,0.18101969123089884,-0.41547657413390565,-0.8312279900744539,0.6115558213324613,0.7674902181357206,2.148925999626668
1773064962522208512,0.408860445022583,1.0907589197158813,-0.052345044910907745,-1.1186192035675049,0.5755482912063599,-0.5740999579429626,-0.5823689103126526,0.11134135723114014,0.15646690130233765,-0.06661790609359741,-0.32828609561175054,0.1815819946285751,-0.41933700196812324,-0.8266878636286317,0.611504452081718,0.7795077935990293,2.1276888061833605
1773064962532246272,0.418898344039917,1.0659009218215942,-0.1729593425989151,-1.3264427185058594,0.5818091630935669,-0.573309063911438,-0.5769008994102478,0.12885361909866333,0.07245463132858276,0.04998445510864258,-0.3344608125432681,0.18188650634957254,-0.42245335792073485,-0.8225486555309184,0.6105388762540278,0.7896341163331848,2.1080754469503007
1773064962542284544,0.4289364814758301,1.2136425971984863,-0.24768896400928497,-1.6263455152511597,0.5890883803367615,-0.5711260437965393,-0.5716554522514343,-0.004234254360198975,-0.08266723155975342,0.06895458698272705,-0.3420468514534005,0.18223914236563477,-0.4253953191302246,-0.8178213185527328,0.607877017306865,0.800415796845562,2.0854915855472864
1773064962552322304,0.43897438049316406,1.417810320854187,-0.3034263849258423,-1.7187719345092773,0.5972021222114563,-0.5685364603996277,-0.5657879710197449,-0.0643957257270813,-0.004019021987915039,0.020713508129119873,-0.3507598186479365,0.18246316870805612,-0.42873442820807994,-0.8123186577635829,0.6047257146436757,0.8124031166131545,2.0596182010497204
1773064962562360576,0.44901251792907715,1.6182688474655151,-0.346816748380661,-1.596382737159729,0.6048567295074463,-0.5670595169067383,-0.5590991377830505,0.045839011669158936,0.18714618682861328,-0.027509689331054688,-0.3596094219499901,0.18203950882640724,-0.43279561812323497,-0.8063687631018265,0.6029314688432479,0.824690049596494,2.032244151386037
1773064962572398336,0.45905041694641113,1.787411093711853,-0.39772215485572815,-1.5831005573272705,0.6117416620254517,-0.5669620037078857,-0.5516576170921326,0.10397171974182129,0.17088961601257324,-0.04218393564224243,-0.36833960693455425,0.180850430330967,-0.43756636480509603,-0.8000966193596953,0.6028130973456046,0.8369976030700599,2.003908037680002
1773064962582436352,0.4690883159637451,1.8201038837432861,-0.3869749903678894,-1.7598142623901367,0.6190027594566345,-0.5666505098342896,-0.5438223481178284,0.0728611946105957,0.07678234577178955,-0.021866679191589355,-0.377504766612295,0.17953585756855947,-0.4425558616391225,-0.7933481811460571,0.6024350025096976,0.8499615462407245,1.9739667399900516
1773064962592474368,0.4791264533996582,1.7727348804473877,-0.3220062255859375,-1.8415331840515137,0.6274470090866089,-0.5649577379226685,-0.5358479619026184,0.014810681343078613,0.03434860706329346,0.004781067371368408,-0.3870981279444319,0.17878867397385012,-0.447337269711714,-0.7861800211226669,0.6003820192955167,0.8639770680089969,1.9430237243104123
1773064962602512384,0.4891643524169922,1.7908755540847778,-0.3114057779312134,-1.6788825988769531,0.6357582211494446,-0.563249409198761,-0.5277892351150513,-0.0060127973556518555,0.036851704120635986,0.016207873821258545,-0.39636901180408096,0.17802107559467112,-0.45212153134087246,-0.7789647427655769,0.598313072246222,0.8779261289247929,1.9125930732471301
1773064962612550400,0.4992024898529053,1.7970833778381348,-0.29719793796539307,-1.5697027444839478,0.6432578563690186,-0.5623522996902466,-0.5195951461791992,0.00784987211227417,0.019597172737121582,-0.010632514953613281,-0.4049199792011968,0.17690653347170912,-0.4570629151749324,-0.7719049858682185,0.5972277941706369,0.8913442345197538,1.8833551401281252
1773064962622588416,0.5092403888702393,1.7862958908081055,-0.2539580762386322,-1.7505598068237305,0.651085376739502,-0.5609293580055237,-0.5113179087638855,-0.0059896111488342285,0.010010838508605957,-0.04021096229553223,-0.41347140129172005,0.17595817911800826,-0.4619304721294497,-0.7646569525007841,0.5955079550646857,0.9050637452578689,1.8539881409892711
1773064962632626432,0.5192785263061523,1.8875905275344849,-0.21483607590198517,-1.9893392324447632,0.6604267358779907,-0.5578488707542419,-0.5026341080665588,-0.04293406009674072,0.010683953762054443,-0.07306468486785889,-0.42277240825438667,0.17562194674358522,-0.4667331851417267,-0.7566904557787549,0.5917916288269779,0.9202449496341004,1.8226820150330842
1773064962642664448,0.5293164253234863,1.9805222749710083,-0.1439395397901535,-2.1225099563598633,0.6710978746414185,-0.5536826848983765,-0.4930141866207123,-0.04205441474914551,0.02563709020614624,-0.10598477721214294,-0.43272391716233527,0.1756706111548458,-0.4718397440566838,-0.7478348734765956,0.5867801997673738,0.9371994511570556,1.788961357938473
1773064962652702208,0.5393543243408203,2.2318015098571777,-0.22233527898788452,-1.9064075946807861,0.6814941763877869,-0.5501396059989929,-0.4826095700263977,-0.00995492935180664,0.040068864822387695,-0.08623805642127991,-0.4426011185977881,0.17523384476435605,-0.47748122332550325,-0.7385180715059928,0.5825314393079503,0.9546122299533046,1.754118983018651
1773064962662740480,0.5493924617767334,2.3696885108947754,-0.28251394629478455,-1.577848196029663,0.6898351907730103,-0.5493585467338562,-0.4715214669704437,0.03648310899734497,0.025676965713500977,-0.09178724884986877,-0.451620112774452,0.17326169874314187,-0.4839624509739277,-0.7292461378208571,0.581596392475669,0.9712113660567946,1.719308467369027
1773064962672778240,0.5594303607940674,2.2537789344787598,-0.3527417480945587,-1.4868944883346558,0.6967487931251526,-0.5496299266815186,-0.4609207510948181,-0.009065747261047363,-0.00176161527633667,-0.1419844925403595,-0.4598990081788878,0.1705448444067464,-0.49036118059788103,-0.7203840333145064,0.5819211809299241,0.9863578147305689,1.6860579143394983
1773064962682816512,0.5694684982299805,2.1967310905456543,-0.47483012080192566,-1.524888277053833,0.7031707167625427,-0.5491818189620972,-0.4516085982322693,-0.15611261129379272,0.005053400993347168,-0.11285978555679321,-0.468234157757991,0.16762283908918746,-0.49608293536246645,-0.7117310622892965,0.5813848561681134,0.9998913681172996,1.6538363244420886
1773064962692854528,0.5795063972473145,2.204227924346924,-0.5732108950614929,-1.5029165744781494,0.7092031836509705,-0.5482535362243652,-0.4432257115840912,-0.21243798732757568,0.02798992395401001,-0.08102047443389893,-0.4767756180324083,0.16436843871055049,-0.5013682921892356,-0.7030632919222775,0.5802745369503378,1.012223666109196,1.6217921490624116
1773064962702892288,0.5895442962646484,2.2554550170898438,-0.5436479449272156,-1.4599519968032837,0.7148489356040955,-0.5474923849105835,-0.43502077460289,-0.09924834966659546,0.0694650411605835,-0.06194275617599487,-0.48516972455780444,0.16078373568391208,-0.5065947167877194,-0.6943491378977208,0.5793646841142983,1.0241143329951308,1.5898510971177364
1773064962712930560,0.5995824337005615,2.316352367401123,-0.5116296410560608,-1.469614028930664,0.7206104397773743,-0.5468278527259827,-0.42626285552978516,0.05853384733200073,0.11953598260879517,-0.033881187438964844,-0.4934279517244623,0.15707269120628023,-0.5120514999666277,-0.6853177390670594,0.5785707221484115,1.0366278780133062,1.5572568301316747
1773064962722968320,0.6096203327178955,2.293832778930664,-0.4888804256916046,-1.3870201110839844,0.7263808846473694,-0.5461786389350891,-0.4172048270702362,0.12817233800888062,0.1489771008491516,0.04688924551010132,-0.5014116119927614,0.15332118328226926,-0.517581108823345,-0.6761574745427684,0.5777955033143711,1.0494424361458183,1.5246909369029171
1773064962733006592,0.6196584701538086,2.1090941429138184,-0.4468710422515869,-1.3183850049972534,0.7318700551986694,-0.54549640417099,-0.4084113538265228,0.15712225437164307,0.11460351943969727,0.1507667899131775,-0.5088465744238003,0.14967094435695003,-0.5228698953280618,-0.6672936143521765,0.5769812714185296,1.061802788624754,1.4935991974897205
1773064962743044352,0.6296963691711426,1.6184401512145996,-0.27059000730514526,-1.2213021516799927,0.7372961044311523,-0.5436656475067139,-0.40102633833885193,0.15409183502197266,-0.027196168899536133,0.22327673435211182,-0.5155044799559771,0.1469555206369705,-0.5271535916083883,-0.6593695876032027,0.5747984424808945,1.0726369694558389,1.4666267974762637
1773064962753082624,0.6397345066070557,1.388269066810608,-0.3738354444503784,-1.2469794750213623,0.7425332069396973,-0.5408716201782227,-0.3950979709625244,0.12415075302124023,-0.19510555267333984,0.2910330295562744,-0.5215969435152158,0.14495895474279422,-0.5305072263360537,-0.6522926213028225,0.571473023922433,1.0818038476117258,1.443234142449199
1773064962763120384,0.6497724056243896,0.8737311959266663,-0.3480038642883301,-1.417040467262268,0.748327910900116,-0.5352761149406433,-0.3917716145515442,-0.022482454776763916,-0.3864462971687317,0.23036408424377441,-0.5276569395779402,0.1444657944354603,-0.5322065669977852,-0.6461146303451747,0.5648346318956107,1.0885029217072604,1.4242628416841112
1773064962773158400,0.6598103046417236,0.8589372634887695,-0.4096681475639343,-1.4778677225112915,0.7546370625495911,-0.5275747179985046,-0.3901127576828003,-0.10279673337936401,-0.30358678102493286,0.318228542804718,-0.5339939476714493,0.1448996794654941,-0.5328674295578814,-0.6402397797731046,0.5557431378037955,1.093677554014056,1.4073947100917985
1773064962783196416,0.6698484420776367,1.0315303802490234,-0.49636736512184143,-1.4071509838104248,0.7604762315750122,-0.520256519317627,-0.38859865069389343,-0.04018515348434448,-0.11237281560897827,0.1634095013141632,-0.5405086557852711,0.14478979486881063,-0.533607147103083,-0.6341526858407326,0.5471513134227022,1.0983923951062924,1.3897494234914838
1773064962793233408,0.6798853874206543,1.259966492652893,-0.6308286190032959,-1.296828269958496,0.765291154384613,-0.5143534541130066,-0.3870012164115906,0.023176193237304688,0.03595989942550659,0.021461695432662964,-0.5471398320432478,0.14349665608805992,-0.5347037518096053,-0.6278045538008507,0.5402535276798279,1.1026059066136653,1.3705990483471377
1773064962803271424,0.6899235248565674,1.4446996450424194,-0.7367361187934875,-1.2113261222839355,0.7690606117248535,-0.509991466999054,-0.3852978050708771,0.06472533941268921,0.11246955394744873,-0.022508591413497925,-0.5538766856428763,0.14094854262192708,-0.5361759155375964,-0.6211839212180025,0.5351748993863749,1.1063506761053237,1.349829558607984
1773064962813309440,0.6999614238739014,1.4712554216384888,-0.8146058320999146,-1.1526901721954346,0.7720978856086731,-0.5065498948097229,-0.38376036286354065,0.0664488673210144,0.0981484055519104,-0.03269773721694946,-0.5606520357877518,0.1376088713189851,-0.5377579537876546,-0.6144505183095174,0.5311786288790129,1.109522803194642,1.3283131829686714
1773064962823347456,0.7099993228912354,1.3295650482177734,-0.8852224349975586,-1.0716731548309326,0.7744747400283813,-0.503301203250885,-0.38324522972106934,0.03430211544036865,0.03635174036026001,0.034002065658569336,-0.5673252150828466,0.13403939382326965,-0.538897792923628,-0.6080828848601592,0.5274148783745699,1.111280936443822,1.307931841185634
1773064962833385472,0.7200374603271484,1.146714210510254,-0.9183852076530457,-0.9318573474884033,0.7760310769081116,-0.5002716183662415,-0.38406282663345337,0.0345921516418457,-0.033709704875946045,0.12672334909439087,-0.5736436509617071,0.13045227514271507,-0.5393985443504162,-0.6024653434342347,0.5239124434905997,1.1112317958023896,1.2898976421747264
1773064962843423488,0.7300753593444824,1.0156307220458984,-0.9116297960281372,-0.9008797407150269,0.7770414352416992,-0.4973384141921997,-0.3858253061771393,0.07146930694580078,-0.1124790608882904,0.14925307035446167,-0.5795519075910784,0.1270475983588133,-0.5393943356701137,-0.5975218267709379,0.5205281666097202,1.109927617803889,1.274085391112187
1773064962853461504,0.7401134967803955,0.9951795935630798,-0.8671275973320007,-1.057773470878601,0.7784110307693481,-0.49363744258880615,-0.38781240582466125,0.08023160696029663,-0.15212973952293396,0.13808709383010864,-0.5854811804270105,0.12410442124334439,-0.5391585075327426,-0.5925521469983369,0.5162673933000839,1.1085814878524283,1.2587908784053565
1773064962863499520,0.7501513957977295,1.2125797271728516,-0.828628659248352,-1.3661891222000122,0.7810332775115967,-0.48846131563186646,-0.38909196853637695,0.04376530647277832,-0.12547603249549866,0.12197163701057434,-0.5919747143613358,0.12166622520158583,-0.5391209055366234,-0.5866105072800459,0.5103255213023145,1.108609051674281,1.2415041385087007
1773064962873537280,0.7601892948150635,1.450308084487915,-0.8582047820091248,-1.4057468175888062,0.7846034169197083,-0.48256614804267883,-0.389265239238739,0.04269760847091675,-0.08849403262138367,0.09644907712936401,-0.599270016572602,0.11896857757327092,-0.5396423453999366,-0.5792306287051175,0.5035822171150991,1.1102495822808014,1.2203752900534055
1773064962883575552,0.7702274322509766,1.4175118207931519,-0.7660607695579529,-1.2096871137619019,0.7877684831619263,-0.47788023948669434,-0.3886532187461853,0.12781983613967896,-0.038202524185180664,0.0615047812461853,-0.6061374309805155,0.11576932349182636,-0.5406208100975317,-0.5717727319160061,0.498239980449388,1.1124750807660793,1.1987261306628834
1773064962893613312,0.7802653312683105,1.343510627746582,-0.7519979476928711,-1.1481496095657349,0.7903751730918884,-0.47405824065208435,-0.3880409002304077,0.1766657829284668,0.0005627572536468506,0.0487159788608551,-0.6122976092931006,0.11254582385723436,-0.5415837764251453,-0.5648999680107927,0.4938941392964619,1.1144085601314244,1.1787208026890674
1773064962903651584,0.7903034687042236,1.3049858808517456,-0.7676293849945068,-1.2367995977401733,0.7931599020957947,-0.46965670585632324,-0.38771095871925354,0.06076759099960327,-0.04296225309371948,0.013916432857513428,-0.618490321799607,0.10958872579257438,-0.5423419929637923,-0.5579651384148783,0.4889019032558323,1.1161341661848339,1.1590436484564495
1773064962913689344,0.8003413677215576,1.339745283126831,-0.7512414455413818,-1.17082679271698,0.7959704995155334,-0.46507805585861206,-0.3874703347682953,-0.027431130409240723,-0.05774909257888794,-0.028835147619247437,-0.6246444920194313,0.10669605410682893,-0.5430292715870307,-0.5509576349926871,0.4837227646577961,1.1177726128374192,1.1394534904375104
1773064962923727616,0.8103795051574707,1.6834510564804077,-0.7934932708740234,-0.9757550954818726,0.7978833317756653,-0.46244552731513977,-0.38668641448020935,0.05554080009460449,-0.02229568362236023,-0.004686236381530762,-0.6303670832743747,0.1028139850921997,-0.5441379225466997,-0.5440409588640653,0.4807513970285935,1.1195118034954508,1.1192473021678706
1773064962933765376,0.8204174041748047,1.7372560501098633,-0.7905994057655334,-0.9387023448944092,0.7992076277732849,-0.4614059627056122,-0.38519054651260376,0.1578999161720276,-0.05177760124206543,-0.0033897459506988525,-0.6359907549177594,0.09784399122223975,-0.5457392026042764,-0.5367597693028767,0.47957926998603717,1.1216800717870687,1.0972086623943835
1773064962943803392,0.8304553031921387,1.7038730382919312,-0.6065158247947693,-0.8967868685722351,0.8006114363670349,-0.4608668386936188,-0.38291385769844055,0.1751728653907776,-0.09028062224388123,0.01252204179763794,-0.6411686517575732,0.09286360840141443,-0.5476489945533161,-0.5294899761772267,0.47897170257651933,1.1246778302494909,1.0752104818688
1773064962953841408,0.8404934406280518,1.7154322862625122,-0.5018818378448486,-1.0796693563461304,0.8030378818511963,-0.4594869911670685,-0.37947577238082886,0.1452958583831787,-0.10504242777824402,-0.012934476137161255,-0.6460506545807763,0.0886102810492131,-0.5499184803903161,-0.5218777486106493,0.47741750332704963,1.129348636614157,1.0530491497426837
1773064962963879424,0.8505313396453857,1.7026715278625488,-0.39045464992523193,-1.103758454322815,0.8064451813697815,-0.45701518654823303,-0.3752111792564392,0.03507715463638306,-0.12664881348609924,-0.07139837741851807,-0.6509178612888709,0.08493992133670682,-0.5524306493403391,-0.5137233094818132,0.47463652241852694,1.1353203256952173,1.0302138716782006
1773064962973917440,0.8605694770812988,1.8239691257476807,-0.4153750538825989,-0.8668898344039917,0.8095786571502686,-0.4554423391819,-0.37034398317337036,0.033301591873168945,-0.07820332050323486,-0.09230250120162964,-0.6552239790092833,0.08106291848542133,-0.555208805241599,-0.5058196624977335,0.47286899726574,1.1417620263231316,1.0078053683964319
1773064962983955456,0.8706073760986328,1.9071835279464722,-0.36243247985839844,-0.7361280918121338,0.8116610050201416,-0.45600467920303345,-0.36505645513534546,0.0989987850189209,-0.028889119625091553,-0.07821136713027954,-0.6590750751347152,0.0760286885701795,-0.5582933038353284,-0.49814487407283836,0.4735007570020744,1.148138111757131,0.9848557579957485
1773064962993993472,0.8806455135345459,1.8258627653121948,-0.2756344676017761,-0.7319019436836243,0.8138697147369385,-0.45680665969848633,-0.35908740758895874,0.11934256553649902,-0.08637568354606628,-0.09142830967903137,-0.6624646777665393,0.07112329413218225,-0.5616028549700531,-0.4905958010161108,0.4744021082841492,1.1552761895022505,0.9622890184776454
1773064963004031488,0.8906834125518799,1.7855116128921509,-0.2382282316684723,-0.7357829809188843,0.8163434267044067,-0.45720764994621277,-0.3529088795185089,0.07785212993621826,-0.13025569915771484,-0.0403711199760437,-0.6656074808499418,0.06658594129224685,-0.5648998735548694,-0.4831368248403351,0.4748529381902339,1.1627550439453893,0.9403391879521268
1773064963014069248,0.9007213115692139,1.776611566543579,-0.16491766273975372,-0.6732674837112427,0.8188831806182861,-0.45765507221221924,-0.34638461470603943,0.09635430574417114,-0.15954768657684326,-0.013692319393157959,-0.6684567875096432,0.06215020859767107,-0.5682825442236358,-0.4757708311398138,0.4753560593951541,1.1706239967411571,0.9187184078919206
1773064963024106496,0.9107584953308105,1.9039663076400757,-0.16621436178684235,-0.6279910802841187,0.8213343620300293,-0.4586036801338196,-0.33925312757492065,0.1289525032043457,-0.15270918607711792,-0.038295090198516846,-0.670987338354882,0.057494250280286784,-0.5718984560723082,-0.4684043950984067,0.4764232538258887,1.1790898021442602,0.896842191383861
1773064963034144512,0.9207963943481445,2.1305906772613525,-0.1769781857728958,-0.5899404883384705,0.8235796689987183,-0.46031907200813293,-0.33139556646347046,0.10894596576690674,-0.09713026881217957,-0.07653290033340454,-0.6734670251959308,0.05206571037631735,-0.5758397200001706,-0.4605866274937742,0.4783545790512028,1.188236178910986,0.8731626659281947
1773064963044182272,0.9308342933654785,2.4107351303100586,-0.18206454813480377,-0.5407018661499023,0.8256595730781555,-0.46305838227272034,-0.3222784101963043,0.07590597867965698,-0.014648526906967163,-0.13870489597320557,-0.6758234564092679,0.0456347518114101,-0.5803260040606305,-0.45210834051809967,0.4814427223445028,1.1986552151554488,0.8468876629645836
1773064963054220544,0.9408724308013916,2.677539348602295,-0.23038707673549652,-0.49069809913635254,0.8274266719818115,-0.46686699986457825,-0.31209054589271545,0.06850850582122803,0.07128286361694336,-0.12920889258384705,-0.6781215682917862,0.038037354025930725,-0.5852417297965623,-0.44294082577016874,0.48574465732703204,1.2101139303326467,0.8178230584749455
1773064963064258304,0.9509103298187256,2.8734772205352783,-0.24178726971149445,-0.4336042106151581,0.8288646936416626,-0.4715985059738159,-0.3009624183177948,0.09618431329727173,0.10909542441368103,-0.0612354576587677,-0.680317253995669,0.02937490286494392,-0.590470920396371,-0.4331856146829103,0.49110265510679457,1.2224973698694284,0.786298408622622
1773064963074296576,0.9609484672546387,2.8499317169189453,-0.18405327200889587,-0.4093035161495209,0.8302294015884399,-0.4766130745410919,-0.28906604647636414,0.12568795680999756,0.06581595540046692,0.012271583080291748,-0.6822247977755059,0.020324681086261683,-0.595863981073748,-0.4232048745613514,0.49679801538730495,1.235747263783273,0.7537775693990302
1773064963084334336,0.9709863662719727,2.6216208934783936,-0.07440906763076782,-0.3367108106613159,0.8316859006881714,-0.48126837611198425,-0.27691033482551575,0.12388050556182861,-0.03583672642707825,0.11045217514038086,-0.6836141327563149,0.011782911997147542,-0.6011705241269341,-0.4136749006792575,0.5021011178636958,1.2493902710987292,0.7226678519521401
1773064963094372608,0.9810245037078857,2.478090763092041,-0.03404686599969864,-0.2558816075325012,0.8329894542694092,-0.48568737506866455,-0.2650213837623596,0.08764958381652832,-0.10403430461883545,0.21584230661392212,-0.6844779016323365,0.0038682499437549906,-0.6061966271399793,-0.4049699588463486,0.5071493562617664,1.262766136705639,0.693948962328739
1773064963104410368,0.9910624027252197,2.5032148361206055,-0.04856588691473007,-0.21160762012004852,0.834012508392334,-0.49022799730300903,-0.2531791031360626,0.060381412506103516,-0.11600366234779358,0.26242595911026,-0.6850491559355656,-0.004033687364478839,-0.6110598847562506,-0.3966071705779787,0.5123513372423016,1.2760698273213846,0.6659275914300737
1773064963114447360,1.0010993480682373,2.5950868129730225,-0.09757417440414429,-0.20551402866840363,0.8348769545555115,-0.49479934573173523,-0.24115169048309326,0.0654374361038208,-0.10517624020576477,0.17675960063934326,-0.6855663941096322,-0.012289103007943185,-0.6158515505224225,-0.3880394109641102,0.5176039068516864,1.2896027969084367,0.6370619402067462
1773064963124485376,1.0111374855041504,2.7805137634277344,-0.11642482876777649,-0.2324439138174057,0.8357336521148682,-0.4992339611053467,-0.22872380912303925,0.08456963300704956,-0.07489320635795593,0.04413820803165436,-0.686112223723977,-0.02101339070674104,-0.62064203292269,-0.3789615102461688,0.5227144690777996,1.3036574707246986,0.6065766020128044
1773064963134523392,1.0211753845214844,3.061471939086914,-0.2061612457036972,-0.24895191192626953,0.8366346955299377,-0.5036719441413879,-0.21530649065971375,0.07504737377166748,-0.054937005043029785,-0.07213851809501648,-0.6866872868711144,-0.030609983945333034,-0.6256275121623905,-0.3689359673377555,0.5278440009036542,1.3189136862005488,0.5730291026849019
1773064963144561408,1.0312135219573975,3.2246809005737305,-0.34505465626716614,-0.16676968336105347,0.8371573686599731,-0.5084518194198608,-0.2016044408082962,0.030823588371276855,-0.05737459659576416,-0.12339252233505249,-0.68738063491213,-0.041300438374672524,-0.6304697107047554,-0.3582040210326432,0.533385897495829,1.3344759281506835,0.5368212687289313
1773064963154599424,1.0412514209747314,3.2481706142425537,-0.39256560802459717,-0.040572743862867355,0.8369419574737549,-0.5139387249946594,-0.18813563883304596,0.016848266124725342,-0.0652085542678833,-0.09358738362789154,-0.6879941408623713,-0.052838215511784546,-0.6349333072706383,-0.34746480003720454,0.5397700112000763,1.3496823936955522,0.4996624903247144
1773064963164637440,1.0512893199920654,3.1749465465545654,-0.40402066707611084,-0.0037457551807165146,0.8363069295883179,-0.5196770429611206,-0.17471851408481598,0.039837539196014404,-0.1173163652420044,-0.03385382890701294,-0.6883165338973717,-0.06457178176248725,-0.6391175378881842,-0.3370157647631587,0.5464728729994699,1.3648418641098135,0.462766407410237
1773064963174675456,1.0613274574279785,3.0720505714416504,-0.3210538625717163,-0.038778308779001236,0.8358181715011597,-0.5247617959976196,-0.1613483726978302,0.04299664497375488,-0.16685813665390015,0.02021978795528412,-0.688400989696178,-0.07588293412968396,-0.643092212674223,-0.3267696365373493,0.5524352544223547,1.3800995950593333,0.42668972803718513
1773064963184713472,1.0713653564453125,3.0518620014190674,-0.307069331407547,-0.0705905631184578,0.8356248140335083,-0.5290098786354065,-0.14791825413703918,0.0412367582321167,-0.144894540309906,0.029235422611236572,-0.688277763479476,-0.08672257003914159,-0.6469312689132086,-0.31659578912832415,0.557433374690824,1.3955960539880998,0.3912371036747639
1773064963194751488,1.0814034938812256,3.3347792625427246,-0.3406202495098114,-0.09834669530391693,0.8356388807296753,-0.5327697992324829,-0.13365736603736877,0.03960543870925903,-0.07944333553314209,0.018987581133842468,-0.6879935365723843,-0.0979405237877829,-0.6508294464306195,-0.30576745148587375,0.5618702147569556,1.412193392319203,0.35385971712582026
1773064963204789504,1.0914413928985596,3.6254050731658936,-0.37339580059051514,-0.0649581179022789,0.8356418013572693,-0.5364658236503601,-0.11792861670255661,0.025487899780273438,-0.03383135795593262,-0.0687016174197197,-0.6874697792567246,-0.11024691313463848,-0.6548903027748142,-0.2938530273618822,0.5662437257114884,1.4305987437961354,0.3127201018849535
1773064963214827264,1.1014792919158936,3.7791624069213867,-0.3748090863227844,-0.024294307455420494,0.8354583978652954,-0.5401861667633057,-0.10103551298379898,0.016058266162872314,-0.007009267807006836,-0.14652305841445923,-0.6865914450005072,-0.12343110398410995,-0.6589742063310198,-0.2812649341322952,0.5706582980789477,1.450446540756027,0.26887289591160024
1773064963224865536,1.1115174293518066,3.8477442264556885,-0.40351051092147827,-0.01866172067821026,0.8352034091949463,-0.5435642004013062,-0.08350568264722824,-0.010374307632446289,-0.009795725345611572,-0.10118668526411057,-0.6854113709090858,-0.13706660652425764,-0.6629177192597194,-0.26826118629796597,0.5746776025184999,1.471145044530085,0.22346340682145613
1773064963234903296,1.1215553283691406,3.6760189533233643,-0.3657129406929016,0.003741722321137786,0.8349648118019104,-0.5463122129440308,-0.06615491956472397,-0.05174654722213745,-0.05669981241226196,-0.040458254516124725,-0.684007819661118,-0.15050542997854355,-0.6665363133699131,-0.2553637458131895,0.5779549707232227,1.4917307142386917,0.1784894389684158
1773064963244941568,1.1315934658050537,3.6639304161071777,-0.263091504573822,0.047219958156347275,0.8346831202507019,-0.548580527305603,-0.04861428961157799,-0.06733399629592896,-0.11070597171783447,0.02143842726945877,-0.6821337678027471,-0.1635115420568935,-0.6700424094724667,-0.24290030541035057,0.5806655227669957,1.5126192393836402,0.13467533672323073
1773064963254979328,1.1416313648223877,3.5264344215393066,-0.20193640887737274,0.12496601790189743,0.8341102004051208,-0.5507445335388184,-0.03066912479698658,-0.058551788330078125,-0.15323489904403687,0.011504115536808968,-0.6797412474143236,-0.17640881985010495,-0.6734577686656921,-0.23083841373738856,0.583255999009016,1.5340442104290706,0.09143607795386775
1773064963265017600,1.1516695022583008,3.4064455032348633,-0.1493712067604065,0.12002266198396683,0.8333442211151123,-0.552600085735321,-0.013049012050032616,-0.02432340383529663,-0.08750605583190918,0.030901793390512466,-0.6770360984034832,-0.18881155136690916,-0.6766281787308845,-0.2194230315217724,0.58548070072813,1.5551389965916005,0.049939007709255634
1773064963275055360,1.1617074012756348,3.5061352252960205,-0.12849082052707672,0.013892892748117447,0.8329381346702576,-0.5533441305160522,0.004947215784341097,0.004815161228179932,0.036116957664489746,0.03905916213989258,-0.6740424811905665,-0.2008618302649448,-0.6798000684157901,-0.2078297099649255,0.5863736804963698,1.5767357325595934,0.008500386071057747
1773064963285093376,1.1717453002929688,3.856029987335205,-0.13765288889408112,-0.09256377071142197,0.8331953883171082,-0.5524484515190125,0.024207143113017082,0.01197350025177002,0.09645479917526245,-0.008765224367380142,-0.6707194631196353,-0.2132116832128845,-0.6831137164457319,-0.19501728949957384,0.5852987416301798,1.599841536655815,-0.03562864190344596
1773064963295131392,1.1817834377288818,4.267535209655762,-0.20234493911266327,-0.1077849417924881,0.8338438272476196,-0.550147294998169,0.045193105936050415,0.02899491786956787,0.08583760261535645,-0.04491841793060303,-0.6669470958638006,-0.2266419550430793,-0.6864619276024915,-0.18051322039054757,0.5825406132009168,1.6249418778657854,-0.08437662237066132
1773064963305169408,1.1918213367462158,4.369810581207275,-0.23525947332382202,-0.03979923203587532,0.83438640832901,-0.5470614433288574,0.06725277006626129,0.04702216386795044,0.021976113319396973,-0.06241573393344879,-0.6626917819760005,-0.24110438290272626,-0.6895615001375841,-0.16496401826183604,0.5788497796217742,1.6512239323145748,-0.13645584834337976
1773064963315207424,1.201859474182129,4.023550033569336,-0.20509864389896393,0.023728346452116966,0.8345955610275269,-0.5437136888504028,0.08846316486597061,0.02583223581314087,-0.04677093029022217,0.015967965126037598,-0.6582155301141213,-0.25521037481606895,-0.6921699546197838,-0.15006923679121364,0.5748557099690573,1.6763972751000555,-0.18665023909693884
1773064963325245440,1.211897373199463,3.7180731296539307,-0.1003088429570198,0.06991874426603317,0.834496259689331,-0.5402904748916626,0.1081777885556221,-0.020287156105041504,-0.08727306127548218,0.1752542406320572,-0.653645879220429,-0.26818166445608405,-0.6943828121032043,-0.1365952587852204,0.570782272506502,1.6997098695455275,-0.23248255649655164
1773064963335283456,1.221935510635376,3.663499593734741,-0.01648118905723095,0.145033597946167,0.8340075612068176,-0.5368078351020813,0.12754833698272705,-0.06124156713485718,-0.14376461505889893,0.22503648698329926,-0.6487244751247656,-0.28059107692665836,-0.6964501516372729,-0.12402557458397412,0.5666490528965322,1.7225547241922814,-0.27600157748217863
1773064963345321472,1.23197340965271,3.7421751022338867,-0.005601909011602402,0.2232610285282135,0.8330153226852417,-0.5332568883895874,0.14738506078720093,-0.06914520263671875,-0.16925770044326782,0.16551171243190765,-0.6433049831390074,-0.29326167517213647,-0.698348136929269,-0.11165168640005399,0.5624458765100971,1.7459136258092316,-0.3197966242672295
1773064963355359232,1.242011308670044,3.7935898303985596,-0.059481654316186905,0.251691073179245,0.8317742943763733,-0.5293158888816833,0.16726037859916687,-0.04106396436691284,-0.12588119506835938,0.07410310208797455,-0.637609784939045,-0.30628655233078694,-0.6998705166619726,-0.09911353649268269,0.5577940322229403,1.769238463207008,-0.3643511449335593
1773064963365397504,1.252049446105957,3.7225966453552246,-0.04042007774114609,0.2075478583574295,0.8306427001953125,-0.5245451331138611,0.18677599728107452,-0.016937196254730225,-0.06479507684707642,0.014136433601379395,-0.63176348372364,-0.3191188987376425,-0.7011070724136128,-0.08652729569786824,0.5521807557240619,1.7919748513569989,-0.40843089361940776
1773064963375435264,1.262087345123291,3.716733932495117,-0.061952270567417145,0.16347838938236237,0.829765260219574,-0.5187763571739197,0.20581746101379395,-0.024009644985198975,-0.03438526391983032,0.053337812423706055,-0.6257948940473059,-0.3314942337785981,-0.7021540430913186,-0.0739734773041771,0.5454190079879442,1.8139322477725879,-0.45140239033114005
1773064963385473536,1.272125482559204,3.759512186050415,-0.12198790907859802,0.14111822843551636,0.8291964530944824,-0.51192307472229,0.22442850470542908,-0.02057206630706787,-0.06272292137145996,0.13706746697425842,-0.6197222243497592,-0.34375509019027495,-0.7028845513552986,-0.06107529669921082,0.5374219891271589,1.8351211841560302,-0.49430401241071376
1773064963395511296,1.282163381576538,3.64398193359375,-0.1180524230003357,0.1704232394695282,0.8287079930305481,-0.5045038461685181,0.2423197627067566,-0.0005372166633605957,-0.12498223781585693,0.10820508003234863,-0.6136068385268751,-0.3558138085282468,-0.7032470494431269,-0.048236429027589046,0.5288071994709085,1.8552722924021114,-0.5364169859162017
1773064963405549568,1.2922015190124512,3.5717709064483643,-0.046922050416469574,0.232600599527359,0.8278928399085999,-0.497126966714859,0.25972694158554077,-0.005795180797576904,-0.1414991021156311,0.08977565169334412,-0.6073220946031809,-0.3675777141983889,-0.7033847386309834,-0.03600507084735688,0.5202844504877533,1.874792690450022,-0.5770481786844218
1773064963415587328,1.3022394180297852,3.5272867679595947,-0.003630237653851509,0.2594844102859497,0.8267199397087097,-0.489628404378891,0.27712488174438477,-0.012312591075897217,-0.1431993842124939,0.06259679794311523,-0.6007099756307476,-0.37921788946551793,-0.7033891035541554,-0.02418893773259847,0.5116635315190351,1.894235020615869,-0.6168916117948892
1773064963425625344,1.3122773170471191,3.5333352088928223,-0.026601066812872887,0.22428274154663086,0.8255565762519836,-0.48158589005470276,0.2941625118255615,-0.021876096725463867,-0.10311564803123474,0.04714608192443848,-0.593938488364954,-0.390634737800654,-0.7031968137176215,-0.012485744232451804,0.5024633587216146,1.913090513846153,-0.655990509481787
1773064963435663360,1.3223154544830322,3.6891322135925293,-0.0517297238111496,0.13597646355628967,0.8248041272163391,-0.4721301198005676,0.3111129105091095,-0.03415477275848389,-0.0321880578994751,0.048216313123703,-0.5868930715368301,-0.40196857104327116,-0.702835487834959,-0.00021697481820318675,0.4917056272514444,1.9314909661726025,-0.6953879561272363
1773064963445700352,1.3323523998260498,3.869138717651367,-0.1010192409157753,0.0766601413488388,0.8245571851730347,-0.4608622193336487,0.3281940519809723,-0.04736608266830444,0.011460423469543457,-0.025276601314544678,-0.5794265644592861,-0.41338723013150475,-0.7022877068281871,0.012952569394967526,0.47896650534476465,1.9495986311183908,-0.7357849046057844
1773064963455738368,1.3423902988433838,3.9338181018829346,-0.11731339246034622,0.08682236075401306,0.8245914578437805,-0.4482933580875397,0.345082551240921,-0.04315835237503052,0.00870293378829956,-0.07042434811592102,-0.5716143300895484,-0.4249569869374113,-0.70139349192556,0.026753641347163723,0.4648551726759971,1.967139299002671,-0.7769481361739329
1773064963465776384,1.3524284362792969,3.6869843006134033,-0.05820666253566742,0.09456709772348404,0.8244630098342896,-0.4354104697704315,0.3614949882030487,-0.01837158203125,-0.04669103026390076,-0.045012444257736206,-0.5635946229886588,-0.436197213965232,-0.7003424021150813,0.04017060134868521,0.4504941732141208,1.9840131885803671,-0.8168363880084849
1773064963475814400,1.3624663352966309,3.549342155456543,-0.041244588792324066,0.0708022490143776,0.8243102431297302,-0.42270511388778687,0.3766069710254669,-0.024932920932769775,-0.09893178939819336,0.06772881746292114,-0.5557997215919479,-0.44663004436443443,-0.6991602794084387,0.05275513969382594,0.43642814402731483,1.9993530219694955,-0.8538768942956969
1773064963485852416,1.372504472732544,3.4290781021118164,0.04668340086936951,0.07509127259254456,0.8240094184875488,-0.4098701477050781,0.39117148518562317,-0.023594379425048828,-0.1353873908519745,0.08719158172607422,-0.5479218192946633,-0.456537717365623,-0.6979678051800665,0.06477649390207213,0.42231168842593786,2.0140139495884766,-0.8890963303314222
1773064963495890432,1.382542371749878,3.4045801162719727,0.14910537004470825,0.07353225350379944,0.823269784450531,-0.3968730568885803,0.40585559606552124,-0.015866219997406006,-0.13475844264030457,0.07511675357818604,-0.5396814028722978,-0.4661676770185385,-0.6968611764459013,0.07626411983119223,0.40810758632907496,2.0288122530838173,-0.9231776566703405
1773064963505928448,1.392580509185791,3.108978271484375,0.21103425323963165,0.06030752882361412,0.8222934007644653,-0.3838052749633789,0.4201509356498718,0.010088682174682617,-0.12766927480697632,0.060424596071243286,-0.531343754351599,-0.4753137548427001,-0.6958105360552775,0.08716791141582181,0.39391367493696233,2.0431656413615795,-0.9555502160565412
1773064963515966464,1.402618408203125,2.721808433532715,0.2908068597316742,0.06378215551376343,0.8209911584854126,-0.37186843156814575,0.43322861194610596,0.03842949867248535,-0.11947980523109436,0.05354192852973938,-0.5235158870890542,-0.4833053614188656,-0.695003765757002,0.09652295891733126,0.3810209867144782,2.056349565290618,-0.9837276751786865
1773064963526004224,1.412656307220459,2.5424580574035645,0.33327680826187134,0.1369844526052475,0.8192302584648132,-0.36107319593429565,0.4455198347568512,0.04403567314147949,-0.15829020738601685,0.08731710910797119,-0.5160306979092255,-0.490658456950557,-0.6942724170420361,0.10465376685959148,0.36941848081028833,2.0688881038963682,-1.0092100369662194
1773064963536042496,1.422694444656372,2.3670566082000732,0.3245150148868561,0.20136743783950806,0.817113995552063,-0.35137927532196045,0.457008957862854,0.057992756366729736,-0.20974737405776978,-0.02469697594642639,-0.5088865516279832,-0.49775724547719674,-0.6933557577862294,0.11193723346218691,0.35904392594177365,2.080748914441623,-1.0332050143109204
1773064963546080256,1.432732343673706,2.319913625717163,0.30682018399238586,0.203313410282135,0.8149165511131287,-0.34226810932159424,0.46772170066833496,0.08831220865249634,-0.15760985016822815,-0.03624892234802246,-0.5020427973356985,-0.5045713707136694,-0.6922922616804744,0.11871050723250735,0.3493297476817734,2.0918414621114705,-1.0559868400843435
1773064963556118528,1.4427704811096191,2.4497904777526855,0.2610183358192444,0.1657380759716034,0.8129527568817139,-0.33249351382255554,0.478074848651886,0.09230530261993408,-0.05233308672904968,-0.007753223180770874,-0.49511861957646364,-0.511328354615661,-0.6910721665397849,0.12577765015231732,0.33894628429463575,2.1023991609631962,-1.0788764910196738
1773064963566156288,1.4528083801269531,2.5975663661956787,0.2066514939069748,0.14010675251483917,0.8113404512405396,-0.32140856981277466,0.4882856607437134,0.0888516902923584,0.058331847190856934,-0.05179283022880554,-0.4878580598768944,-0.5182674704118339,-0.6895952887362253,0.13360978050758143,0.3272166132908736,2.112557294361856,-1.1028821070172956
1773064963576194560,1.4628465175628662,2.584319829940796,0.15086598694324493,0.1645580232143402,0.8099057674407959,-0.3097085654735565,0.49812978506088257,0.10031145811080933,0.11518952250480652,-0.11565294861793518,-0.48045711107959055,-0.5252641735315842,-0.6878680406112814,0.14176065826006917,0.314886508863492,2.122206097411177,-1.1272988845322631
1773064963586232320,1.4728844165802002,2.339998245239258,0.11956612765789032,0.22732821106910706,0.8086041212081909,-0.2988507151603699,0.5068016052246094,0.13121533393859863,0.08365601301193237,-0.1370505690574646,-0.4735728962146594,-0.5319433242613897,-0.6858841729051942,0.1494255066211576,0.3034880895270061,2.1306610456323183,-1.1504624945037034
1773064963596270336,1.4829223155975342,2.1112630367279053,0.10744581371545792,0.2779144048690796,0.8072769641876221,-0.289530873298645,0.5142725110054016,0.16078662872314453,-9.623169898986816e-05,-0.10014891624450684,-0.46741585082329007,-0.5381545338016772,-0.68375870003134,0.15616111619018763,0.2937366839948151,2.1380110609465923,-1.1716267810260719
1773064963606308352,1.4929604530334473,1.9279799461364746,0.11898822337388992,0.29982078075408936,0.8058716058731079,-0.28140199184417725,0.5209451913833618,0.1622222661972046,-0.07679805159568787,-0.05275982618331909,-0.46179186876450873,-0.543944254493078,-0.6816137118571259,0.1620977254513976,0.28525484060083683,2.1446627174697914,-1.1910584650943832
1773064963616346368,1.5029983520507812,1.807508111000061,0.15573078393936157,0.29198551177978516,0.804315984249115,-0.274002343416214,0.5272558331489563,0.135686457157135,-0.07846042513847351,-0.029285192489624023,-0.4564555440026964,-0.5493602098952046,-0.6795816813638315,0.16739319185182966,0.2775521811785844,2.15105147388869,-1.2090476914759118
1773064963626384384,1.5130364894866943,1.77515709400177,0.18531636893749237,0.30010655522346497,0.8026449680328369,-0.26691514253616333,0.5334012508392334,0.10358959436416626,-0.00395888090133667,-0.03517138957977295,-0.4512232872974277,-0.5545585163863818,-0.677617508926836,0.17232752835710646,0.27019060620508467,2.157335173504638,-1.2262271232680848
1773064963636422400,1.5230743885040283,1.797620415687561,0.20282134413719177,0.32136812806129456,0.8007867336273193,-0.25971516966819763,0.5397117137908936,0.10238105058670044,0.04903706908226013,-0.062035322189331055,-0.44580738490938554,-0.5598286010273004,-0.6756091934574013,0.17720027878699393,0.26272724456847274,2.16384275695381,-1.2435748240434794
1773064963646460416,1.5331125259399414,1.6240239143371582,0.21905064582824707,0.3469579219818115,0.7987406849861145,-0.25301045179367065,0.5458931922912598,0.10869961977005005,0.03770890831947327,-0.09023517370223999,-0.440506597571761,-0.5649937109461077,-0.6735938636916541,0.18167955711829714,0.25579068323512943,2.170323084597868,-1.2603446133361944
1773064963656498432,1.5431504249572754,1.3443394899368286,0.24716642498970032,0.378448486328125,0.7965309023857117,-0.24776725471019745,0.5514980554580688,0.1004418134689331,-0.0031635165214538574,-0.07711756229400635,-0.4358305961356291,-0.5696963501509933,-0.6717105819204761,0.18520993128227684,0.2503749735332578,2.1763864883055204,-1.2751358006880291
1773064963666536448,1.5531883239746094,1.1311315298080444,0.2727023959159851,0.39638566970825195,0.7941232919692993,-0.24402649700641632,0.5566144585609436,0.06549596786499023,-0.03542301058769226,-0.04120296239852905,-0.4317881410228187,-0.5739206669132155,-0.6700166386068412,0.18775487720773706,0.24651570985123947,2.182137415322881,-1.287870952566011
1773064963676574464,1.5632264614105225,1.0302314758300781,0.28528863191604614,0.39816081523895264,0.7916078567504883,-0.24118207395076752,0.5614160299301147,0.025149226188659668,-0.03249956667423248,-0.04193061590194702,-0.42814460011932554,-0.5778249965860851,-0.6684506669861785,0.18969480146386816,0.24358369443355923,2.1876766361372795,-1.2992876189577218
1773064963686612480,1.5732643604278564,0.9724213480949402,0.2922341525554657,0.3949410617351532,0.7890205383300781,-0.2386551797389984,0.5661184787750244,-0.007129788398742676,-0.009834185242652893,-0.04599219560623169,-0.42464067410761147,-0.5815748909397769,-0.666955689673434,0.191366182810756,0.2409807777192999,2.1931678103606984,-1.3101066064581053
1773064963696650496,1.5833024978637695,0.9139757752418518,0.28169912099838257,0.3887953758239746,0.7864384651184082,-0.23637691140174866,0.5706489086151123,-0.022034287452697754,0.015414446592330933,-0.041077494621276855,-0.4212945404083653,-0.5851606523210637,-0.6655159367359617,0.19283765210205628,0.2386353970101827,2.198505306387256,-1.320362470290449
1773064963706688512,1.5933403968811035,0.9171300530433655,0.2504298686981201,0.4046715497970581,0.7839604616165161,-0.23421338200569153,0.5749345421791077,-0.01375800371170044,0.029394716024398804,-0.02290213108062744,-0.41807819677018054,-0.588672854037784,-0.6640267534627193,0.19427619725604417,0.23640936916081104,2.2035701934929084,-1.3304245033553035
1773064963716726272,1.6033782958984375,0.8164136409759521,0.2021680623292923,0.408858060836792,0.7817016243934631,-0.23234409093856812,0.5787562727928162,0.005041539669036865,0.017134130001068115,-0.03491777181625366,-0.4151303539143931,-0.5920858208366157,-0.6624292603414265,0.19567485152716985,0.23448704455470412,2.2081122026750877,-1.3402125035546766
1773064963726764544,1.6134164333343506,0.7175187468528748,0.18548308312892914,0.3921435475349426,0.7796476483345032,-0.23107682168483734,0.5820246934890747,0.0019989609718322754,0.021695762872695923,-0.03334927558898926,-0.4126295877629917,-0.5951841850651719,-0.6608843545574985,0.19678509841372568,0.23318431641515444,2.2120682723894247,-1.3489639142992378
1773064963736802304,1.6234543323516846,0.7195003628730774,0.15519268810749054,0.3638339936733246,0.7777567505836487,-0.2298378050327301,0.585037887096405,-0.02923673391342163,0.027017921209335327,-0.007309615612030029,-0.41028324973947794,-0.5980928719834994,-0.6593965925742823,0.19786057216293174,0.231911018025599,2.215711563542097,-1.3572303251110278
1773064963746840576,1.6334924697875977,0.6535674333572388,0.11299677938222885,0.3563457131385803,0.7761447429656982,-0.2285684198141098,0.5876702666282654,-0.045340120792388916,0.00914698839187622,-0.033882856369018555,-0.4081181585660128,-0.6008359942959675,-0.657899111090844,0.19900904367979266,0.23060691403525854,2.2188678047630073,-1.365161868709039
1773064963756878336,1.6435303688049316,0.5468174815177917,0.1019463911652565,0.33169376850128174,0.7747296094894409,-0.2277246117591858,0.5898610353469849,-0.04178875684738159,0.006090641021728516,-0.05769538879394531,-0.4063101635196188,-0.6033005846742513,-0.6564746137274207,0.1999541946000788,0.229740257284726,2.2215388331682555,-1.372217018125262
1773064963766916608,1.6535685062408447,0.5717689394950867,0.09722140431404114,0.2947719693183899,0.7734382152557373,-0.22692863643169403,0.5918588042259216,-0.05653458833694458,0.024200379848480225,-0.053711771965026855,-0.40465113804558667,-0.6055444647317351,-0.6551681517079011,0.20081857925099483,0.22892288292282575,2.223974142207827,-1.3786589202277846
1773064963776953344,1.6636054515838623,0.5765116810798645,0.09844046831130981,0.2636975347995758,0.7722346186637878,-0.22569891810417175,0.5938969254493713,-0.08119457960128784,0.03140878677368164,-0.04540455341339111,-0.4028765738886018,-0.6077315031879967,-0.6539196369121786,0.20184639977040847,0.22766041131691167,2.226386425685826,-1.3851271710880402
1773064963786991360,1.6736433506011963,0.5865685939788818,0.11720030754804611,0.20287227630615234,0.7711130380630493,-0.2239120453596115,0.5960268974304199,-0.08632910251617432,0.03886871039867401,-0.04280424118041992,-0.4009576247459221,-0.6097811481933303,-0.6528249319705902,0.20302590828844594,0.22582660146449382,2.228820378710836,-1.391410592447323
1773064963797029376,1.6836814880371094,0.48067453503608704,0.12517514824867249,0.18332307040691376,0.7700055241584778,-0.22212734818458557,0.598122775554657,-0.08603042364120483,0.03346771001815796,-0.019814670085906982,-0.3991143435656718,-0.6116111946116081,-0.6519149747516187,0.20407435243394872,0.22399578637874248,2.231215771884883,-1.3970332140759112
1773064963807067392,1.6937193870544434,0.32530707120895386,0.1267072558403015,0.1927730292081833,0.7688641548156738,-0.2211267352104187,0.5999592542648315,-0.07278859615325928,0.00805296003818512,-0.025038540363311768,-0.39766592892229524,-0.6131468330314955,-0.6511763039810391,0.2046515426107756,0.22296965941863892,2.233420867688006,-1.401479658699518
1773064963817105408,1.7037575244903564,0.2770322561264038,0.10680799186229706,0.194846972823143,0.7677035927772522,-0.22088243067264557,0.601533055305481,-0.06401407718658447,-0.0043220072984695435,-0.018799960613250732,-0.39658152953115533,-0.614477328912837,-0.6505260581746823,0.20483290729838166,0.22271915594305552,2.2354251220292296,-1.4050407937407643
1773064963827143424,1.7137954235076904,0.2957441806793213,0.09502403438091278,0.18052396178245544,0.7666573524475098,-0.2206248790025711,0.6029600501060486,-0.05831402540206909,0.025297164916992188,-0.00968313217163086,-0.3955632591700109,-0.6157615159381029,-0.6498598067246734,0.20505991061440543,0.22245508735163597,2.237238318540876,-1.4085277730874346
1773064963837181440,1.7238333225250244,0.34976691007614136,0.07182098180055618,0.15636669099330902,0.765770673751831,-0.21999698877334595,0.6043150424957275,-0.053093671798706055,0.07291752099990845,-0.001455545425415039,-0.3944769280196992,-0.6170312293151863,-0.6491763811464072,0.20550053342499944,0.22181137715041593,2.2388920037437097,-1.412178271166227
1773064963847219456,1.7338714599609375,0.3930923044681549,0.03299874812364578,0.15536320209503174,0.7651200294494629,-0.21891559660434723,0.6055306196212769,-0.03356790542602539,0.08790360391139984,-0.010498881340026855,-0.3933108921033844,-0.6183291583490604,-0.6484091094930429,0.20625526407311343,0.22070297596714203,2.2402831053089436,-1.4161902690994175
1773064963857257472,1.7439093589782715,0.3632987439632416,0.0023709293454885483,0.12948326766490936,0.7647081613540649,-0.21772265434265137,0.6064806580543518,-0.0038742423057556152,0.07851673662662506,-0.010945260524749756,-0.39223284621338594,-0.6195653376229957,-0.6475948755200167,0.20715504703570642,0.21948054390768842,2.241308252821917,-1.4201767190341699
1773064963867295488,1.7539474964141846,0.3706738352775574,-0.011255932971835136,0.08111893385648727,0.7645208835601807,-0.2163056582212448,0.6072229743003845,0.007360219955444336,0.0768708735704422,0.034271836280822754,-0.3912297862829638,-0.6206134601829172,-0.646877439082081,0.2081532511812622,0.21802895094035185,2.2420231532114663,-1.4237768978133565
1773064963877333504,1.7639853954315186,0.41928619146347046,-0.015466656535863876,0.05661918595433235,0.7644627690315247,-0.2143956571817398,0.6079732179641724,-0.0012332797050476074,0.06028185784816742,0.04884141683578491,-0.3901057713645608,-0.6215993845188056,-0.6462204071308034,0.2093584170209265,0.21607305204394342,2.242661629348323,-1.4274164459426393
1773064963887371264,1.7740232944488525,0.3956543803215027,-0.011800017207860947,0.03402386233210564,0.7644433975219727,-0.21223300695419312,0.6087556481361389,-0.005928993225097656,0.04450838267803192,0.03457009792327881,-0.38891069144006507,-0.6225384263195521,-0.6456188816406568,0.21064338756305453,0.21385945378621718,2.2433006341264288,-1.4310171173240758
1773064963897409536,1.7840614318847656,0.3781110644340515,0.00956892129033804,0.02283884957432747,0.76438969373703,-0.21010877192020416,0.6095589995384216,-0.013230204582214355,0.036768972873687744,0.021132349967956543,-0.38774619133673555,-0.6233773406815972,-0.6451202872501669,0.21183305626710192,0.21168621695287576,2.2439775792099454,-1.4342799110526607
1773064963907447296,1.7940993309020996,0.3656961917877197,0.02476811408996582,0.028547601774334908,0.7642349004745483,-0.20796120166778564,0.6104896068572998,-0.025068461894989014,0.018828481435775757,0.005294203758239746,-0.3865280091382519,-0.6242020133775736,-0.6446833758284208,0.21295873895849826,0.20949013145701734,2.244820126857467,-1.437454088881428
1773064963917485568,1.8041374683380127,0.2860628366470337,0.05116869509220123,0.04166007786989212,0.763934314250946,-0.2062314748764038,0.6114517450332642,-0.027712881565093994,0.007684096693992615,-0.022645533084869385,-0.3854226876268749,-0.6249900636886151,-0.6442928570385105,0.21383072585146448,0.20772207679106292,2.245780082872629,-1.4403013400762026
1773064963927523328,1.8141753673553467,0.24719054996967316,0.07701653987169266,0.030511818826198578,0.7634669542312622,-0.2048964947462082,0.6124832034111023,-0.03580582141876221,0.02087549865245819,-0.02430260181427002,-0.38443075796777826,-0.6256838803398075,-0.6440196196124592,0.21440943036468657,0.2063579597024448,2.246901193775126,-1.4426376079224017
1773064963937561600,1.8242135047912598,0.24912157654762268,0.09720262885093689,0.016796670854091644,0.7628840804100037,-0.20356670022010803,0.6136518120765686,-0.05441850423812866,0.035185977816581726,-0.017490923404693604,-0.38340206336315624,-0.6263332211193188,-0.6438420568786571,0.21488825662416938,0.2049995347249728,2.248204784031712,-1.444771693492879
1773064963947599360,1.8342514038085938,0.25790706276893616,0.1084158718585968,-0.014248330146074295,0.7622456550598145,-0.20202697813510895,0.6149526238441467,-0.05350542068481445,0.055206894874572754,-0.013557910919189453,-0.382280334793969,-0.6269304545275354,-0.6437658809186372,0.21537285955296256,0.2034271276534827,2.249648257347513,-1.446782606417303
1773064963957637376,1.8442893028259277,0.2878413498401642,0.11365217715501785,-0.02715480700135231,0.7615918517112732,-0.20016954839229584,0.6163683533668518,-0.04470348358154297,0.06634996831417084,0.00039190053939819336,-0.38103007036744646,-0.6275081035265335,-0.6437528739809488,0.21594417595193674,0.2015309659158607,2.2511919186499276,-1.4488284016891408
1773064963967675392,1.8543274402618408,0.2559497356414795,0.11304976791143417,-0.03250402957201004,0.7609487771987915,-0.19823473691940308,0.617786169052124,-0.041741132736206055,0.03751392662525177,0.004497706890106201,-0.3797623141839036,-0.6280627418215537,-0.6437625822220303,0.21653509310304775,0.19955658924570932,2.252729044815993,-1.4508343169758415
1773064963977713408,1.8643653392791748,0.18519327044487,0.11653798073530197,-0.05133071914315224,0.7603276968002319,-0.19655171036720276,0.6190874576568604,-0.043164610862731934,-0.0012174397706985474,0.012962102890014648,-0.37865942139177894,-0.6284639198826704,-0.6438764199600339,0.21696388233660838,0.19783978349705914,2.2541587137488976,-1.4522934444412379
1773064963987751424,1.874403476715088,0.1761973798274994,0.10609252750873566,-0.07780227065086365,0.7597541809082031,-0.19494904577732086,0.6202970743179321,-0.053882598876953125,-0.015057653188705444,0.02341020107269287,-0.3776619923615371,-0.6287170910027149,-0.6440988743697003,0.21730829013328865,0.1962055014881708,2.2554842351934647,-1.453292957002937
1773064963997789440,1.8844413757324219,0.170707106590271,0.10331432521343231,-0.10800784826278687,0.7592881321907043,-0.1931450068950653,0.6214309930801392,-0.06046617031097412,-0.013657361268997192,0.016432106494903564,-0.37666995440679024,-0.6288629940732189,-0.6443964756501979,0.21772510896894173,0.19436650247372841,2.2566798449828296,-1.4540846438283295
1773064964007827456,1.894479513168335,0.147753044962883,0.10240139067173004,-0.12991714477539062,0.758873462677002,-0.19123004376888275,0.6225286722183228,-0.056618332862854004,-0.015892744064331055,0.01385432481765747,-0.37569856977974586,-0.6288889852407864,-0.6447968456448694,0.21814261986868935,0.19241515899496453,2.257812816108226,-1.4545698330812344
1773064964017865472,1.904517412185669,0.07695401459932327,0.10302763432264328,-0.12760457396507263,0.7584819197654724,-0.18948373198509216,0.6235392689704895,-0.04878038167953491,-0.04161062836647034,0.03152060508728027,-0.3748461575680535,-0.628799203306821,-0.6452760554172653,0.2184508490216866,0.19063632053963023,2.258861480181108,-1.454654511340638
1773064964027903488,1.914555549621582,6.26987311989069e-05,0.10564685612916946,-0.12825065851211548,0.758074939250946,-0.18830819427967072,0.6243897676467896,-0.039096057415008545,-0.06864979863166809,0.04098498821258545,-0.37426522195836426,-0.6285678041360584,-0.6458307900252183,0.21847358861943522,0.18943924017237285,2.259793640590684,-1.454105201471979
1773064964037941760,1.9245936870574951,-0.02113633044064045,0.10369342565536499,-0.12547564506530762,0.7576597332954407,-0.1874154657125473,0.6251620054244995,-0.03834503889083862,-0.0716940313577652,0.045950114727020264,-0.3738241913625382,-0.6282489510666358,-0.6464396812021129,0.21834507774071243,0.18853032791232277,2.260669205092298,-1.4531889298654705
1773064964047979520,1.934631586074829,-0.05586981028318405,0.1049235388636589,-0.12657099962234497,0.7572434544563293,-0.18671734631061554,0.6258742809295654,-0.047511518001556396,-0.05664506554603577,0.02579796314239502,-0.3734766114832994,-0.6278838074423455,-0.6470696059407489,0.21812373802419838,0.18781966666288408,2.2614981151150437,-1.4520665240767585
1773064964058017792,1.9446697235107422,-0.08655945956707001,0.11004345864057541,-0.13668888807296753,0.756816029548645,-0.1861649602651596,0.6265556216239929,-0.053111255168914795,-0.029426470398902893,0.01449650526046753,-0.3732104733252035,-0.6274347498671531,-0.6477680539653887,0.21779823408316626,0.18725742056491676,2.262309793844175,-1.450632631855254
1773064964068055552,1.9547076225280762,-0.10286066681146622,0.11109993606805801,-0.1390918642282486,0.7563697695732117,-0.1857328563928604,0.6272222995758057,-0.06096583604812622,-0.019253700971603394,0.008443474769592285,-0.37300161456984743,-0.6269319202113164,-0.6485117687718008,0.2173903376387233,0.18681763923483577,2.26312201602035,-1.4489854495310275
1773064964078093824,1.9647457599639893,-0.1566711664199829,0.11201979219913483,-0.14199711382389069,0.7559191584587097,-0.18548595905303955,0.627838671207428,-0.05245840549468994,-0.03388965129852295,0.014449656009674072,-0.3728847101888124,-0.6263679600449416,-0.6492938486009417,0.21688185398963533,0.18656638432146672,2.263897532245017,-1.4470889354265855
1773064964088130816,1.9747827053070068,-0.21198101341724396,0.11110499501228333,-0.14547893404960632,0.7554882764816284,-0.18556281924247742,0.6283342242240906,-0.03824895620346069,-0.04682852327823639,0.010413944721221924,-0.37294960800145965,-0.6256709257917606,-0.65015613550195,0.2161977911290052,0.18664459110417597,2.264565668851575,-1.444689151940094
1773064964098168576,1.9848206043243408,-0.24675710499286652,0.11767981201410294,-0.13662470877170563,0.7550354599952698,-0.18593288958072662,0.6287692785263062,-0.03030383586883545,-0.056605592370033264,0.014236271381378174,-0.37314308264532586,-0.6249038440157999,-0.6510605499435083,0.21535953837567326,0.18702122773721097,2.2652008041560188,-1.441969161532401
1773064964108206848,1.994858741760254,-0.27906525135040283,0.11841937154531479,-0.13248829543590546,0.754524290561676,-0.18655773997306824,0.6291974186897278,-0.024421632289886475,-0.06805041432380676,0.023497283458709717,-0.37341889029358166,-0.624107257449634,-0.6519883812484438,0.2143819921900741,0.18765720368989078,2.2658686604043967,-1.4390482535855589
1773064964118244608,2.004896640777588,-0.3075011968612671,0.12356606870889664,-0.12923191487789154,0.7540062069892883,-0.1874067634344101,0.6295662522315979,-0.01313084363937378,-0.06920027732849121,0.02041250467300415,-0.37379538410428886,-0.6232586695126381,-0.6529408415390379,0.21329318045960322,0.1885214737562974,2.266494782734289,-1.4358953687004414
1773064964128282624,2.014934539794922,-0.33307820558547974,0.13048388063907623,-0.12403500825166702,0.7534352540969849,-0.18847902119159698,0.6299296021461487,-0.006868302822113037,-0.0640539824962616,0.02189546823501587,-0.37424455453556604,-0.6223756229427165,-0.6539215431912739,0.2120761763372456,0.18961317240037084,2.267151420202926,-1.432541738694288
1773064964138320640,2.024972677230835,-0.34757867455482483,0.13456545770168304,-0.11870869249105453,0.7528372406959534,-0.18969111144542694,0.6302801966667175,-0.00808638334274292,-0.059851109981536865,0.014373064041137695,-0.3747395483157387,-0.6214740179885471,-0.6549123191416462,0.21078446099700354,0.19084753010586156,2.2678160434464245,-1.4290780423521936
1773064964148358656,2.035010576248169,-0.39492300152778625,0.13441285490989685,-0.11207715421915054,0.752204954624176,-0.19115091860294342,0.6305945515632629,-0.014518678188323975,-0.05466817319393158,0.0009363293647766113,-0.3753233160559824,-0.6205415744721489,-0.6559157131198009,0.2093687665177664,0.19233454912662032,2.2684750823501916,-1.4254280884201436
1773064964158396672,2.045048713684082,-0.45461881160736084,0.13303080201148987,-0.1047874167561531,0.7515591979026794,-0.193047896027565,0.6307863593101501,-0.010058343410491943,-0.052298158407211304,-0.003650069236755371,-0.3760982287506827,-0.6195214966978254,-0.6569522752123427,0.2077426211972099,0.19426753488466647,2.2690477095047497,-1.4213682331809687
1773064964168434688,2.055086612701416,-0.4608817398548126,0.1391821652650833,-0.09747225046157837,0.7508870959281921,-0.19522085785865784,0.6309178471565247,-0.005159616470336914,-0.04614268243312836,-0.006421387195587158,-0.37697964292948644,-0.6184568441317337,-0.6580046032229264,0.20597912739973792,0.19648263038188588,2.269590984707484,-1.4170781929318366
1773064964178472704,2.065124750137329,-0.4564380347728729,0.15179291367530823,-0.09190504252910614,0.7501370310783386,-0.19739441573619843,0.6311338543891907,-0.013320624828338623,-0.03362363576889038,-0.0017240047454833984,-0.37780847472499735,-0.6174279773354013,-0.6590520699426924,0.20419071258186391,0.1986993312739847,2.2702518849425015,-1.412868509766857
1773064964188510720,2.075162649154663,-0.46743476390838623,0.15696635842323303,-0.08296507596969604,0.7493345141410828,-0.19966048002243042,0.6313741207122803,-0.02281785011291504,-0.0309455543756485,0.006260097026824951,-0.3786359035715833,-0.616426163583747,-0.6600801871922678,0.2023554685687943,0.20101141568823766,2.2709667793889103,-1.4086956443888108
1773064964198548480,2.085200548171997,-0.4972318112850189,0.15487845242023468,-0.07971441745758057,0.7485094666481018,-0.20209258794784546,0.6315793991088867,-0.013691842555999756,-0.037897661328315735,0.009228765964508057,-0.3795210667989886,-0.6153991130147073,-0.6611154360001705,0.20043493877453009,0.20349413081021708,2.2716698836474034,-1.4043922157552604
1773064964208586752,2.09523868560791,-0.5180486440658569,0.1519566923379898,-0.07678946852684021,0.7476910352706909,-0.20475168526172638,0.6316921710968018,-0.004664301872253418,-0.04326465725898743,0.003470182418823242,-0.3805082315259158,-0.6143251166782621,-0.662156125900248,0.19841229916801423,0.20621001468781733,2.2722971569550423,-1.3998878193846387
1773064964218624512,2.105276584625244,-0.4993964731693268,0.14672477543354034,-0.07552220672369003,0.7469019889831543,-0.2073962688446045,0.6317629814147949,-0.0023798346519470215,-0.0412762314081192,-0.0048250555992126465,-0.3814982512425444,-0.6132510467507754,-0.6631776853901072,0.19641202165577507,0.2089125979695795,2.2728729723443837,-1.3954138609970286
1773064964228662784,2.1153147220611572,-0.49804356694221497,0.1493045836687088,-0.07030054926872253,0.7461027503013611,-0.21001657843589783,0.6318416595458984,-0.010247647762298584,-0.04536978900432587,-0.012380599975585938,-0.3824612602568407,-0.6122015076707321,-0.6641762858484201,0.19442891054849504,0.21159191483342696,2.27346235347601,-1.3910285756869332
1773064964238700544,2.125352621078491,-0.4663824439048767,0.14403219521045685,-0.05493823438882828,0.7453007698059082,-0.2125985324382782,0.6319244503974915,-0.013260424137115479,-0.04271151125431061,-0.005719125270843506,-0.38338538696133423,-0.6112116195959839,-0.6651184779185237,0.19249252817579637,0.2142335190263683,2.274057449413489,-1.3868451703830147
1773064964248738816,2.1353907585144043,-0.4721822738647461,0.13902197778224945,-0.05020792782306671,0.7445210814476013,-0.2151849865913391,0.6319678425788879,0.00012296438217163086,-0.03437246382236481,-0.016443729400634766,-0.384304053841087,-0.6102684237502466,-0.6660002881748244,0.19059471293643712,0.21688125445133047,2.2746076525211727,-1.3828212998644163
1773064964258776576,2.1454286575317383,-0.44698333740234375,0.15341436862945557,-0.06141117960214615,0.7437015771865845,-0.21769025921821594,0.6320751905441284,0.006878256797790527,-0.017493456602096558,-0.002741694450378418,-0.38516595309599033,-0.6093286841489369,-0.6669004078112348,0.18870514279064093,0.21944734317092998,2.275234854573995,-1.3788259273535997
1773064964268814592,2.1554665565490723,-0.4343825876712799,0.15413741767406464,-0.046946488320827484,0.7428447604179382,-0.22005689144134521,0.6322630643844604,-0.004273653030395508,-0.014897927641868591,0.005035459995269775,-0.3859367948781145,-0.6084380747455725,-0.6677833729763012,0.18687227110231694,0.22187278956903192,2.2759504110931355,-1.3750157156165912
1773064964278852608,2.1655046939849854,-0.425650030374527,0.1562342643737793,-0.041682884097099304,0.7419618368148804,-0.22247929871082306,0.6324522495269775,0.0017058253288269043,-0.021142542362213135,-0.011007487773895264,-0.3866982865789225,-0.6076000935032806,-0.6686166780357078,0.1850361627697037,0.2243567720757984,2.2766851958748875,-1.371343324613014
1773064964288890624,2.1755425930023193,-0.40832725167274475,0.15644066035747528,-0.04052067920565605,0.7410642504692078,-0.22481362521648407,0.6326794028282166,-0.0006465911865234375,-0.016733065247535706,-0.02246493101119995,-0.38740607943085026,-0.6067908707992627,-0.6694359906078138,0.18324031732927673,0.22675175344824797,2.2774601647422132,-1.3677881457983225
1773064964298928640,2.1855807304382324,-0.37568187713623047,0.15062658488750458,-0.036364153027534485,0.740178108215332,-0.22703512012958527,0.6329230070114136,-0.0007677078247070312,-0.01635780930519104,-0.029544711112976074,-0.3880565563755369,-0.6060359656747575,-0.6702103385420526,0.1815231186145254,0.22903221603893192,2.278241170097,-1.3644451018049026
1773064964308966656,2.1956186294555664,-0.32140374183654785,0.1489783525466919,-0.03259231522679329,0.7393062710762024,-0.22900007665157318,0.6332343220710754,0.0015844106674194336,-0.017215803265571594,-0.02627009153366089,-0.3885842376548749,-0.605374333653839,-0.6709240420630143,0.17995910095501771,0.2310503345403136,2.2790663268085174,-1.3614759949372626
1773064964319004672,2.2056567668914795,-0.2588740289211273,0.1466454118490219,-0.024150628596544266,0.7384346127510071,-0.23063518106937408,0.6336574554443359,0.00176924467086792,-0.012299984693527222,-0.022039413452148438,-0.3889447373512437,-0.6048411922006377,-0.6715622529035492,0.1785868784673027,0.23273041565479466,2.2799793411344575,-1.3590014043169325
1773064964329042688,2.2156946659088135,-0.2002008855342865,0.1438980996608734,-0.025053972378373146,0.737558126449585,-0.23189614713191986,0.6342178583145142,0.0047362446784973145,-0.0028755664825439453,-0.02308809757232666,-0.3891164192423995,-0.6044460115024384,-0.6721264441508781,0.1774246447016957,0.23402651185148993,2.2810033448716114,-1.357059558625248
1773064964339080448,2.2257325649261475,-0.1526283472776413,0.14305907487869263,-0.02702484466135502,0.7366946935653687,-0.23282089829444885,0.6348820328712463,0.0020442605018615723,0.006777241826057434,-0.03284651041030884,-0.3891351146653632,-0.6041468504578312,-0.6726422526440037,0.17644491046200453,0.23497729423858235,2.282099989061688,-1.355519515379528
1773064964349118720,2.2357707023620605,-0.0922776609659195,0.13927845656871796,-0.024245571345090866,0.7358477115631104,-0.23341694474220276,0.6356452703475952,-0.003425776958465576,0.011935591697692871,-0.03429633378982544,-0.38900388307456973,-0.6039518085108103,-0.6731009174969238,0.17565141152482389,0.23559022262261334,2.2832632155518464,-1.35440294119857
1773064964359156736,2.2458086013793945,-0.04186863824725151,0.1430276483297348,-0.011997160501778126,0.7349823117256165,-0.23370832204818726,0.6365386247634888,-0.011090099811553955,0.003193795680999756,-0.030963122844696045,-0.38870946642816123,-0.6038849832948021,-0.6734925659248052,0.17503036536566158,0.23588988539292943,2.284540363003178,-1.3537583826846307
1773064964369194752,2.2558467388153076,0.02635781839489937,0.13542112708091736,-0.008760620839893818,0.7341061234474182,-0.23370884358882904,0.6375486850738525,-0.009603559970855713,-0.005457401275634766,-0.01964402198791504,-0.3882604747244861,-0.6039510251255353,-0.6738082167433186,0.1745836328786204,0.23589043177905228,2.285915588662937,-1.3535973905285283
1773064964379232768,2.2658846378326416,0.13711123168468475,0.14102867245674133,0.010920672677457333,0.7332092523574829,-0.23320147395133972,0.6387654542922974,-0.00246584415435791,-0.004881426692008972,-0.016710400581359863,-0.3875458160049041,-0.604231489448097,-0.6740081882611757,0.17442910627282104,0.2353686421597348,2.2874650830123944,-1.3542250897702202
1773064964389269504,2.275921583175659,0.2377057522535324,0.15373274683952332,0.04921586439013481,0.7322067022323608,-0.23219822347164154,0.6402791142463684,-0.0011581182479858398,-0.004038333892822266,-0.026616454124450684,-0.3865018032135291,-0.604832262952166,-0.6740307880315031,0.1745760755907388,0.23433706535180723,2.2893154928172885,-1.3559163629077402
1773064964399307776,2.2859597206115723,0.3063083291053772,0.15688779950141907,0.05607243627309799,0.7310729622840881,-0.23083968460559845,0.6420636177062988,-0.002114713191986084,0.00555892288684845,-0.007557332515716553,-0.38518754908255615,-0.6056929822881992,-0.6739197533722889,0.17492520518801266,0.2329405910329607,2.2914631772145526,-1.3584370301286885
1773064964409345536,2.2959976196289062,0.32796037197113037,0.16236485540866852,0.05070190876722336,0.7299199104309082,-0.22916828095912933,0.64397132396698,0.0024562478065490723,0.00732073187828064,0.002787768840789795,-0.38372535816445436,-0.6066199288122439,-0.6737936840913177,0.1754117197143379,0.23122313812079126,2.2937173899713232,-1.3612439437699932
1773064964419383808,2.3060357570648193,0.3912709355354309,0.15997347235679626,0.06293926388025284,0.7287399768829346,-0.22726763784885406,0.6459782719612122,0.010853588581085205,-0.001736268401145935,-0.009869754314422607,-0.3821375114866635,-0.6076402109605636,-0.673618971586729,0.17601686168676645,0.22927098076760863,2.2960643947974835,-1.3643879921509932
1773064964429421568,2.3160736560821533,0.5057711601257324,0.16373412311077118,0.06307961791753769,0.7275448441505432,-0.2248201072216034,0.6481777429580688,0.013421952724456787,-0.014666587114334106,-0.011672616004943848,-0.3802799893577942,-0.60884953306567,-0.6733432382299386,0.17691309951955436,0.22675841538443517,2.2985671609544367,-1.3682568116042788
1773064964439459584,2.3261115550994873,0.5750352144241333,0.1675652116537094,0.07220160216093063,0.7263157963752747,-0.22173860669136047,0.6506131291389465,0.0009791851043701172,-0.02522490918636322,-0.010049164295196533,-0.378104662525941,-0.6102664205226183,-0.6729646846672247,0.17813010967038584,0.22359710760996845,2.301270422861901,-1.372924819431097
1773064964449497600,2.3361496925354004,0.5594980716705322,0.18901671469211578,0.08951134979724884,0.7249591946601868,-0.21862299740314484,0.6531752347946167,-0.003371119499206543,-0.022908344864845276,-0.006980836391448975,-0.37583101637783284,-0.6117805156040738,-0.6725416039531826,0.17934146639218393,0.22040310146731407,2.3041537126855647,-1.3778398770182028
1773064964459535616,2.3461875915527344,0.5950976610183716,0.20950880646705627,0.10093937814235687,0.7234272360801697,-0.21557825803756714,0.6558803915977478,0.007972300052642822,-0.018171146512031555,0.016254007816314697,-0.3734844168561153,-0.6133669701772989,-0.6721020432653229,0.18046943525219708,0.2172839734003762,2.3072620076248618,-1.382876069737309
1773064964469573632,2.3562257289886475,0.6785435676574707,0.24305477738380432,0.1313108652830124,0.7217146158218384,-0.21216395497322083,0.6588734984397888,0.016612350940704346,-0.03173249959945679,0.03665250539779663,-0.37085707054939987,-0.6151518851459669,-0.6715838791934404,0.18173671372085334,0.21378879944820903,2.3107082364195164,-1.3885429461856702
1773064964479611648,2.3662636280059814,0.6733726263046265,0.28897377848625183,0.16292552649974823,0.7196414470672607,-0.20872090756893158,0.662232518196106,0.019067108631134033,-0.04622296988964081,0.02833455801010132,-0.36799246517822276,-0.6171568113645541,-0.6709945763489018,0.18293530845839812,0.2102668840131885,2.314674101259343,-1.394725828701844
1773064964489649664,2.3763017654418945,0.6958454847335815,0.3328608274459839,0.17559923231601715,0.7172043919563293,-0.20543034374713898,0.6658949851989746,0.015293776988983154,-0.04101434350013733,0.048139989376068115,-0.36499163651390004,-0.6192732208574667,-0.6704089622971726,0.18393903259366637,0.20690340615450406,2.319114112184959,-1.4010448876518382
1773064964499687680,2.3863396644592285,0.7506462335586548,0.36780962347984314,0.18696041405200958,0.7144712209701538,-0.2018657624721527,0.66991126537323,0.011938691139221191,-0.043983861804008484,0.07313072681427002,-0.36171548379456026,-0.6215267550927422,-0.6698209577929896,0.184949381985711,0.20326252289575186,2.324017993391323,-1.407736228054921
1773064964509725696,2.3963775634765625,0.75765460729599,0.40933042764663696,0.2044704258441925,0.7114561796188354,-0.19813621044158936,0.6742198467254639,0.013504207134246826,-0.05529703199863434,0.06839495897293091,-0.3582161964892645,-0.6239150253405639,-0.6692084715319999,0.1859336314585679,0.19945606813493447,2.3293286399904973,-1.4147657000050486
1773064964519763712,2.4064157009124756,0.7452520728111267,0.45244500041007996,0.2276477962732315,0.7081280946731567,-0.1945444494485855,0.678754448890686,0.014635145664215088,-0.06824243068695068,0.05003601312637329,-0.3546137158799969,-0.6263874745207807,-0.6685925197581492,0.18674059173134305,0.1957930097355448,2.335018040330536,-1.4218784119378578
1773064964529801728,2.4164535999298096,0.7211773991584778,0.5032903552055359,0.24330264329910278,0.7044529318809509,-0.1911555826663971,0.6835247874259949,0.012572944164276123,-0.0779789388179779,0.05747264623641968,-0.35092268921241154,-0.6289370120221818,-0.6679825039863404,0.18732597522313596,0.1923393087467146,2.3411174868500444,-1.429021841718862
1773064964539839744,2.4264917373657227,0.6567878127098083,0.5954049825668335,0.24913057684898376,0.7002214789390564,-0.18811336159706116,0.6886964440345764,0.006092488765716553,-0.08562928438186646,0.09948086738586426,-0.34712936652292564,-0.6314897691097163,-0.6675094781439611,0.18749091137970803,0.18924086435366613,2.347896850220403,-1.4358495923385735
1773064964549877760,2.4365296363830566,0.5797287225723267,0.6854560375213623,0.26604163646698,0.6952817440032959,-0.18564321100711823,0.6943486332893372,-0.011794745922088623,-0.09701059758663177,0.14636486768722534,-0.3432613900768669,-0.6340376046307802,-0.6672110837580942,0.18707576789425756,0.18672640779961447,2.3555230002674135,-1.4422154326690617
1773064964559915776,2.4465677738189697,0.5288556218147278,0.7632502913475037,0.26735952496528625,0.6897066235542297,-0.18360111117362976,0.7004249095916748,-0.014612138271331787,-0.08629631996154785,0.20059120655059814,-0.33930824980511337,-0.6365570202657517,-0.6670889103042571,0.1861648279990336,0.18464859391832847,2.3639046230442813,-1.4481333666696998
1773064964569953792,2.4566056728363037,0.502461850643158,0.8302764892578125,0.2917407751083374,0.6835578680038452,-0.18187950551509857,0.7068721055984497,-0.005045413970947266,-0.07636024057865143,0.18825411796569824,-0.33524681982469645,-0.6390983038267053,-0.6670752732822331,0.18486058215228357,0.18289749602815247,2.3729605571718024,-1.4538233378063274
1773064964579991552,2.4666435718536377,0.4940645694732666,0.9226683378219604,0.317033976316452,0.6767465472221375,-0.18039435148239136,0.7137728929519653,0.019313514232635498,-0.08553579449653625,0.15362811088562012,-0.3309802698391697,-0.6417740224669951,-0.6670926163777008,0.18320898300492985,0.1813873727614021,2.3828159390427843,-1.4596262666810205
1773064964590029824,2.476681709289551,0.41565951704978943,1.009257435798645,0.33221694827079773,0.6692272424697876,-0.1792924553155899,0.7211030721664429,0.03791099786758423,-0.09800556302070618,0.18285828828811646,-0.3265746207557167,-0.6445033468110176,-0.6672083324746014,0.1811011673884532,0.18026720635280574,2.393489052595597,-1.465257932111031
1773064964600067584,2.4867196083068848,0.3489569127559662,1.1488598585128784,0.347297340631485,0.6607762575149536,-0.17879830300807953,0.728975772857666,0.04306584596633911,-0.09140431880950928,0.2455114722251892,-0.32204167715192755,-0.6472340599678646,-0.6675147560958362,0.17832892818431378,0.17976493611406932,2.4052282986833577,-1.4704397612997866
1773064964610105856,2.496757745742798,0.31570255756378174,1.2897640466690063,0.3612477779388428,0.6511721014976501,-0.17867407202720642,0.7375978231430054,0.051144182682037354,-0.06798425316810608,0.26896345615386963,-0.31718262629509725,-0.6500478622536862,-0.6680094968729704,0.1749179523678493,0.17963867012057075,2.418346193314299,-1.47543672420538
1773064964620143616,2.506795644760132,0.2288372963666916,1.4695261716842651,0.402585506439209,0.6402239799499512,-0.17910979688167572,0.7470157146453857,0.075275719165802,-0.06181119382381439,0.25356394052505493,-0.3119995808246891,-0.6529533409755257,-0.6687000657987467,0.17072866393792077,0.18008154437227086,2.433024398124528,-1.4802021405222139
1773064964630181632,2.516833543777466,0.11694937199354172,1.6512006521224976,0.4459654688835144,0.6276556253433228,-0.1804966777563095,0.7572774291038513,0.1021111011505127,-0.0780024379491806,0.2352151870727539,-0.30653497603492574,-0.6559729359203812,-0.669580621226521,0.16552197950603406,0.1814913983685158,2.449516873081858,-1.4846731570807365
1773064964640219648,2.526871681213379,0.021452808752655983,1.812979817390442,0.4967952370643616,0.6135419607162476,-0.18296225368976593,0.7681738138198853,0.11340194940567017,-0.09830299019813538,0.25286799669265747,-0.3008939880883913,-0.659064158507827,-0.6706126512106566,0.15929809562092587,0.18399872261429182,2.4676436588652773,-1.4888049162456025
1773064964650257664,2.536909580230713,-0.020176125690340996,1.9705294370651245,0.5641103386878967,0.5977978110313416,-0.1862287074327469,0.7797155380249023,0.1213335394859314,-0.09492972493171692,0.2402580976486206,-0.29492780082436054,-0.6623205971548887,-0.6717061930465213,0.1521832133498849,0.18732229209884707,2.487497102407759,-1.493015226371327
1773064964660295680,2.546947717666626,-0.035760547965765,2.1128909587860107,0.6122338175773621,0.5805225968360901,-0.18992428481578827,0.7917841672897339,0.13406169414520264,-0.07888978719711304,0.25432783365249634,-0.2885423445827689,-0.6657917310811237,-0.6727655310473957,0.14439943759915597,0.19108502785030645,2.508941674814276,-1.4976608259624054
1773064964670332672,2.5569846630096436,-0.06354370713233948,2.247189521789551,0.6724308133125305,0.5618135333061218,-0.19399070739746094,0.8041971325874329,0.1622617244720459,-0.06286045908927917,0.25157368183135986,-0.28178588398932647,-0.6694227477503105,-0.6737742504101778,0.13600776071541862,0.19522850828570487,2.531805716970697,-1.5027009792433021
1773064964680370688,2.5670225620269775,-0.07992751896381378,2.3657939434051514,0.7300364375114441,0.5416862368583679,-0.1985185444355011,0.816802442073822,0.1906592845916748,-0.07629223167896271,0.2704014182090759,-0.2747156471178457,-0.6732218069380331,-0.6746655609636533,0.12700409647677768,0.1998461535750117,2.5560084758938446,-1.5082262772077584
1773064964690408704,2.5770606994628906,-0.11462637782096863,2.5260205268859863,0.7498649954795837,0.5199726819992065,-0.2032572329044342,0.8296471834182739,0.1920022964477539,-0.09827165305614471,0.33302658796310425,-0.2672042399217285,-0.6771006302437019,-0.6755429970732336,0.1173804537640448,0.20468345356055842,2.5817434502231027,-1.5140692481727827
1773064964700446720,2.5870985984802246,-0.1891648769378662,2.711052417755127,0.7722665071487427,0.49642214179039,-0.20837591588497162,0.8427005410194397,0.1699901521205902,-0.11500358581542969,0.3393213748931885,-0.2592501031708708,-0.6809662472385745,-0.6764874234601692,0.10695337140941995,0.20991413289524274,2.609237636293724,-1.519967267080192
1773064964710484736,2.5971367359161377,-0.2828245162963867,2.892632007598877,0.7808194756507874,0.4708615839481354,-0.21417370438575745,0.8558145761489868,0.16681838035583496,-0.14207319915294647,0.38942450284957886,-0.25092900109704663,-0.6847228538475854,-0.6775410594979641,0.09553659533745336,0.21584583369441898,2.6386027048079637,-1.5256797232683155
1773064964720522752,2.6071746349334717,-0.34544169902801514,3.0689311027526855,0.8065809607505798,0.44331371784210205,-0.22056277096271515,0.868806779384613,0.18458551168441772,-0.18196409940719604,0.44288456439971924,-0.2422285375829016,-0.6883708409825057,-0.678637586127346,0.08319856684677052,0.22239141752307126,2.6697740902000944,-1.5313681927625205
1773064964730560768,2.6172127723693848,-0.3758275806903839,3.2363808155059814,0.8504490852355957,0.41373321413993835,-0.22731707990169525,0.881562352180481,0.2122434377670288,-0.18903426826000214,0.40106117725372314,-0.23305016991200833,-0.6919827872120473,-0.6796624087518168,0.07004677989714535,0.22932175416457531,2.702790387511512,-1.5374097137463034
1773064964740598784,2.6272506713867188,-0.28578266501426697,3.3770508766174316,0.8634171485900879,0.38226407766342163,-0.2337852567434311,0.8939905762672424,0.21104350686073303,-0.1498512625694275,0.42761921882629395,-0.2232177575515329,-0.6955683924754573,-0.6805732086032679,0.05637981455756629,0.23596900879361724,2.737527783705279,-1.5440399034878887
1773064964750636544,2.6372885704040527,-0.2295745313167572,3.538465976715088,0.902705729007721,0.3489660918712616,-0.23918278515338898,0.9060987234115601,0.19133245944976807,-0.0906970202922821,0.44895827770233154,-0.212471424856071,-0.6991616474715316,-0.6813386563836642,0.04250526578437696,0.24152411600905568,2.7739703263547524,-1.5515025721363016
1773064964760674816,2.647326707839966,-0.2017248421907425,3.6715424060821533,0.9553877115249634,0.3136650621891022,-0.24439465999603271,0.9175434708595276,0.18566367030143738,-0.04860466718673706,0.3536207675933838,-0.20110089730936326,-0.702749252428455,-0.6818469185289712,0.02805054094914429,0.24689537359790995,2.8121940359301436,-1.5597477612487982
1773064964770712576,2.6573646068573,-0.07832806557416916,3.8025662899017334,0.9821202754974365,0.276633083820343,-0.2485055774450302,0.9282882809638977,0.1670924723148346,-0.0285177081823349,0.4383193850517273,-0.18888017066531199,-0.7063098797236198,-0.6821073823081424,0.013421844211567618,0.251137134917507,2.851968583652886,-1.5688426229866885
1773064964780750848,2.667402744293213,-0.015485457144677639,3.936476945877075,1.0410059690475464,0.23781733214855194,-0.2515406012535095,0.9381738901138306,0.15939946472644806,-0.03410392999649048,0.39501702785491943,-0.17581535316328634,-0.7098437095975789,-0.6820622075963209,-0.0014205130293972101,0.2542717091672106,2.893332361139386,-1.5788144381044853
1773064964790788608,2.677440643310547,0.05861673504114151,4.060452461242676,1.097068190574646,0.19727015495300293,-0.25365930795669556,0.9469641447067261,0.17362520098686218,-0.016009211540222168,0.3874778151512146,-0.16200186369507133,-0.7133395832643804,-0.6816367880093039,-0.016529792180740348,0.2564614319006366,2.93621148079554,-1.5896678204099488
1773064964800826624,2.687478542327881,0.08331498503684998,4.180267333984375,1.163604736328125,0.1550392210483551,-0.2549683451652527,0.9544389843940735,0.17912821471691132,-0.02557969093322754,0.37449461221694946,-0.14750997056823534,-0.7167492075671555,-0.6808010472714856,-0.03195724449263326,0.2578149816669938,2.980559045899904,-1.601310813473818
1773064964810864640,2.697516679763794,0.12991763651371002,4.31215763092041,1.211557388305664,0.11111433058977127,-0.2555522322654724,0.960388720035553,0.16299453377723694,-0.0388660728931427,0.36128169298171997,-0.13237671146352512,-0.7200286909615854,-0.6795241399856291,-0.04777032478656653,0.25841886511475304,3.026407535837554,-1.6136796020704198
1773064964820902656,2.707554578781128,0.2297709882259369,4.40768575668335,1.2113555669784546,0.06584031134843826,-0.25494205951690674,0.9647123217582703,0.14128249883651733,-0.03433409333229065,0.377771258354187,-0.11654170874120415,-0.7230587800429085,-0.6778953906888731,-0.0637333119955514,0.25778777072351716,3.073449673863406,-1.6264137159150625
1773064964830940672,2.717592716217041,0.14631018042564392,4.51513147354126,1.2492648363113403,0.019471004605293274,-0.2534518539905548,0.9671522974967957,0.13288800418376923,-0.04331636428833008,0.35105466842651367,-0.10019377302679566,-0.7257196856910357,-0.6759490286897576,-0.079907411424386,0.25624697196852475,3.1214630689419653,-1.6391895725433774
1773064964840978688,2.727630615234375,0.16349411010742188,4.6156792640686035,1.2698875665664673,-0.02807106263935566,-0.2521626949310303,0.9672777652740479,0.153360977768898,-0.07092693448066711,0.2501295804977417,-0.08371013051278842,-0.7280481498496021,-0.673487030972219,-0.09671505750835413,0.2549145130719389,-3.1125801124646273,-1.6523344598079006
1773064964851016704,2.737668752670288,0.19516149163246155,4.715929985046387,1.2475448846817017,-0.07645851373672485,-0.24955467879772186,0.9653374552726746,0.16088539361953735,-0.08850376307964325,0.39779114723205566,-0.06658643707551627,-0.729899775992417,-0.6707570625954483,-0.11356707246779665,0.2522203608902116,-3.062553728823781,-1.6652220401680355
1773064964861054720,2.747706651687622,0.04112549126148224,4.790359020233154,1.2962557077407837,-0.1255991905927658,-0.24710270762443542,0.9608148336410522,0.1957896202802658,-0.09943965077400208,0.27055418491363525,-0.04939768397410004,-0.7312891158530611,-0.6675504925962482,-0.13096741651188504,0.24968909139285736,-3.0116081690719336,-1.6781994104345588
1773064964871092480,2.757744550704956,0.009657047688961029,4.805684566497803,1.338015079498291,-0.174965962767601,-0.24490420520305634,0.9536291360855103,0.2620173692703247,-0.07772757112979889,0.24151533842086792,-0.032360844723217985,-0.7323221700517356,-0.6637159031905262,-0.14878887409983518,0.24742089465476985,-2.9601369745055415,-1.6916286640211493
1773064964881130752,2.767782688140869,-0.06756330281496048,4.790185928344727,1.4054243564605713,-0.22404177486896515,-0.242364764213562,0.9439622759819031,0.28423768281936646,-0.08296787738800049,0.1355665922164917,-0.015419205764652772,-0.7330699502919277,-0.659234098891761,-0.16667679736232358,0.24480255308262028,-2.908562551430017,-1.7055548777957112
1773064964891168512,2.777820587158203,-0.02815864235162735,4.780662536621094,1.4059630632400513,-0.2724779546260834,-0.23943868279457092,0.9318933486938477,0.2574175000190735,-0.07139815390110016,0.0633155107498169,0.001349300195371519,-0.7335165545891835,-0.6541407674691293,-0.18453072865398598,0.24178766940959004,-2.8571304150971466,-1.7198641469350169
1773064964901206784,2.787858724594116,0.030581282451748848,4.7798590660095215,1.3342026472091675,-0.32013943791389465,-0.23527440428733826,0.9176911115646362,0.21735620498657227,-0.02670377492904663,0.13511967658996582,0.01835133608017193,-0.7333515415038234,-0.6488767833860305,-0.20203401498416051,0.23750088602108482,-2.8059399073645905,-1.7332964877946642
1773064964911244544,2.79789662361145,-0.062469031661748886,4.823564052581787,1.3096128702163696,-0.3670756220817566,-0.23079641163349152,0.9011043310165405,0.21500644087791443,-0.017540454864501953,0.10100162029266357,0.035298103020090475,-0.7325338302513338,-0.6433866299278883,-0.2195495687188075,0.23289610643021263,-2.7547559147003424,-1.7460134649063093
1773064964921282816,2.8079347610473633,-0.19555553793907166,4.831126689910889,1.3507750034332275,-0.4133361577987671,-0.22674645483493805,0.8818950057029724,0.29370731115341187,-0.050292059779167175,0.09594899415969849,0.05185628344586955,-0.7313146198961207,-0.637280498151983,-0.23740956644552144,0.22873582513108767,-2.7033045459517764,-1.7591539456892686
1773064964931320576,2.8179726600646973,-0.30077943205833435,4.7968525886535645,1.3641419410705566,-0.45851412415504456,-0.22298741340637207,0.8602566719055176,0.39593780040740967,-0.09711149334907532,0.18318521976470947,0.06794181023142813,-0.7297524035693518,-0.6305471980012936,-0.2554517796373298,0.22487797283648764,-2.651897298892482,-1.7728077018862387
1773064964941358592,2.8280105590820312,-0.4496466815471649,4.73332405090332,1.429416298866272,-0.5022273659706116,-0.21943596005439758,0.8364301919937134,0.47242701053619385,-0.11947698891162872,0.13093119859695435,0.08343519799338463,-0.7279460568106987,-0.6231449631416486,-0.27353876682612827,0.22123630489058593,-2.60084861218398,-1.787171267063351
1773064964951396608,2.8380486965179443,-0.4896683990955353,4.628421306610107,1.495707392692566,-0.5441694259643555,-0.21573394536972046,0.8107638955116272,0.513529896736145,-0.08754968643188477,0.05457717180252075,0.09830517070594262,-0.7260812287738827,-0.614969914623675,-0.2914687542476997,0.21744341880760998,-2.5504711599388203,-1.8025709516962891
1773064964961433600,2.848085641860962,-0.3472256064414978,4.527022838592529,1.5070749521255493,-0.5839839577674866,-0.21059685945510864,0.783971905708313,0.5049281120300293,-0.008458361029624939,0.03739356994628906,0.11304995547548459,-0.7240227690722557,-0.60644618933761,-0.3085997926774489,0.2121854653444584,-2.5013608252263038,-1.8176621202828767
1773064964971471616,2.858123540878296,-0.3055833578109741,4.452084064483643,1.4977691173553467,-0.6218140125274658,-0.20395371317863464,0.7561415433883667,0.4695466160774231,0.04314135015010834,-0.06067657470703125,0.1278472088259763,-0.7216307007323609,-0.5977624015338235,-0.3249373391538086,0.20539482994025912,-2.453370623602663,-1.8318465458492523
1773064964981509632,2.868161678314209,-0.2372061312198639,4.415475845336914,1.4195317029953003,-0.6577773094177246,-0.19662879407405853,0.7270941734313965,0.4507003426551819,0.07039287686347961,-0.04412609338760376,0.14249236927194775,-0.7187698598356039,-0.5889965784971624,-0.3408060873159181,0.19791840294193563,-2.406205657227443,-1.8450673304361265
1773064964991547648,2.878199577331543,-0.2564048767089844,4.356018543243408,1.3599368333816528,-0.6918249130249023,-0.1888875961303711,0.696921706199646,0.45491695404052734,0.0554799884557724,0.016777634620666504,0.15697428962784818,-0.7153159364825803,-0.5803309018354146,-0.3562278097030778,0.1900292211103856,-2.3598645229941178,-1.8569149660437272
1773064965001585664,2.888237714767456,-0.47890323400497437,4.269598484039307,1.3789327144622803,-0.7238715291023254,-0.18165621161460876,0.6655909419059753,0.4995366930961609,-0.01042148470878601,-0.05501037836074829,0.17062522559274262,-0.7117043053901725,-0.5712026294054201,-0.3716068547761796,0.18267042197937022,-2.3142743334612477,-1.8693340243351726
1773064965011623680,2.89827561378479,-0.6221286058425903,4.145890235900879,1.3771147727966309,-0.753810465335846,-0.1750624030828476,0.633342444896698,0.5636555552482605,-0.05520793795585632,0.03364968299865723,0.18323990894343156,-0.7080984003800121,-0.5614871978835211,-0.38697781897020855,0.1759691563098095,-2.26956630460142,-1.882890261128501
1773064965021661696,2.908313751220703,-0.6453616619110107,4.012035369873047,1.3889470100402832,-0.7814568281173706,-0.16837705671787262,0.6008116006851196,0.5805442333221436,-0.07434453070163727,0.011203229427337646,0.19509807465038237,-0.7044908113199193,-0.5514512614990907,-0.4019091897453769,0.16918298747435903,-2.2262434546089573,-1.8967885178149524
1773064965031701504,2.91835355758667,-0.579073965549469,3.877124786376953,1.380308747291565,-0.8069140315055847,-0.16093973815441132,0.5683207511901855,0.5725083947181702,-0.03315208852291107,-0.0036997199058532715,0.20659218035339047,-0.7008153953119504,-0.5413115072568786,-0.4161242601395572,0.16164273105784718,-2.18441163624163,-1.9102196430280587
1773064965041739520,2.928391456604004,-0.46756842732429504,3.7399559020996094,1.3573673963546753,-0.8301970958709717,-0.15258654952049255,0.5361810922622681,0.5528838634490967,0.02999742329120636,-0.040392518043518066,0.21792428795447522,-0.6969687401712348,-0.5313427635855625,-0.42943972946374154,0.15318494674710478,-2.1442471720508154,-1.922396673830643
1773064965051777280,2.938429355621338,-0.4052605628967285,3.5934906005859375,1.310313105583191,-0.851334810256958,-0.14356936514377594,0.5045958757400513,0.5286266803741455,0.07179202139377594,-0.08778679370880127,0.22901380034567637,-0.6929804429901513,-0.5216090853762744,-0.4418764484309123,0.14406721488329494,-2.1058393295255513,-1.933311654518915
1773064965061815552,2.948467493057251,-0.31712210178375244,3.441847085952759,1.2055903673171997,-0.8703563809394836,-0.134486585855484,0.4737014174461365,0.5092266798019409,0.0775865763425827,-0.015556246042251587,0.2396991501398147,-0.6887732826963854,-0.5122910026108799,-0.45353454449060976,0.1348953293954387,-2.069223051765791,-1.9428257348413023
1773064965071853312,2.958505392074585,-0.2580412030220032,3.310565233230591,1.1065926551818848,-0.8874005079269409,-0.12562008202075958,0.4435538351535797,0.5024822950363159,0.04824276268482208,-0.024181246757507324,0.2499788252504336,-0.6842886066849586,-0.503513677523054,-0.4644713988159651,0.12595283789372855,-2.034311943780465,-1.9507821664452372
1773064965081891584,2.968543529510498,-0.3127460181713104,3.143287181854248,1.0661417245864868,-0.9026070833206177,-0.11712497472763062,0.41422468423843384,0.5278818607330322,0.008589223027229309,-0.05526167154312134,0.2596463435243484,-0.6797510387884032,-0.4950261217064666,-0.47483829258844246,0.11739443193627307,-2.00104352561639,-1.9580697577909894
1773064965091929344,2.978581428527832,-0.40468207001686096,3.0220556259155273,1.0827689170837402,-0.9161993265151978,-0.10875091701745987,0.38568395376205444,0.5574194192886353,-0.009657293558120728,-0.10185515880584717,0.268596617371839,-0.675461886915815,-0.48640848697709754,-0.48478232238188584,0.10896642670847716,-1.9692407281473603,-1.965795681114866
1773064965101967616,2.988619565963745,-0.34781086444854736,2.9119505882263184,0.9823620915412903,-0.9283578991889954,-0.10058196634054184,0.35781994462013245,0.5328957438468933,0.029277615249156952,-0.04748663306236267,0.2770065448529796,-0.6712273292707472,-0.4778743008672225,-0.49432527773930035,0.10075233664365352,-1.9386823900261914,-1.9733770504622214
1773064965112005376,2.998657464981079,-0.13903659582138062,2.790928602218628,0.8242097496986389,-0.9390982985496521,-0.0929756611585617,0.33083271980285645,0.46262723207473755,0.07344438880681992,-0.023398607969284058,0.2852350228169519,-0.6665713130631542,-0.47021169990785594,-0.5032144302086459,0.09311013595285535,-1.9095076712108041,-1.9788274704760636
1773064965122043392,3.008695363998413,-0.08390308171510696,2.6273996829986572,0.758194625377655,-0.9484663009643555,-0.08583658933639526,0.30503126978874207,0.4291790723800659,0.06584754586219788,-0.09989210963249207,0.2932500115935631,-0.661664099647807,-0.4633748476865639,-0.5113598637533145,0.08594234537919779,-1.8819542777163747,-1.9823710279770062
1773064965132081408,3.018733501434326,-0.019698267802596092,2.4901773929595947,0.6868138909339905,-0.9565972089767456,-0.07908276468515396,0.2804774343967438,0.4513635039329529,0.06162671744823456,-0.07279005646705627,0.30085684030592613,-0.6567907991187654,-0.4570170349654128,-0.5188895972529816,0.07916542584400044,-1.8560059961316742,-1.985044451340384
1773064965142119424,3.02877140045166,-0.005892218090593815,2.327411413192749,0.5558820962905884,-0.9635630249977112,-0.07309805601835251,0.25729915499687195,0.46565353870391846,0.039696596562862396,-0.055089741945266724,0.30794284567931357,-0.6519216033823014,-0.45127353417598515,-0.5258531782596956,0.07316331182888684,-1.831736862429211,-1.9868214849057535
1773064965152157440,3.0388095378875732,0.03510848060250282,2.1066439151763916,0.47457635402679443,-0.9694128632545471,-0.0681450292468071,0.2357858121395111,0.4623327851295471,-0.016815893352031708,-0.0764230489730835,0.3143403570747528,-0.6471429091318578,-0.4462050702891907,-0.5322567196958017,0.06819787964933374,-1.8093887948573522,-1.9879108588256096
1773064965162195456,3.0488474369049072,-0.0467103086411953,1.8476593494415283,0.4919265806674957,-0.9742233157157898,-0.06344655901193619,0.21647943556308746,0.47170573472976685,-0.07168526947498322,-0.12358394265174866,0.3200501440474179,-0.6428946873481305,-0.4415044057979766,-0.537892293930244,0.06348920493351151,-1.789450965614639,-1.988980350739112
1773064965172233216,3.058885335922241,-0.09055367112159729,1.5874732732772827,0.4783412516117096,-0.9781093001365662,-0.05884326621890068,0.19959910213947296,0.4830225110054016,-0.07102430611848831,-0.17164501547813416,0.3249203211720693,-0.6394223092166965,-0.43696528669462525,-0.5427958278350088,0.05887727568273902,-1.772098667894441,-1.9907112567589846
1773064965182271488,3.0689234733581543,-0.0787343829870224,1.344985842704773,0.4455540180206299,-0.9811900854110718,-0.054450344294309616,0.1852063685655594,0.4297831058502197,-0.03789586201310158,-0.22976206243038177,0.3290838712836539,-0.6365967700121655,-0.4328368507479573,-0.5469009895480883,0.05447728698433891,-1.7573581928697137,-1.9925043900848391
1773064965192309504,3.0789613723754883,-0.09148798882961273,1.058273196220398,0.37740132212638855,-0.9835726618766785,-0.05056134983897209,0.1732880175113678,0.3468995690345764,-0.0043398067355155945,-0.24639283120632172,0.3325640077378118,-0.6342957828903515,-0.42931674580456053,-0.550233890110784,0.05058291871929442,-1.7451888536463918,-1.994020362557698
1773064965202347520,3.0889995098114014,-0.07675231993198395,0.7873663902282715,0.33594295382499695,-0.9852930307388306,-0.047235578298568726,0.16421566903591156,0.2785515785217285,0.015909258276224136,-0.31539976596832275,0.33520299120970115,-0.6326822045327261,-0.426404812818106,-0.5527488207478621,0.04725316300139491,-1.735945171022139,-1.9955495771644156
1773064965212385536,3.0990374088287354,-0.046398941427469254,0.561529815196991,0.33523401618003845,-0.9865441918373108,-0.04405076056718826,0.1574483960866928,0.22526800632476807,0.020079195499420166,-0.335304856300354,0.33741738369965957,-0.6315759183314351,-0.4240708151662201,-0.5544594570444219,0.04406501888893585,-1.729057533572645,-1.9965725227622162
1773064965222423552,3.1090755462646484,-0.11347749084234238,0.291238397359848,0.4280065596103668,-0.9873625636100769,-0.040414802730083466,0.15323752164840698,0.18856501579284668,-5.707144737243652e-06,-0.3683253526687622,0.3391190712037505,-0.631341199932,-0.42193251870037274,-0.555319234448326,0.040425813937226274,-1.7247667955284633,-1.9979488125620517
1773064965232460544,3.119112491607666,-0.19893433153629303,0.19805388152599335,0.3726554214954376,-0.9878889322280884,-0.036595653742551804,0.15078479051589966,0.19199061393737793,-0.026636742055416107,-0.3591587543487549,0.3402476421303665,-0.6318197117299226,-0.41975736968727706,-0.5557329329416671,0.03660382735738057,-1.7222606723371083,-2.0002227827288133
1773064965242498304,3.129150390625,-0.20938950777053833,0.021412663161754608,0.2506668269634247,-0.9881736636161804,-0.03390763700008392,0.1495424509048462,0.14172297716140747,-0.005246400833129883,-0.2508302927017212,0.34068467914627204,-0.6324789681270725,-0.41802102780418837,-0.5560239733192636,0.0339141377647577,-1.720988860728999,-2.0027274720514936
1773064965252536576,3.139188528060913,-0.1838391274213791,-0.08418193459510803,0.21972914040088654,-0.9881910681724548,-0.03193201869726181,0.1498621702194214,0.06102132797241211,0.0227615125477314,-0.2822321653366089,0.3406337607030909,-0.6333909800048113,-0.4168296411446011,-0.5559114289974708,0.031937448978366215,-1.7213025335281926,-2.0049666448728507
1773064965262574336,3.149226427078247,-0.28313300013542175,-0.21216215193271637,0.1605735421180725,-0.9880229234695435,-0.030397428199648857,0.15128280222415924,0.06366086006164551,0.030977265909314156,-0.24906112253665924,0.3400992191624955,-0.63461329659682,-0.4158213177734194,-0.5555997034878419,0.03040211160226814,-1.7227329878649673,-2.0076002937254867
1773064965272612608,3.15926456451416,-0.29091528058052063,-0.38344600796699524,0.08023929595947266,-0.9875923991203308,-0.029828235507011414,0.15417999029159546,0.07380461692810059,0.010953128337860107,-0.25029516220092773,0.338838725560758,-0.6361543346077193,-0.4152079736120085,-0.5550660306706575,0.02983266055398099,-1.7256632696154584,-2.0106098424650174
1773064965282650368,3.169302463531494,-0.40307873487472534,-0.5100054144859314,0.10869529843330383,-0.9869000315666199,-0.029532458633184433,0.1586070954799652,0.07790344953536987,-0.04610534757375717,-0.2778087854385376,0.3370232669366034,-0.6381843960396125,-0.41475802999374,-0.5541766584897386,0.029536752718757022,-1.7301461544234056,-2.014147771616925
1773064965292688384,3.179340362548828,-0.511669933795929,-0.6326956748962402,0.029884641990065575,-0.9859893918037415,-0.029616225510835648,0.16415895521640778,0.0968291163444519,-0.046418339014053345,-0.2538348436355591,0.3345177114772973,-0.6407098434524002,-0.4142105437610262,-0.5531894508657605,0.029620556597605065,-1.7357746709334614,-2.0188867834699704
1773064965302726400,3.189378499984741,-0.4986479580402374,-0.7494466304779053,-0.06305208802223206,-0.9848061203956604,-0.03079341910779476,0.17090637981891632,0.06496042013168335,-0.021940983831882477,-0.2360156625509262,0.3313408966031654,-0.6434252532551209,-0.41407382657511627,-0.5520508539177169,0.030798287112210186,-1.7426281111423483,-2.023857486804985
1773064965312764416,3.199416399002075,-0.5405544638633728,-0.8426234722137451,-0.07691144198179245,-0.9833914041519165,-0.03246193379163742,0.1785712093114853,0.037148118019104004,-0.006707377731800079,-0.24094915390014648,0.3278145662783298,-0.6463075467488326,-0.41421269434950375,-0.5506832543358169,0.03246763676211961,-1.7504261406934594,-2.0288062232199815
1773064965322802432,3.2094545364379883,-0.5561923980712891,-0.9212852120399475,-0.15347865223884583,-0.9817371368408203,-0.034589800983667374,0.18707209825515747,0.05227839946746826,0.03513909876346588,-0.22054992616176605,0.3238599015735211,-0.6494183228549815,-0.4144778498522091,-0.549161927418631,0.034596702790810126,-1.7590910997772995,-2.0341082561668973
1773064965332840448,3.2194924354553223,-0.5472465753555298,-1.057306170463562,-0.2256985306739807,-0.9797641038894653,-0.03758266940712929,0.19659586250782013,0.06052881479263306,0.06581142544746399,-0.18428203463554382,0.3194675835726622,-0.6526138064314607,-0.41520254145121543,-0.5473961938873637,0.037591523218291574,-1.7688228801314827,-2.0391452497702813
1773064965342878464,3.2295303344726562,-0.5614632368087769,-1.1884746551513672,-0.2204747349023819,-0.9773939847946167,-0.040956851094961166,0.20742082595825195,0.07826989889144897,0.049150820821523666,-0.18300677835941315,0.3146825271402688,-0.6560935103276928,-0.41623517028253415,-0.5452196385451601,0.040968309698468826,-1.7799121053996518,-2.0440994881944854
1773064965352916480,3.2395684719085693,-0.5854881405830383,-1.2975196838378906,-0.19350330531597137,-0.9746435880661011,-0.04422615095973015,0.21934883296489716,0.12295907735824585,0.02565620094537735,-0.17815007269382477,0.30962145653521894,-0.6599477812141026,-0.41730485947617113,-0.542641822274304,0.04424058234725312,-1.7921635301195824,-2.0492791836774726
1773064965362954496,3.2496063709259033,-0.6263011693954468,-1.432208776473999,-0.19082124531269073,-0.9714679718017578,-0.04747611656785011,0.23237033188343048,0.1425189971923828,0.009527519345283508,-0.17011451721191406,0.3042423054430099,-0.6641677217978244,-0.418409368876443,-0.5396771552110669,0.04749397122173635,-1.8055800576941867,-2.054730349634006
1773064965372992512,3.2596445083618164,-0.6678597927093506,-1.5504999160766602,-0.21629756689071655,-0.9677726626396179,-0.05100597068667412,0.24660593271255493,0.13449019193649292,0.018825173377990723,-0.2060023546218872,0.2983757191138246,-0.6687652692092302,-0.41959025092187924,-0.5363477910346557,0.05102811440592345,-1.820304451701194,-2.060590465812975
1773064965383030528,3.2696824073791504,-0.685017466545105,-1.6223101615905762,-0.29032254219055176,-0.9635854959487915,-0.05516493320465088,0.2616475522518158,0.12183457612991333,0.05112137272953987,-0.19286102056503296,0.2920622845196348,-0.6735087499452904,-0.4209628752970769,-0.5327998823414475,0.05519295031204885,-1.835938659665871,-2.066560507584857
1773064965393068544,3.2797205448150635,-0.6405807733535767,-1.7237385511398315,-0.35582056641578674,-0.9588772654533386,-0.06012794375419617,0.2773784399032593,0.11088544130325317,0.08168861269950867,-0.17738762497901917,0.28540082879558043,-0.6782252505651373,-0.42272891627440284,-0.5290151945977346,0.06016423242689378,-1.8523841164970989,-2.072092541538847
1773064965403106560,3.2897584438323975,-0.6494384407997131,-1.8209360837936401,-0.3836938738822937,-0.953558087348938,-0.06552193313837051,0.29399624466896057,0.13425272703170776,0.08966135233640671,-0.20392361283302307,0.2784667407487796,-0.6830286342811,-0.4248176163818528,-0.5248410499420887,0.0655689054757085,-1.8698639811295747,-2.077176346486184
1773064965413144320,3.2997963428497314,-0.6425246000289917,-1.904397964477539,-0.4741412103176117,-0.9476013779640198,-0.0715729147195816,0.31133440136909485,0.17727667093276978,0.0893341451883316,-0.18110060691833496,0.2711250074487874,-0.6879009059805542,-0.42715283719752506,-0.5204076304280921,0.0716341640033296,-1.8882356906803617,-2.082104331410982
1773064965423182592,3.3098344802856445,-0.5697368383407593,-2.0135481357574463,-0.535508930683136,-0.9409310817718506,-0.07837390154600143,0.3294031322002411,0.19138872623443604,0.06514451652765274,-0.1780664622783661,0.2634888837171313,-0.6926956795307988,-0.4299700666997949,-0.5156278997678828,0.07845435966431644,-1.9075442742338036,-2.0862331856794896
1773064965433220352,3.3198723793029785,-0.5742695331573486,-2.1582696437835693,-0.536699652671814,-0.9333783388137817,-0.08536289632320404,0.3485945165157318,0.21156132221221924,0.020787708461284637,-0.2216109037399292,0.2556013857678514,-0.6976479246766946,-0.4331104081016553,-0.5102653317276217,0.08546691165014207,-1.928230308520674,-2.0897559403772576
1773064965443258624,3.3299105167388916,-0.6030340790748596,-2.263986349105835,-0.5841761231422424,-0.924943208694458,-0.09265553951263428,0.36863973736763,0.24551498889923096,0.01100572943687439,-0.22604629397392273,0.24730698146875407,-0.7027978838051738,-0.4363427568189126,-0.5044992504857184,0.09278863129251563,-1.9500554462263808,-2.0932816124810465
1773064965453296384,3.3399484157562256,-0.6324894428253174,-2.4243266582489014,-0.6104532480239868,-0.9154282808303833,-0.10054954141378403,0.3897187113761902,0.23963189125061035,0.020166262984275818,-0.22149056196212769,0.23845522128825802,-0.7081326879563596,-0.43978114391495293,-0.4982767211226529,0.1007197441832797,-1.9732790540390326,-2.0967145803483387
1773064965463334656,3.3499865531921387,-0.6610182523727417,-2.5056796073913574,-0.6641975045204163,-0.9048203825950623,-0.10892126709222794,0.4116262197494507,0.22153186798095703,0.041355349123477936,-0.23279321193695068,0.22909495022666623,-0.7136376853446086,-0.4433219674981505,-0.4916323596622074,0.10913779873538296,-1.9977390642786157,-2.1001396146695783
1773064965473372416,3.3600244522094727,-0.6131497621536255,-2.5703089237213135,-0.7909767031669617,-0.8932506442070007,-0.11819647997617722,0.43374329805374146,0.2001199722290039,0.08748051524162292,-0.1532256007194519,0.21934725395200838,-0.7189444467236351,-0.44720300115412936,-0.48478371223395156,0.11847343530601787,-2.022840307146631,-2.1029020470016415
1773064965483410432,3.3700623512268066,-0.5122518539428711,-2.709597110748291,-0.8792006969451904,-0.880418062210083,-0.1282072812318802,0.4565383195877075,0.17326462268829346,0.1050596684217453,-0.18470293283462524,0.20931990954168367,-0.7240253620828841,-0.45172606155401746,-0.477405619950561,0.1285611240284215,-2.0491713566733716,-2.1041843963489835
1773064965493448448,3.3801004886627197,-0.4867163896560669,-2.825705051422119,-0.898430585861206,-0.8662218451499939,-0.13828547298908234,0.48014238476753235,0.19999265670776367,0.08837400376796722,-0.24054887890815735,0.19913179440401316,-0.7290673424908384,-0.4566530360608566,-0.46933494290106226,0.13873004924788562,-2.0769310061030244,-2.10425513869256
1773064965503486464,3.3901383876800537,-0.5287215709686279,-2.8990659713745117,-0.9737570285797119,-0.8507343530654907,-0.14882485568523407,0.5040857791900635,0.23047971725463867,0.06279578804969788,-0.2551843523979187,0.1884919077394906,-0.7340993431824512,-0.4616720167618341,-0.4608990997025966,0.14937979442132676,-2.105705231238501,-2.104029696493603
1773064965513524480,3.400176525115967,-0.5741356611251831,-3.007690906524658,-1.0330203771591187,-0.8338719606399536,-0.16020266711711884,0.5281974673271179,0.21283936500549316,0.03337162733078003,-0.23199385404586792,0.17727503743038384,-0.7390120316076488,-0.466861804834896,-0.452188878333374,0.16089596191841993,-2.1354329626951234,-2.103408778585152
1773064965523561472,3.4102134704589844,-0.6851403713226318,-3.092038154602051,-1.0348291397094727,-0.8155816793441772,-0.17217551171779633,0.5524327754974365,0.18774360418319702,0.01331627368927002,-0.2791936993598938,0.16541448084201657,-0.7439805060037554,-0.4719209532570614,-0.443194786881183,0.1730377401581111,-2.166157405966945,-2.1030019700337164
1773064965533599488,3.4202513694763184,-0.7737480401992798,-3.1265265941619873,-1.1558504104614258,-0.7960273623466492,-0.18512415885925293,0.5762544870376587,0.17333155870437622,0.06465604901313782,-0.23132961988449097,0.15287059197768965,-0.7488243891851931,-0.47685351103735485,-0.43416961718628605,0.18619820197476758,-2.197391593321776,-2.1027874151691925
1773064965543637504,3.4302895069122314,-0.6804426908493042,-3.2273261547088623,-1.3412855863571167,-0.7748816013336182,-0.19932016730308533,0.5998580455780029,0.11770093441009521,0.13071668148040771,-0.18098914623260498,0.13976763243017526,-0.7531953884637417,-0.4823129004535212,-0.42489516703640157,0.2006641196401891,-2.2295617745477614,-2.101138091182282
1773064965553675520,3.4403274059295654,-0.5088527798652649,-3.311131477355957,-1.4635523557662964,-0.7518792152404785,-0.21370264887809753,0.6237059831619263,0.09245526790618896,0.14427511394023895,-0.224551260471344,0.1266067734463286,-0.7570580706868909,-0.48858579474376285,-0.41487084943162184,0.21536360540660268,-2.2632855396300045,-2.0968317937902845
1773064965563713536,3.4503655433654785,-0.5072281360626221,-3.4119598865509033,-1.50554358959198,-0.7271443009376526,-0.22793278098106384,0.6475398540496826,0.1357746720314026,0.11803898215293884,-0.20689654350280762,0.11336027090504118,-0.760582130481941,-0.4952623172787294,-0.4042023413175058,0.229954050393541,-2.2983516648774995,-2.0907119532327125
1773064965573751552,3.4604034423828125,-0.6283140778541565,-3.5558156967163086,-1.4907593727111816,-0.7005305886268616,-0.24241933226585388,0.671185314655304,0.18281513452529907,0.07699878513813019,-0.22918403148651123,0.09948568317909706,-0.7640947967689294,-0.5017487480237506,-0.3930775251666652,0.2448587871530265,-2.3348046297656273,-2.084444636925278
1773064965583789312,3.4704413414001465,-0.7130160927772522,-3.633836507797241,-1.493620753288269,-0.6721188426017761,-0.25732648372650146,0.6942906379699707,0.19598358869552612,0.045641303062438965,-0.2350316047668457,0.08485961902242505,-0.7676398396080176,-0.5078133520046675,-0.38164587971160435,0.2602545087193758,-2.372419379592221,-2.078558237367483
1773064965593827584,3.4804794788360596,-0.7219416499137878,-3.6643383502960205,-1.5096067190170288,-0.6422823071479797,-0.2722662687301636,0.7164811491966248,0.1534668207168579,0.04719904065132141,-0.19160908460617065,0.06992196118580055,-0.770958190879941,-0.5136769762169748,-0.36996021310683064,0.2757474957612388,-2.410747913557742,-2.072194556756296
