time,seconds_elapsed,rotationRateX,rotationRateY,rotationRateZ,gravityX,gravityY,gravityZ,accelerationX,accelerationY,accelerationZ,quaternionW,quaternionX,quaternionY,quaternionZ,pitch,roll,yaw
1773065401575062784,0.030603885650634766,0.8353684544563293,-0.17777913808822632,0.40476515889167786,-0.25699904561042786,0.9308226704597473,0.25984784960746765,0.07177254557609558,-0.01935410499572754,0.005929738283157349,0.5608410123781297,-0.7871443915151602,0.10162497255174566,-0.2356555798070612,-1.1966574934041654,-2.3617063671699734,-2.8520603990790447
1773065401585100544,0.04064178466796875,1.124265193939209,-0.3748829960823059,0.23890763521194458,-0.2531993091106415,0.9342503547668457,0.25113093852996826,0.2779032289981842,0.06916779279708862,-0.07045158743858337,0.5653413856534206,-0.7844568620584152,0.10095990880539571,-0.2341447625602388,-1.2061510666101265,-2.3520933141826377,-2.838779110336928
1773065401595138816,0.050679922103881836,1.2535321712493896,-0.3841569423675537,0.11163224279880524,-0.25068745017051697,0.9376123547554016,0.24091193079948425,0.18499842286109924,0.04825788736343384,-0.13783887028694153,0.5704133328980044,-0.7814301227174499,0.09911070725352364,-0.23274990590627928,-1.2156980868241611,-2.336312017321262,-2.817766333563325
1773065401605176576,0.06071782112121582,1.117690086364746,-0.2997564375400543,0.10034029930830002,-0.24890898168087006,0.9407227635383606,0.23040235042572021,0.0012740492820739746,0.08851319551467896,-0.03304514288902283,0.5754295638415887,-0.7783144618148611,0.09709671096829307,-0.2316888818875811,-1.224754971137775,-2.3176027775434975,-2.7941189524619077
1773065401615214592,0.0707557201385498,0.7549447417259216,-0.2192104607820511,0.08176156133413315,-0.2474197894334793,0.9431026577949524,0.2221285104751587,-0.06630095839500427,0.10590869188308716,-0.0022951066493988037,0.5793460997501331,-0.7758360456485773,0.09561740755581388,-0.23085478856128566,-1.2318413336275504,-2.3023835078732158,-2.775187276725698
1773065401625252608,0.08079385757446289,0.2958473861217499,-0.168166846036911,0.0010809581726789474,-0.24658657610416412,0.9443753361701965,0.21760177612304688,-0.07235269248485565,0.04549288749694824,0.07631304860115051,0.5815418741975482,-0.7744988896200536,0.0946168823968473,-0.23023527514647213,-1.2356900372465534,-2.2938335526038105,-2.7640898718426765
1773065401635289600,0.09083080291748047,-0.14710180461406708,-0.13032439351081848,-0.05867505073547363,-0.24657920002937317,0.9444474577903748,0.21729688346385956,-0.03837873041629791,-0.044743359088897705,0.11786249279975891,0.5818509216909736,-0.7744797105470479,0.0939660646862358,-0.2297850286505657,-1.2359093329974906,-2.2931528413326787,-2.76177655396019
1773065401645327872,0.10086894035339355,-0.4592881500720978,-0.08822128921747208,-0.0289673563092947,-0.24678856134414673,0.9436349272727966,0.22056470811367035,0.002480044960975647,-0.10881125926971436,0.11329761147499084,0.580617322190488,-0.7755505843211676,0.09382774250915668,-0.22934970155728127,-1.2334458476999504,-2.300141846049627,-2.768019284693794
1773065401655365632,0.11090683937072754,-0.5578951239585876,-0.06430797278881073,0.04330897331237793,-0.2465563714504242,0.9424828886985779,0.22568924725055695,0.04514041543006897,-0.11951547861099243,0.08586463332176208,0.5786264663823164,-0.777150959356445,0.09423909528242962,-0.22879393099202286,-1.229982321736139,-2.312036176753235,-2.779842193443733
1773065401665403648,0.12094473838806152,-0.45888766646385193,-0.06715075671672821,0.09131257981061935,-0.24574723839759827,0.9414734244346619,0.23072992265224457,0.07027111947536469,-0.10690909624099731,0.024519115686416626,0.5767207588664263,-0.7786879867628215,0.09492090414075981,-0.228097100933553,-1.226974991768966,-2.3246875316098574,-2.7925949889034984
1773065401675441664,0.1309828758239746,-0.3046688139438629,-0.08457288891077042,0.10036306828260422,-0.24464379251003265,0.9408243298530579,0.2345193326473236,0.07559160888195038,-0.08883446455001831,-0.03954252600669861,0.5753785935756986,-0.7798307876082019,0.0955175815930773,-0.2273322215647812,-1.2250545628925968,-2.335068178120312,-2.802807033555294
1773065401685479680,0.1410207748413086,-0.19492405652999878,-0.08948922157287598,0.08448703587055206,-0.24355104565620422,0.9404680132865906,0.23707105219364166,0.06818181276321411,-0.06737548112869263,-0.07094863057136536,0.5745609407764909,-0.7806009921975151,0.09590421104034981,-0.22659251142311412,-1.2240047372390184,-2.342712786053864,-2.8099744831010636
1773065401695517696,0.15105891227722168,-0.15276674926280975,-0.08269895613193512,0.08315731585025787,-0.24255438148975372,0.9402639269828796,0.23889528214931488,0.06056280434131622,-0.032839059829711914,-0.056583285331726074,0.574030076683153,-0.7811524177366173,0.09616933298234144,-0.22592425882518075,-1.2234047391714071,-2.3485944605675204,-2.815286257416647
1773065401705555712,0.16109681129455566,-0.10748840123414993,-0.05618159472942352,0.07976578176021576,-0.2416188269853592,0.9401436448097229,0.2403126209974289,0.048305243253707886,0.010982394218444824,-0.014772430062294006,0.5736378929025787,-0.7815730899302777,0.09643553600332123,-0.22535127363435475,-1.2230515153508457,-2.353484127611982,-2.8197379112245113
1773065401715593728,0.17113494873046875,0.008346328511834145,-0.034955404698848724,0.06510961055755615,-0.2408078908920288,0.9401928186416626,0.2409334033727646,0.0316862016916275,0.04663878679275513,0.026385292410850525,0.5735320221219988,-0.7817444374386758,0.09665575484319343,-0.2249317148737121,-1.2231959274000073,-2.356455020185989,-2.8224085818312843
1773065401725631744,0.18117284774780273,0.10754166543483734,-0.04717997834086418,0.043303512036800385,-0.24019458889961243,0.9404805302619934,0.24042241275310516,0.02184133231639862,0.049616456031799316,0.029856547713279724,0.5738662656757609,-0.7815778998250436,0.09668088758246203,-0.22464707741566387,-1.2240415345770335,-2.35666853277345,-2.8222039304249096
1773065401735669504,0.19121074676513672,0.07718855142593384,-0.06105371564626694,0.03369535878300667,-0.239723801612854,0.9408175349235535,0.2395717203617096,0.036110565066337585,0.019524753093719482,0.009283870458602905,0.5743394968654677,-0.7813215696677773,0.09655290042244241,-0.2243839788200069,-1.2250344707978515,-2.3558771891626904,-2.8207945936000316
1773065401745707776,0.2012488842010498,-0.08475840091705322,-0.06589707732200623,0.0452972874045372,-0.23920652270317078,0.9409104585647583,0.23972442746162415,0.07090207934379578,-0.0117875337600708,0.003638029098510742,0.5744141605696111,-0.7813745128611559,0.09651987700726664,-0.22402271901476592,-1.2253087986154596,-2.3572758865613963,-2.8216001303520004
1773065401755745536,0.2112867832183838,-0.2426031529903412,-0.06440304219722748,0.07412227988243103,-0.2384863942861557,0.9406522512435913,0.24144870042800903,0.10945810377597809,-0.032540738582611084,0.017004594206809998,0.57386317462358,-0.7818981051318227,0.09674557811271971,-0.22350984230775722,-1.2245471042511,-2.3623667300804154,-2.8262988810090905
1773065401765782528,0.22132372856140137,-0.4292925000190735,-0.016504358500242233,0.06056399270892143,-0.23771566152572632,0.9400187134742737,0.24465541541576385,0.13270467519760132,-0.05697733163833618,0.025089502334594727,0.5726707946578374,-0.7828575677904785,0.09727146777425977,-0.22298099698858007,-1.2226851456208279,-2.3705802542561076,-2.8345850140603828
1773065401775820800,0.23136186599731445,-0.634732186794281,0.02593817375600338,0.00963583029806614,-0.23736168444156647,0.9387660026550293,0.24975523352622986,0.13039760291576385,-0.05552631616592407,0.04550229012966156,0.5705812607385536,-0.7843889134657219,0.09803903759540204,-0.22261925863711274,-1.2190311836830512,-2.3816316813416583,-2.846388263014129
1773065401785858560,0.24139976501464844,-0.5674787163734436,0.0697769969701767,-0.08627977967262268,-0.23780903220176697,0.9371025562286377,0.2555103600025177,0.08837972581386566,0.009461045265197754,0.0850658118724823,0.5680590682997875,-0.7861325155408775,0.09874635056860541,-0.22260658571894307,-1.2142348297164085,-2.392061165157315,-2.858046717583973
1773065401795896832,0.2514379024505615,-0.23714320361614227,0.05117135867476463,-0.2195025384426117,-0.2393839806318283,0.9356790781021118,0.2592294216156006,0.0399821400642395,0.08630877733230591,0.07614350318908691,0.566233447963852,-0.7873082012975374,0.09879529266249606,-0.2230806080557264,-1.2101787895588108,-2.3959747514643532,-2.8629074600308226
1773065401805934592,0.2614758014678955,0.09504207223653793,-0.007292617112398148,-0.3293609917163849,-0.2420397847890854,0.9348379373550415,0.2597971558570862,0.010899677872657776,0.10970234870910645,-0.004899173974990845,0.5656487905240842,-0.787607140981043,0.09784461618521749,-0.22392582339844183,-1.2078023391891968,-2.391564489021671,-2.8584448122493797
1773065401815972864,0.2715139389038086,0.30962201952934265,-0.03494608402252197,-0.3986396789550781,-0.24541978538036346,0.9344859719276428,0.25788629055023193,0.027402162551879883,0.11202293634414673,-0.056332916021347046,0.5660749011218299,-0.787215664431702,0.09609706812359387,-0.22498031812066313,-1.2068123752926456,-2.380958674481691,-2.8468577213281594
1773065401826010624,0.2815518379211426,0.40589842200279236,-0.07462584972381592,-0.41911324858665466,-0.2491300255060196,0.9344043135643005,0.25460386276245117,0.07563754916191101,0.10330027341842651,-0.055552929639816284,0.5670752783564323,-0.7864370316419899,0.0939080498150207,-0.2261057661639093,-1.2065830724937967,-2.3670605639316737,-2.831397874030557
1773065401836048640,0.29158973693847656,0.4075104296207428,-0.12197153270244598,-0.41509348154067993,-0.2527882158756256,0.9344090819358826,0.2509537935256958,0.1359821856021881,0.061394691467285156,-0.04279342293739319,0.5682850514488429,-0.7855581535177196,0.09151660228311218,-0.22710173412943516,-1.2065964612293607,-2.352552956351889,-2.8148280683812916
1773065401851105792,0.30664682388305664,0.3167990446090698,-0.1758459508419037,-0.41097357869148254,-0.25805336236953735,0.9341650009155273,0.24646365642547607,0.21107155084609985,-0.03114980459213257,-0.013141512870788574,0.5697968865882782,-0.784548565958266,0.08783721318554684,-0.22825361804074082,-1.2059118306052714,-2.333226659224652,-2.791798173770768
1773065401861143552,0.3166847229003906,0.264933317899704,-0.25426816940307617,-0.4079030752182007,-0.26135560870170593,0.9338209629058838,0.24427764117717743,0.2298767864704132,-0.14300376176834106,-0.02630580961704254,0.5705722420677428,-0.7841333888098143,0.08528570847549805,-0.22871040298389503,-1.2049489323782143,-2.3224319281336774,-2.777951990378378
1773065401871181824,0.3267228603363037,0.17709295451641083,-0.35421955585479736,-0.3932223916053772,-0.26434651017189026,0.9333127737045288,0.24299825727939606,0.24663108587265015,-0.20258468389511108,-0.05720724165439606,0.571117300822694,-0.7840139968337321,0.08259043078861109,-0.22874856230843765,-1.2035311162253068,-2.3141409123512977,-2.7657993847930604
1773065401881219584,0.3367607593536377,0.046299390494823456,-0.4504769742488861,-0.38068968057632446,-0.2669975161552429,0.9325600266456604,0.24299032986164093,0.27566447854042053,-0.21779245138168335,-0.06929954886436462,0.5712857820331133,-0.7843009435556472,0.07979470082560901,-0.22833625326527954,-1.20144024152865,-2.309155166725502,-2.7561687266040162
1773065401891257856,0.3467988967895508,-0.01907295733690262,-0.5883243083953857,-0.3948017954826355,-0.2693108320236206,0.9315507411956787,0.24430537223815918,0.32131272554397583,-0.22136086225509644,-0.08941337466239929,0.5710853426209138,-0.7850195162132877,0.07679220208717927,-0.2273960243023219,-1.1986546968522802,-2.3075477819441734,-2.7488633520341206
1773065401901294592,0.35683584213256836,0.02066047489643097,-0.7834217548370361,-0.45858436822891235,-0.2716176509857178,0.9303779006004333,0.24621282517910004,0.37519434094429016,-0.22624588012695312,-0.14082039892673492,0.5708294899040413,-0.7859718437515236,0.07317560890796068,-0.22593637294872462,-1.1954422544800045,-2.3071736342071345,-2.7411398606731425
1773065401911332608,0.36687374114990234,0.1824733465909958,-0.9643990397453308,-0.5388464331626892,-0.2740716338157654,0.929262638092041,0.24770064651966095,0.42983341217041016,-0.2101770043373108,-0.15997792780399323,0.5709634006658717,-0.7868562027843787,0.06861223962884629,-0.22394294806969087,-1.1924118151133618,-2.3056962661538267,-2.730127002298028
1773065401921370624,0.37691187858581543,0.3741896450519562,-1.1129345893859863,-0.6179579496383667,-0.2768939435482025,0.9283506274223328,0.2479814887046814,0.4609912633895874,-0.16860032081604004,-0.14814318716526031,0.5717612330220921,-0.7874134341295029,0.06301448912131756,-0.22158145586566394,-1.1899506816604304,-2.3011656766555273,-2.7139791493166614
1773065401931408640,0.3869497776031494,0.5593227744102478,-1.2480391263961792,-0.6165158152580261,-0.27973657846450806,0.9277830719947815,0.2469128519296646,0.46580228209495544,-0.09350883960723877,-0.11390198767185211,0.573283977486128,-0.7875576398515965,0.05665145689763904,-0.21883562184136224,-1.1884266467032456,-2.293949408494027,-2.6934282527287556
1773065401941446656,0.3969879150390625,0.6006215214729309,-1.3283709287643433,-0.6745949983596802,-0.28246504068374634,0.9274591207504272,0.24501647055149078,0.42118266224861145,0.046158432960510254,-0.04141843318939209,0.5752864797273907,-0.7874204026869467,0.04977292390209669,-0.21572492326820042,-1.1875594355554737,-2.285318384016255,-2.670159729361789
1773065401951484672,0.4070258140563965,0.4955019950866699,-1.388182282447815,-0.8893848061561584,-0.2863154709339142,0.9265977144241333,0.2438029944896698,0.3031917214393616,0.21746039390563965,0.022294968366622925,0.5769295858042083,-0.7874765241213633,0.042216375084714125,-0.2127220345118826,-1.1852622316399464,-2.276171462943608,-2.645610199860129
1773065401961522944,0.41706395149230957,0.583265483379364,-1.4573876857757568,-1.2240455150604248,-0.2926109731197357,0.9248256087303162,0.24305684864521027,0.19321519136428833,0.2945501208305359,-9.116530418395996e-05,0.5781546071081527,-0.7876630969023917,0.03339569732617488,-0.21025913573793956,-1.1805768566090082,-2.263947995530731,-2.6170233803793534
1773065401971560704,0.42710185050964355,0.8127583265304565,-1.5507700443267822,-1.600665807723999,-0.30202946066856384,0.9223217368125916,0.24104145169258118,0.13328251242637634,0.26273685693740845,-0.06811356544494629,0.579659289762328,-0.7874039922082052,0.022708494502876868,-0.2085053247640854,-1.1740463908775913,-2.2443609205186963,-2.579453233362361
1773065401981598720,0.43713974952697754,0.9723256826400757,-1.608375072479248,-1.9202721118927002,-0.314522385597229,0.9190384149551392,0.2375795990228653,0.139259934425354,0.19677579402923584,-0.0955660343170166,0.5815254456533041,-0.7865661156978494,0.01017564843110586,-0.20745692751138453,-1.1656340360188615,-2.217723006480512,-2.5332343011757774
1773065401991636736,0.4471778869628906,0.8724355697631836,-1.6093990802764893,-2.112161159515381,-0.329355388879776,0.9147226810455322,0.2341099977493286,0.196725994348526,0.14850974082946777,-0.05028736591339111,0.5831613196889869,-0.7855207001754343,-0.0034965687549584484,-0.20704563655273842,-1.1548210850093892,-2.1887423260655785,-2.484016186159217
1773065402001674752,0.4572157859802246,0.5489083528518677,-1.6215660572052002,-2.187581777572632,-0.34529024362564087,0.909113347530365,0.23299743235111237,0.2667074203491211,0.12964409589767456,0.058018237352371216,0.5836716045723688,-0.7849801083143496,-0.017462654572953873,-0.20695131380115536,-1.1411505552432546,-2.164399777261887,-2.4395488838862014
1773065402011712768,0.4672539234161377,0.22925154864788055,-1.6028722524642944,-2.2412807941436768,-0.36159780621528625,0.9021656513214111,0.23525260388851166,0.2890881299972534,0.11332184076309204,0.09957094490528107,0.5826829732373064,-0.785268448246793,-0.031301159674866144,-0.2070123312442993,-1.1247636407937505,-2.1475875151853776,-2.4030853500210476
1773065402021750784,0.4772918224334717,-0.052016571164131165,-1.5331156253814697,-2.3335793018341064,-0.3784409761428833,0.8939175605773926,0.24019549787044525,0.2437211275100708,0.10193198919296265,0.046013593673706055,0.5803936307855553,-0.7861768769142395,-0.044985197274027604,-0.20747414099906142,-1.1060104743098307,-2.1363386586044717,-2.3730328021499556
1773065402031787520,0.48732876777648926,-0.4715648591518402,-1.4819906949996948,-2.4497482776641846,-0.3960963785648346,0.8839901089668274,0.24833258986473083,0.1539088785648346,0.1544315218925476,0.007847189903259277,0.576488937560857,-0.7878717092999077,-0.058518924496996264,-0.20855257266316377,-1.0843294016803533,-2.1307966082095815,-2.349849013527262
1773065402041825792,0.49736690521240234,-0.712429404258728,-1.4721280336380005,-2.5961952209472656,-0.4145257771015167,0.8721787333488464,0.259755402803421,0.05214473605155945,0.22910922765731812,-0.06474801898002625,0.5709226293837564,-0.7903680088810783,-0.07208406278936066,-0.2101659840849542,-1.0596385603978962,-2.130568840802767,-2.332746436587386
1773065402051863552,0.5074048042297363,-0.6759512424468994,-1.4630961418151855,-2.8204946517944336,-0.4340847134590149,0.8588059544563293,0.27207157015800476,-0.05105328559875488,0.2784469723701477,-0.17157718539237976,0.5647014086625839,-0.7928395507708409,-0.0862625681439859,-0.21231252896141242,-1.0329343880234787,-2.1306679069586596,-2.315840320873759
1773065402061901824,0.5174429416656494,-0.5931087136268616,-1.4950096607208252,-3.078808307647705,-0.4551513195037842,0.8438690900802612,0.2841169834136963,-0.10339674353599548,0.3275940418243408,-0.1781599223613739,0.5583072030264428,-0.794830716611253,-0.101501816168977,-0.21502246775546474,-1.004453906470919,-2.128838372704434,-2.296235101850089
1773065402071939584,0.5274808406829834,-0.5404572486877441,-1.4472546577453613,-3.2879390716552734,-0.4775899052619934,0.827302098274231,0.29576918482780457,-0.08306387066841125,0.34400850534439087,-0.11084792017936707,0.551773214411047,-0.7962565976430308,-0.117728616726577,-0.21831586602629455,-0.974287907742845,-2.125282890876152,-2.2742427656418176
1773065402081977600,0.5375187397003174,-0.47421184182167053,-1.3873878717422485,-3.3564817905426025,-0.5006813406944275,0.8094085454940796,0.30688148736953735,-0.04108208417892456,0.3023774027824402,-0.06470915675163269,0.5451685694465783,-0.7971079366274804,-0.13438629633714358,-0.2221499301114965,-0.9431442974529006,-2.120667346611863,-2.2512497993508123
1773065402092015616,0.5475568771362305,-0.4392775595188141,-1.3131077289581299,-3.2429888248443604,-0.5230340957641602,0.790977418422699,0.31747469305992126,-0.035727620124816895,0.2361375093460083,-0.09295687079429626,0.5386621704955492,-0.7974937842422625,-0.150801231057239,-0.22606585568448034,-0.9124048910474128,-2.116337236909075,-2.228876746274331
1773065402102053632,0.5575947761535645,-0.4624573588371277,-1.2452882528305054,-3.052117109298706,-0.5435764789581299,0.7727019190788269,0.3278050124645233,-0.09848278760910034,0.18233031034469604,-0.11518910527229309,0.5322705903598025,-0.7976461810650448,-0.1663222005583997,-0.22975077013504758,-0.8830867024024824,-2.1134570925329967,-2.2087721507358835
1773065402112091904,0.5676329135894775,-0.5398623943328857,-1.2151926755905151,-2.9555370807647705,-0.5623903870582581,0.7544340491294861,0.3384471535682678,-0.21138286590576172,0.12001675367355347,-0.1382671296596527,0.5257327260319784,-0.7977884481913101,-0.18098943197059794,-0.23319858937358484,-0.8547914279374607,-2.1125391050762365,-2.1913925459847676
1773065402122129664,0.5776708126068115,-0.7424322366714478,-1.0402977466583252,-3.014143466949463,-0.5807203054428101,0.7351775765419006,0.3496822714805603,-0.3165268898010254,0.06850284337997437,-0.07210972905158997,0.5186238918475623,-0.7979711905490378,-0.19514896600434345,-0.23704019577663124,-0.8259285663362511,-2.1127971497641838,-2.1764113991563443
1773065402132167936,0.5877089500427246,-1.083011507987976,-0.8923474550247192,-3.0924270153045654,-0.5995709896087646,0.7138257026672363,0.36189454793930054,-0.3432086110115051,0.04996824264526367,-0.016069382429122925,0.5103591781183141,-0.7983495631980325,-0.2087708224343905,-0.24204609845916852,-0.7949459132516965,-2.11385074140212,-2.1646918566524866
1773065402142205696,0.5977468490600586,-1.4267127513885498,-0.8361759185791016,-3.0422794818878174,-0.6180661916732788,0.6903441548347473,0.3760572075843811,-0.2569947838783264,0.059091269969940186,-0.032551348209381104,0.5005806977598556,-0.7992907627417829,-0.2217270359398434,-0.24777067104395953,-0.7619646206820034,-2.1173998197234067,-2.1574655539297023
1773065402152243712,0.6077847480773926,-1.467350721359253,-0.7381393909454346,-2.824523687362671,-0.6350141763687134,0.6662033796310425,0.39106276631355286,-0.16381394863128662,0.06888878345489502,-0.06417369842529297,0.490073970068406,-0.8005873421450909,-0.23364777793286293,-0.2535668324233557,-0.7291062651126093,-2.122776541484344,-2.1536405224526147
1773065402162281728,0.6178228855133057,-1.2087208032608032,-0.6583791375160217,-2.5788938999176025,-0.649905264377594,0.6434096097946167,0.4045338034629822,-0.15610980987548828,0.034599483013153076,-0.06302672624588013,0.4803195711033019,-0.8015549516082308,-0.24449244584400284,-0.2588944437574874,-0.6989439147798713,-2.1275601250151577,-2.150029392504226
1773065402172318720,0.6278598308563232,-0.8251161575317383,-0.5795141458511353,-2.41664457321167,-0.663192093372345,0.6228662729263306,0.41498664021492004,-0.21676701307296753,-0.07097107172012329,-0.15331363677978516,0.4722335561201165,-0.8016524656712912,-0.25465005367719135,-0.26363261942945476,-0.6724011492679997,-2.129928509347177,-2.144030896273506
1773065402182356480,0.6378977298736572,-0.6983237862586975,-0.5315496325492859,-2.3520267009735107,-0.6755572557449341,0.6037427186965942,0.4232223629951477,-0.3097332715988159,-0.17042362689971924,-0.10124659538269043,0.4653648884027631,-0.8010200010196101,-0.2645338107935097,-0.26800064955548053,-0.6481877382727814,-2.13045840511482,-2.135933565336711
1773065402192394752,0.6479358673095703,-0.8910263776779175,-0.5573838949203491,-2.2186083793640137,-0.6868829131126404,0.5847465991973877,0.43158257007598877,-0.3114386796951294,-0.23922652006149292,-0.0903196930885315,0.4584019046551858,-0.8004640463588433,-0.27394998024124617,-0.27216995157146134,-0.6245676288535819,-2.131779803504693,-2.1289518178870055
1773065402202432512,0.6579737663269043,-1.113970160484314,-0.4794843792915344,-2.00938081741333,-0.696809709072113,0.5655910968780518,0.44109323620796204,-0.20374882221221924,-0.2705928683280945,-0.020011603832244873,0.45067549197966467,-0.800546187918451,-0.28226302879021525,-0.2763061410438925,-0.6011498083187928,-2.135140773302696,-2.1256191314433757
1773065402212470784,0.6680119037628174,-1.0357041358947754,-0.3351956605911255,-1.7570017576217651,-0.705496609210968,0.547467827796936,0.4500596225261688,-0.09446072578430176,-0.30012279748916626,0.022169411182403564,0.4430735378366769,-0.8008683056265724,-0.28920541329505567,-0.28045688361787374,-0.579335288181992,-2.138641840755391,-2.1245762551665504
1773065402222508544,0.6780498027801514,-0.7761261463165283,-0.17459599673748016,-1.5147818326950073,-0.7131818532943726,0.5317214131355286,0.4567756652832031,-0.05970633029937744,-0.32095175981521606,0.012035369873046875,0.4367481443453896,-0.8008330505081432,-0.2950495807247511,-0.28436460260982716,-0.5606317956152994,-2.140446926545177,-2.123179837019897
1773065402232546816,0.6880879402160645,-0.6446320414543152,0.007629740051925182,-1.327206015586853,-0.7202357649803162,0.5183387994766235,0.4610700309276581,-0.09342396259307861,-0.2899909019470215,0.05272394418716431,0.4317874072859705,-0.8003652345908409,-0.2999174970572912,-0.28814005544079724,-0.5449072445900671,-2.1402268593728597,-2.121110587501002
1773065402242584832,0.6981258392333984,-0.6196963787078857,0.156701922416687,-1.2270921468734741,-0.7271946668624878,0.5061815977096558,0.463646799325943,-0.15435141324996948,-0.242875874042511,0.09439772367477417,0.4275469399586648,-0.7996631070201345,-0.3039116869621569,-0.29219909276869666,-0.5307514912775589,-2.138392791850086,-2.1193052070717915
1773065402252622592,0.7081637382507324,-0.6219204068183899,0.2621396481990814,-1.1589528322219849,-0.7341674566268921,0.4945485293865204,0.46520930528640747,-0.19922780990600586,-0.22045496106147766,0.09564271569252014,0.4236219192281232,-0.7988478523815942,-0.3073219068519451,-0.296546371123948,-0.5173153143529781,-2.13559566759145,-2.117966999138069
1773065402262660864,0.7182018756866455,-0.6002740859985352,0.33183178305625916,-1.0852007865905762,-0.7410763502120972,0.4833633303642273,0.4660109579563141,-0.19209039211273193,-0.22750386595726013,0.08759331703186035,0.4199422332796255,-0.7979571004819304,-0.31027397357648445,-0.3010700964508217,-0.5044926329422522,-2.132144977768519,-2.1170309189874574
1773065402272698624,0.7282397747039795,-0.5755085349082947,0.3948538899421692,-0.9897161722183228,-0.7477436661720276,0.4728606343269348,0.46613603830337524,-0.15006834268569946,-0.23311448097229004,0.0979662537574768,0.4165737474309294,-0.7970198903811426,-0.3127735866093391,-0.3056116371852231,-0.49253448008449835,-2.128237184636992,-2.116434443942529
1773065402282736896,0.7382779121398926,-0.46687620878219604,0.4532877802848816,-0.912720263004303,-0.7542123794555664,0.4632109999656677,0.4654020071029663,-0.12689101696014404,-0.2368163764476776,0.10678726434707642,0.4136600505276862,-0.7959632263018122,-0.3148706709979119,-0.31013588772561473,-0.48161490654510597,-2.1236730030724065,-2.1158445172100233
1773065402292774656,0.7483158111572266,-0.30964717268943787,0.44775640964508057,-0.7733850479125977,-0.7602341771125793,0.4549795687198639,0.4637216329574585,-0.12059468030929565,-0.2259146273136139,0.0636221170425415,0.4115222609431976,-0.7947006896466424,-0.31672012526882193,-0.3143066483019101,-0.47234926862666754,-2.1185160120207245,-2.1145143079334714
1773065402302811648,0.7583527565002441,-0.3302302062511444,0.6650474071502686,-0.6213172078132629,-0.7658173441886902,0.44839805364608765,0.46093738079071045,-0.09686893224716187,-0.14906632900238037,0.21452349424362183,0.4101314991231973,-0.7933625667545944,-0.3178750254769772,-0.3183136124363153,-0.4649723223314614,-2.1126039861857664,-2.1133328421525768
1773065402312849664,0.7683908939361572,-0.2523348927497864,0.5971490740776062,-0.6907625794410706,-0.7716063261032104,0.4420458972454071,0.4574049115180969,-0.13496416807174683,-0.0662676990032196,0.25138115882873535,0.4089215167261708,-0.7919242067460337,-0.31868245626659625,-0.32261551605396177,-0.45787822282039264,-2.105901724156653,-2.1124521836667345
1773065402322887680,0.7784287929534912,-0.2104630172252655,0.5354714393615723,-0.7864460945129395,-0.7775681614875793,0.4350978136062622,0.45395779609680176,-0.11861103773117065,-0.030327945947647095,0.04024386405944824,0.40763307128904464,-0.7903028055641135,-0.3200005824519652,-0.3268889437425194,-0.45014691096707704,-2.099231853816769,-2.11073211106118
1773065402332925696,0.7884669303894043,-0.18571746349334717,0.4511837363243103,-0.821510910987854,-0.7832943797111511,0.4280063807964325,0.4508444666862488,-0.008652150630950928,-0.05186191201210022,-0.03112083673477173,0.40641139534523935,-0.7885478859318436,-0.32189200489474235,-0.3307682625843039,-0.4422857368901599,-2.0930624315219415,-2.107918325106246
1773065402342963712,0.7985048294067383,-0.1979708969593048,0.3259468674659729,-0.7378518581390381,-0.7883852124214172,0.4209257662296295,0.4486311376094818,0.06447792053222656,-0.1136900782585144,-0.04665374755859375,0.4049508944088601,-0.7870301696526442,-0.3238812686682054,-0.3342141239849976,-0.4344656478712646,-2.0881480261074428,-2.1054848740690173
1773065402353001472,0.8085427284240723,-0.22851096093654633,0.29618149995803833,-0.6688986420631409,-0.7926937341690063,0.4144497811794281,0.44706612825393677,0.1050715446472168,-0.1904659867286682,-0.04406625032424927,0.4034567990385986,-0.7857939634126658,-0.325669948962486,-0.3371788658232603,-0.4273381372185779,-2.084311951301807,-2.1036662501245558
1773065402363039744,0.8185808658599854,-0.3019787669181824,0.2376505583524704,-0.6559159755706787,-0.796634316444397,0.4080122709274292,0.4459820091724396,0.05307340621948242,-0.21497327089309692,-0.019697129726409912,0.40174314000313527,-0.784785298074261,-0.3272660115602111,-0.3400169179503382,-0.4202757902234704,-2.0811573541521127,-2.1026493213759356
1773065402373077504,0.8286187648773193,-0.30779725313186646,0.12986071407794952,-0.6605114936828613,-0.800144612789154,0.4012891948223114,0.44579774141311646,0.014454305171966553,-0.1998884379863739,-0.01189887523651123,0.39966419338489917,-0.7840179389703832,-0.32896010124983927,-0.34259259368906725,-0.4129239173547003,-2.0791097089594057,-2.1021427330289137
1773065402383115776,0.8386569023132324,-0.15423265099525452,0.08939610421657562,-0.6115986108779907,-0.8031648397445679,0.39510002732276917,0.44589486718177795,0.005587935447692871,-0.16339534521102905,-0.005678772926330566,0.39781277312567787,-0.7832499905212255,-0.3308577969999577,-0.34467023894002313,-0.40617673759614276,-2.0776019074531433,-2.100990693655233
1773065402393153792,0.8486948013305664,-0.011815310455858707,0.07915012538433075,-0.5218732357025146,-0.8057839870452881,0.3901786804199219,0.4455034136772156,0.00994640588760376,-0.0888022780418396,0.02062225341796875,0.39667332760523977,-0.7823080929739065,-0.3327848391550206,-0.3462640082763653,-0.4008256508764424,-2.07584944362591,-2.0987142322294945
1773065402403191808,0.8587329387664795,0.1702241450548172,0.07544420659542084,-0.575381875038147,-0.8082274794578552,0.38616999983787537,0.4445689618587494,0.005111396312713623,0.01913401484489441,0.08079123497009277,0.3961536814238063,-0.7811350949687136,-0.33483195424203804,-0.3475312000816155,-0.3964758626232004,-2.073681188261398,-2.0952540641408146
1773065402413229824,0.8687708377838135,0.349810391664505,-0.0727577805519104,-0.7391678690910339,-0.8108261823654175,0.3820670247077942,0.44337955117225647,-0.01592540740966797,0.06963881850242615,0.011759579181671143,0.3961152584778463,-0.7794506237577788,-0.33785573241252326,-0.34842909903849917,-0.3920319887093597,-2.071198191015441,-2.0891862633247977
1773065402423266560,0.878807783126831,0.3538890480995178,-0.19255635142326355,-0.7746198177337646,-0.813088595867157,0.37739643454551697,0.44323650002479553,0.03931552171707153,0.03242406249046326,-0.00916975736618042,0.3959110843456721,-0.7776934125510141,-0.34177653607317715,-0.3487636259981272,-0.3869832138837918,-2.0698905239090495,-2.081797444453333
1773065402433304832,0.8888459205627441,0.18314126133918762,-0.13723024725914001,-0.691278338432312,-0.8151463866233826,0.3726153075695038,0.4435020387172699,0.11225032806396484,-0.07944825291633606,0.009653419256210327,0.39543897150569485,-0.7761420389971183,-0.3454772747413318,-0.3491087983391196,-0.3818256929803421,-2.069080402740998,-2.0752797385745017
1773065402443342592,0.8988838195800781,-0.1324508637189865,-0.1363130509853363,-0.5692920088768005,-0.8168860673904419,0.36760538816452026,0.44448110461235046,0.1294928789138794,-0.14404889941215515,0.0028607845306396484,0.3942221504438268,-0.7752234418188271,-0.3482372278821381,-0.3497832830732791,-0.3764327988337202,-2.069111160415823,-2.0717552411667843
1773065402453380864,0.9089219570159912,-0.3381206691265106,-0.18144431710243225,-0.521662175655365,-0.8181639313697815,0.36204415559768677,0.4466899335384369,0.08685588836669922,-0.15472295880317688,0.011073708534240723,0.3920192634365366,-0.7750471236771058,-0.3502098280983395,-0.3506792616374267,-0.3704598851740272,-2.070537388105931,-2.0713418556414807
1773065402463418624,0.9189598560333252,-0.33370909094810486,-0.23048709332942963,-0.5384183526039124,-0.8191583752632141,0.35612621903419495,0.44961512088775635,-0.015375316143035889,-0.14691299200057983,-0.029067635536193848,0.389376567180951,-0.7751516567611466,-0.3520617507205723,-0.35153713916321605,-0.3641190299320332,-2.0727750068397808,-2.07187402135799
1773065402473456640,0.9289977550506592,-0.24002495408058167,-0.2636261284351349,-0.5393102765083313,-0.8199513554573059,0.35035011172294617,0.4526970684528351,-0.09496563673019409,-0.13437724113464355,-0.020766496658325195,0.3868516117473205,-0.7751923069974117,-0.354154514648243,-0.35213255286226286,-0.3579448902709046,-2.075252175650782,-2.071772169991919
1773065402483493376,0.9390344619750977,-0.17321377992630005,-0.239318385720253,-0.512897253036499,-0.8206396698951721,0.3450712263584137,0.4554958939552307,-0.11626535654067993,-0.10733926296234131,0.027475297451019287,0.3846752147777744,-0.7750905785313045,-0.35634610422233176,-0.35252953740435206,-0.3523146595614403,-2.077508288240681,-2.0709266956954537
1773065402493531136,0.9490723609924316,-0.14774677157402039,-0.18383915722370148,-0.49239227175712585,-0.8213885426521301,0.34023919701576233,0.4577752649784088,-0.08754700422286987,-0.05354177951812744,0.07731997966766357,0.3828099068333902,-0.7748640859336935,-0.3584316916042369,-0.35294326873837084,-0.34717125302749674,-2.0792411960102877,-2.0697594563025437
1773065402503569408,0.9591104984283447,-0.1913510262966156,-0.15394291281700134,-0.4994063675403595,-0.8223006725311279,0.3354056775569916,0.4597003757953644,-0.03982079029083252,0.023938804864883423,0.12565726041793823,0.38099159111908587,-0.7745857806930961,-0.3603707241422306,-0.35354655518889744,-0.3420358235313712,-2.0805548284381614,-2.0687441267597357
1773065402513607168,0.9691483974456787,-0.19806991517543793,-0.16406665742397308,-0.5682373642921448,-0.8233348727226257,0.33011746406555176,0.46167343854904175,0.0038920044898986816,0.09412264823913574,0.14722853899002075,0.3789914830699251,-0.7742874735847975,-0.3623749868600863,-0.3543004676840563,-0.3364280096429,-2.081844700354731,-2.067842213215379
1773065402523645440,0.9791865348815918,-0.1145695224404335,-0.13241791725158691,-0.6388736963272095,-0.8246402144432068,0.32435524463653564,0.4634241759777069,0.028024733066558838,0.13012775778770447,0.12477153539657593,0.37701993138896783,-0.7737466507499484,-0.3647303244727111,-0.35516729828565363,-0.330330048360926,-2.0827841117741173,-2.066164222802046
1773065402533683200,0.9892244338989258,0.03468760848045349,-0.12372375279664993,-0.6630538702011108,-0.826154887676239,0.31872451305389404,0.46463149785995483,0.050123512744903564,0.14238083362579346,0.09713593125343323,0.37543655457058317,-0.7728638562850888,-0.3674196724405418,-0.3559937126060744,-0.3243835017064053,-2.0831116558196237,-2.0632116656776494
1773065402543721216,0.9992623329162598,0.2619388699531555,-0.08488474041223526,-0.6430671215057373,-0.8277106285095215,0.3140319585800171,0.4650581479072571,0.06974554061889648,0.10596618056297302,0.10040199756622314,0.37466256793683034,-0.771565288264714,-0.37042689286981156,-0.35650934094836967,-0.3194368718377502,-2.082700079008137,-2.058417179643443
1773065402553759232,1.0093004703521729,0.38954129815101624,0.029414663091301918,-0.5878475904464722,-0.8295046091079712,0.3104439973831177,0.4642697870731354,0.05200839042663574,0.040111392736434937,0.15413841605186462,0.3747838062073647,-0.7698430640566023,-0.3734656032178471,-0.3569343830202775,-0.3156600723939936,-2.081052617012281,-2.0521697176921663
1773065402563796224,1.0193374156951904,0.44964829087257385,0.13850505650043488,-0.4751379191875458,-0.8315623998641968,0.3079492449760437,0.4622458815574646,0.018146872520446777,-0.037334591150283813,0.21818923950195312,0.37561732580914425,-0.7678866229597897,-0.37612906590544554,-0.3574754395299524,-0.31303675946717324,-2.078139938697791,-2.0455174505807543
1773065402573834240,1.0293753147125244,0.3795008957386017,0.2437792867422104,-0.37154895067214966,-0.8337483406066895,0.3064083755016327,0.4593232274055481,-0.0023723840713500977,-0.1289639174938202,0.24155884981155396,0.3768748662094001,-0.7659329254571362,-0.3781644624583631,-0.35819517907866844,-0.3114176056439742,-2.0743406162554763,-2.039396418501538
1773065402583872256,1.0394134521484375,0.16698387265205383,0.3105488717556,-0.29380127787590027,-0.8360562920570374,0.3049059808254242,0.4561162292957306,-0.01642155647277832,-0.23213687539100647,0.22485294938087463,0.3778826257489738,-0.7642662962907614,-0.3794142123695084,-0.3593696627615175,-0.3098397221358977,-2.0702218728770063,-2.0351257620225804
1773065402593910272,1.0494513511657715,-0.17414310574531555,0.36579403281211853,-0.23876626789569855,-0.8384008407592773,0.30270707607269287,0.45326852798461914,0.00969606637954712,-0.33092060685157776,0.22208544611930847,0.3780625612985541,-0.7631472421773696,-0.37979013987258514,-0.3611570069874931,-0.3075316969120084,-2.066420824069057,-2.0337686723341206
1773065402603948288,1.0594894886016846,-0.6189349293708801,0.35502058267593384,-0.24796494841575623,-0.8408018350601196,0.29885655641555786,0.45137253403663635,0.04941999912261963,-0.3684671223163605,0.15740740299224854,0.37680468918358656,-0.7627632790166151,-0.3793131174024856,-0.3637746689702351,-0.3034942215228264,-2.0634765134924766,-2.036207433190007
1773065402613986304,1.0695273876190186,-0.9025924801826477,0.30141913890838623,-0.22570517659187317,-0.8430074453353882,0.2932797074317932,0.4509163796901703,0.10336816310882568,-0.3011532723903656,0.06806552410125732,0.3739944549349558,-0.763174898860764,-0.37818284867424706,-0.36697412939149987,-0.2976556121601235,-2.0619649213946345,-2.0422521917747027
1773065402624024320,1.0795655250549316,-0.8327282071113586,0.22582106292247772,-0.14749427139759064,-0.8447763323783875,0.2876579165458679,0.4512271285057068,0.16038912534713745,-0.1685020625591278,-0.05948817729949951,0.3707522197936183,-0.7639780233975717,-0.3767640354425452,-0.3700395372060719,-0.29178049301526726,-2.0613798824721212,-2.0495278683482487
1773065402634062336,1.0896034240722656,-0.47845056653022766,0.12406859546899796,-0.06729370355606079,-0.8458591103553772,0.2837238609790802,0.45168906450271606,0.18632858991622925,-0.05963331460952759,-0.16959983110427856,0.3683052843885335,-0.7647048914710736,-0.3755941449399881,-0.3721647996398199,-0.28767534250650745,-2.0612728210319653,-2.0552193274640094
1773065402644100096,1.0996413230895996,-0.10432833433151245,0.04756197705864906,-0.031018920242786407,-0.8463815450668335,0.28206223249435425,0.45175081491470337,0.17749744653701782,-0.027896583080291748,-0.20445173978805542,0.36731192114083006,-0.764968132383806,-0.3750988805911057,-0.3731037672184931,-0.2859429277552928,-2.061073087780034,-2.0575490277800568
1773065402654138368,1.1096794605255127,0.022023746743798256,-0.013738398440182209,-0.004430986475199461,-0.8464949727058411,0.28180599212646484,0.45169833302497864,0.1562790870666504,-0.03879457712173462,-0.1407242715358734,0.36721310050003264,-0.7649540455522786,-0.37509263046049623,-0.37323621681016605,-0.285675861006499,-2.0609691815678106,-2.057689785806032
1773065402664176128,1.1197173595428467,-0.009488639421761036,-0.007618987001478672,-0.010078218765556812,-0.8464493155479431,0.2817944288253784,0.45179128646850586,0.12132120132446289,-0.030863672494888306,0.010916203260421753,0.3672025361396422,-0.7649593514063942,-0.3751437471259569,-0.37318441691830856,-0.2856638145772932,-2.0610770463749954,-2.0576158305908487
1773065402674214400,1.1297554969787598,0.037356629967689514,0.022182852029800415,-0.06468313932418823,-0.8465913534164429,0.281523734331131,0.4516940116882324,0.07464921474456787,0.0024423599243164062,0.10168123245239258,0.36718070530019814,-0.7648615598227834,-0.3752783024721415,-0.37327110106852107,-0.2853816895639651,-2.060917920856228,-2.057371764733413
1773065402684252160,1.1397933959960938,0.0734863132238388,0.05510324984788895,-0.11101868003606796,-0.8470062017440796,0.2810475528240204,0.4512125551700592,0.04150998592376709,0.08163860440254211,0.14525353908538818,0.36731505931997516,-0.7645165312894296,-0.3756604287077724,-0.3734613557442269,-0.2848854957077457,-2.060271803460007,-2.056385942362434
1773065402694289152,1.1498303413391113,0.22914381325244904,0.14850962162017822,-0.20494358241558075,-0.8478744626045227,0.2803981602191925,0.4499843120574951,0.016026318073272705,0.155560702085495,0.24691510200500488,0.3677494751280459,-0.7637946746346089,-0.37631084882808036,-0.37385585195465737,-0.2842088795462243,-2.05871720321079,-2.054378012414213
1773065402704327424,1.1598684787750244,0.3192829191684723,0.25021815299987793,-0.3567592203617096,-0.8495601415634155,0.27928397059440613,0.44749101996421814,-0.018817663192749023,0.15180733799934387,0.23614853620529175,0.3687014369334777,-0.7623489726391287,-0.37758383635680703,-0.3745848314592744,-0.283048323487295,-2.055600599139325,-2.050297567967379
1773065402714365184,1.1699063777923584,0.19438602030277252,0.35503271222114563,-0.40897423028945923,-0.8520306944847107,0.2771182656288147,0.44412755966186523,-0.03244501352310181,0.1722835898399353,0.24050378799438477,0.3695448041837197,-0.7605478418192639,-0.37898649456684674,-0.3759958953138868,-0.28079361959383364,-2.0513051081497835,-2.046012458562301
1773065402724403456,1.1799445152282715,0.283113569021225,0.32302871346473694,-0.36587971448898315,-0.85463947057724,0.2746957838535309,0.4406065046787262,-0.038488149642944336,0.144936203956604,0.17940402030944824,0.37027238960088704,-0.7587488357962003,-0.3802676175610885,-0.3776178966877713,-0.278273289852884,-2.0468037551842895,-2.042109927063782
1773065402734441216,1.1899824142456055,0.5309739708900452,0.2960343658924103,-0.17937031388282776,-0.856777012348175,0.27412670850753784,0.43679261207580566,-0.04579561948776245,-0.007113158702850342,0.049794912338256836,0.3719058423974268,-0.7568624391814934,-0.38151743756362244,-0.37853633402907816,-0.27768150095503624,-2.04226029968586,-2.0369782650542643
1773065402744479232,1.2000203132629395,0.5617073178291321,0.24507437646389008,0.01484963484108448,-0.8581638932228088,0.2759600579738617,0.4328978657722473,-0.05527287721633911,-0.21606934070587158,-0.015371739864349365,0.37442894267467164,-0.7551488489268107,-0.38235997183722575,-0.378621116285603,-0.2795883965291212,-2.0379948966595203,-2.0313750036808766
1773065402754517248,1.2100584506988525,0.3527117967605591,0.2138163298368454,0.06148717552423477,-0.8590218424797058,0.2784055471420288,0.4296182692050934,-0.09330970048904419,-0.3795712888240814,0.019325852394104004,0.37673978045528617,-0.7539185904908567,-0.38264330327623897,-0.3784944186182491,-0.28213361398284803,-2.0345438999396777,-2.0272050501259846
1773065402764555264,1.2200963497161865,0.02818022109568119,0.21555936336517334,0.029453078284859657,-0.8598016500473022,0.2796047627925873,0.4272732734680176,-0.13330137729644775,-0.40602385997772217,0.08772611618041992,0.37795002140663403,-0.7532404135979884,-0.3824467587336206,-0.3788366473326882,-0.2833824309578074,-2.031996156158928,-2.025613324551293
1773065402774593280,1.2301344871520996,-0.3311808705329895,0.2532566785812378,0.08515708148479462,-0.8606464266777039,0.2794140875339508,0.4256945550441742,-0.13514232635498047,-0.2965649664402008,0.13854500651359558,0.37793198790348154,-0.7531787640114553,-0.381535087646724,-0.37989507157952557,-0.28318384701894617,-2.0301321838289974,-2.027232353163214
1773065402784631296,1.2401723861694336,-0.5468495488166809,0.356315553188324,0.15516319870948792,-0.8615792393684387,0.2785472869873047,0.42437300086021423,-0.100960373878479,-0.09664732217788696,0.2520948350429535,0.37701449716619206,-0.753712249151862,-0.37961077628391765,-0.381671996724261,-0.282281195887631,-2.028468184856584,-2.0321140139145135
1773065402794669312,1.2502105236053467,-0.5726880431175232,0.5668419003486633,0.11091398447751999,-0.8631535768508911,0.27734774351119995,0.42195257544517517,-0.07536870241165161,0.11176660656929016,0.35470446944236755,0.3760220126725855,-0.7541537844440287,-0.3771317521560934,-0.3842279412925289,-0.2810324411993033,-2.025484161959069,-2.03804167036637
1773065402804707328,1.2602484226226807,-0.5097531080245972,0.7188026905059814,-0.01827729493379593,-0.8657324910163879,0.2754545211791992,0.41789016127586365,-0.05946892499923706,0.30892661213874817,0.37402570247650146,0.37525035823372926,-0.7540357002504975,-0.37466684163627295,-0.3876107893547727,-0.2790624740348297,-2.020509420150934,-2.0434325415395627
1773065402814744320,1.2702853679656982,-0.07281443476676941,0.8376563787460327,-0.24716080725193024,-0.8693150281906128,0.272945761680603,0.4120583236217499,-0.04294693470001221,0.41200605034828186,0.27979040145874023,0.3751959707945408,-0.7529036529199085,-0.3730485812502116,-0.3914062416338024,-0.2764537214394505,-2.0134312416533,-2.0459745377600744
1773065402824782336,1.2803235054016113,0.9665563702583313,0.7212899327278137,-0.45166242122650146,-0.8736451864242554,0.27152422070503235,0.40375611186027527,-0.01736140251159668,0.29360029101371765,-0.16440671682357788,0.37763261404928866,-0.7497978062249754,-0.3737396265976564,-0.39435472999844384,-0.27497640875616747,-2.0037090777767648,-2.0402750689506655
1773065402834820352,1.2903614044189453,1.7736787796020508,0.28969377279281616,-0.3865273594856262,-0.8768451809883118,0.27337029576301575,0.3954887390136719,0.11219662427902222,-0.007775783538818359,-0.6580619215965271,0.3830079227737472,-0.7452978483329822,-0.37719423261818164,-0.394411728093501,-0.27689506154381693,-1.9945114567725655,-2.025028288843346
1773065402844858112,1.3003993034362793,1.805309534072876,0.05901956185698509,-0.13142289221286774,-0.8781890869140625,0.27829253673553467,0.38902077078819275,0.250274658203125,-0.34947478771209717,-0.6497935056686401,0.3896418560386116,-0.7409253095468792,-0.3814971409211228,-0.3920061823609233,-0.28201597561884034,-1.9877976316148136,-2.00638783850352
1773065402854896384,1.3104374408721924,1.1686217784881592,0.01459776796400547,0.093318872153759,-0.878337562084198,0.2841179370880127,0.38444802165031433,0.305125892162323,-0.5435020923614502,-0.3588895797729492,0.3953377241429611,-0.7378416345127837,-0.3844655105492831,-0.3892095993665989,-0.28808631998802137,-1.9833743137068323,-1.991747323672269
1773065402864934144,1.3204753398895264,0.11145380139350891,0.19866614043712616,0.18310469388961792,-0.8782778978347778,0.2878369688987732,0.3818085193634033,0.3017398715019226,-0.4376325011253357,0.009381026029586792,0.3981587837395359,-0.73666621643303,-0.3850027801263904,-0.38802744724999655,-0.2919674398082917,-1.9808744025220877,-1.9862050217740341
1773065402874972416,1.3305134773254395,-0.4937591254711151,0.3846447765827179,0.17372636497020721,-0.8788799047470093,0.28851768374443054,0.37990543246269226,0.20489895343780518,-0.12691178917884827,0.20719179511070251,0.39818625144048986,-0.7369271094167263,-0.3832638199121105,-0.3892237920427232,-0.2926783322613738,-1.9788009368472486,-1.9893019443058444
1773065402885010176,1.3405513763427734,-0.1329847127199173,0.454943984746933,0.09290821105241776,-0.880108654499054,0.2883211374282837,0.3771996796131134,-0.0040313005447387695,0.17806372046470642,0.1123327910900116,0.39790786793813854,-0.7370898857924953,-0.3811801879698366,-0.39124094369426515,-0.29247305384702077,-1.9756979405894697,-1.993425715426662
1773065402895048448,1.3505895137786865,0.6219093203544617,0.3543497323989868,-0.0796063020825386,-0.8816432356834412,0.2893630266189575,0.3727929890155792,-0.2282659411430359,0.35016337037086487,-0.07895442843437195,0.3996534760220529,-0.7357898250065735,-0.3808015657487256,-0.39227635420387114,-0.2935613252143241,-1.9708350230481682,-1.9910463311148954
1773065402905086208,1.3606274127960205,0.9263789653778076,0.2826867401599884,-0.3658614754676819,-0.8834224939346313,0.29047298431396484,0.36768192052841187,-0.3124239444732666,0.31586551666259766,-0.10684815049171448,0.40283569007515724,-0.733112958576753,-0.3826046846924953,-0.3922784648327021,-0.2947210851002606,-1.965191162533344,-1.9822228241936948
1773065402915124224,1.3706653118133545,0.6719565391540527,0.3216346800327301,-0.5656505227088928,-0.8859474658966064,0.2891988158226013,0.3625759780406952,-0.1854485273361206,0.08586224913597107,-0.05353972315788269,0.4054848024668466,-0.7299197700247907,-0.3853636253706905,-0.3928029404469245,-0.29338978546240213,-1.9592532489193901,-1.9723573152476315
1773065402925162240,1.3807034492492676,0.3322194814682007,0.21876154839992523,-0.44687697291374207,-0.8884832859039307,0.2863173484802246,0.35863614082336426,0.08652704954147339,-0.1806807816028595,-0.07799649238586426,0.4068199852931812,-0.7273222955132037,-0.3877116910632976,-0.393928201964082,-0.2903810596869155,-1.954445180707132,-1.9654075594787872
1773065402935200256,1.3907413482666016,0.08026152849197388,0.18691760301589966,-0.10084953904151917,-0.8899747133255005,0.28457140922546387,0.3563205897808075,0.30830955505371094,-0.31019091606140137,-0.043194979429244995,0.40739149385689866,-0.725981603656238,-0.38872998401104775,-0.39480622871302706,-0.28855933675430356,-1.9516229938112704,-1.9623452993211206
1773065402945237504,1.4007785320281982,-0.15807726979255676,0.25778645277023315,0.16934414207935333,-0.8906382322311401,0.28485381603240967,0.35443219542503357,0.3076302409172058,-0.23880282044410706,0.04481402039527893,0.40777066123484795,-0.7257178228464046,-0.3880074009023904,-0.3956097798652153,-0.28885393529824416,-1.9495368597763372,-1.96295078456318
1773065402955275264,1.4108164310455322,-0.1740570366382599,0.2492680698633194,0.13290756940841675,-0.8910616040229797,0.28572434186935425,0.35266241431236267,0.11878377199172974,-0.06613507866859436,0.05552542209625244,0.40793399411331077,-0.7259191156142065,-0.3864875809239504,-0.3965584583748222,-0.2897621825721928,-1.9476576194256214,-1.9654211421909742
1773065402965313280,1.4208543300628662,0.06404474377632141,0.17893370985984802,-0.09611763060092926,-0.8917750716209412,0.28567150235176086,0.35089799761772156,-0.10489875078201294,0.06546378135681152,-0.024649769067764282,0.4081543966962873,-0.725660753794569,-0.38583087934565824,-0.3974432537601098,-0.2897070488213981,-1.945671675758277,-1.9661546755303623
1773065402975351296,1.4308924674987793,0.2803610563278198,0.16995353996753693,-0.28937017917633057,-0.8929059505462646,0.2845231890678406,0.34894976019859314,-0.19097161293029785,0.1259230375289917,0.007190734148025513,0.40872404896361364,-0.7245858049169376,-0.38658801921887237,-0.3980828271806513,-0.2885090193564091,-1.9433486530314117,-1.9636333315936962
1773065402985389312,1.4409303665161133,0.38564327359199524,0.18365655839443207,-0.35333317518234253,-0.8945138454437256,0.28272688388824463,0.3462805151939392,-0.12932026386260986,0.08974015712738037,0.03390738368034363,0.40966767102424384,-0.7228571312598872,-0.38809512301948473,-0.39878820420729993,-0.28663579123396365,-1.9401465995873934,-1.9590296543077292
1773065402995427328,1.4509685039520264,0.2910957336425781,0.14225585758686066,-0.272305965423584,-0.8959732055664062,0.2810813784599304,0.3438391089439392,0.01004791259765625,-0.01437300443649292,-0.049222350120544434,0.4106291658644613,-0.7211780494871518,-0.38964313308084847,-0.39932962564072294,-0.28492074129040573,-1.9372252096973035,-1.9543416512489826
1773065403005465344,1.4610064029693604,0.067811518907547,0.16120372712612152,-0.14048269391059875,-0.8970615267753601,0.27982407808303833,0.3420221209526062,0.11758154630661011,-0.07038196921348572,-0.007961511611938477,0.41113781772629643,-0.7201153957187195,-0.3904419004357858,-0.3999433161727998,-0.2836108721742007,-1.935052102512219,-1.9518497427450945
1773065403015503360,1.4710445404052734,-0.07627144455909729,0.2145172655582428,-0.048180997371673584,-0.8979498744010925,0.2789822220802307,0.3403749465942383,0.10876518487930298,-0.05725675821304321,0.038699179887771606,0.4112780396526324,-0.7195943874910421,-0.39034778991657554,-0.4008278472900508,-0.2827340743490314,-1.9331198152483264,-1.951653748609225
1773065403025541376,1.4810824394226074,-0.025374794378876686,0.19920437037944794,-0.054556071758270264,-0.898822009563446,0.27833837270736694,0.33859533071517944,0.029864490032196045,-0.012515038251876831,-0.000658869743347168,0.4113836833848925,-0.7191902186501311,-0.3899526822539455,-0.4018280830582773,-0.2820636750473407,-1.931065425326014,-1.9520723918445733
1773065403035579136,1.4911203384399414,0.062170498073101044,0.1577296257019043,-0.06996911764144897,-0.8995855450630188,0.2778395712375641,0.33697283267974854,-0.020397186279296875,0.027809232473373413,-0.05798119306564331,0.41166394289695935,-0.7186803547270234,-0.38985248498645847,-0.40254970932158674,-0.28154439540357257,-1.929204640746498,-1.9516698151369185
1773065403045617408,1.5011584758758545,0.13773122429847717,0.2107611447572708,-0.06284329295158386,-0.9003872871398926,0.27760306000709534,0.33502089977264404,-0.026828110218048096,0.04328927397727966,0.02349954843521118,0.4122841498689841,-0.7179499980684236,-0.3899464647334212,-0.403126823497034,-0.281298192058857,-1.9270092102630985,-1.9503313897315766
1773065403055655168,1.5111963748931885,0.03642136976122856,0.2214215099811554,-0.06866922229528427,-0.9012986421585083,0.277330219745636,0.33278897404670715,-0.02985358238220215,0.031309306621551514,0.06979891657829285,0.4128984210312576,-0.7172052388648784,-0.38988604446725245,-0.4038816040231226,-0.281014211054988,-1.9245011950841857,-1.949268559235951
1773065403065693440,1.5212345123291016,0.07623300701379776,0.17380192875862122,-0.13365449011325836,-0.9022437334060669,0.2765777111053467,0.3308485150337219,-0.03502720594406128,-0.020138531923294067,0.051536738872528076,0.4132667945822709,-0.7164941915872942,-0.3899491374650183,-0.40470507615973655,-0.2802310832897044,-1.9222663375241622,-1.948387084179682
1773065403075730432,1.5312714576721191,0.10244996845722198,0.16084405779838562,-0.18536987900733948,-0.9032392501831055,0.27538684010505676,0.3291213810443878,-0.022664010524749756,-0.06744006276130676,0.08434602618217468,0.4135613635305372,-0.7156677791904417,-0.3903592191435252,-0.40547045015862465,-0.2789920667047442,-1.92022304357673,-1.9469852455959809
1773065403085768192,1.5413093566894531,0.20499876141548157,0.09328912198543549,-0.13738304376602173,-0.9041376113891602,0.27438798546791077,0.32748469710350037,-0.0020055174827575684,-0.10466447472572327,0.04121336340904236,0.414054852344741,-0.7147340075899484,-0.3910212851598772,-0.40597557651601823,-0.2779532018982309,-1.918304045111714,-1.944798666812314
1773065403095806464,1.5513474941253662,0.07544422894716263,0.01615065708756447,-0.02709728293120861,-0.9045307040214539,0.27411767840385437,0.3266242742538452,0.07979333400726318,-0.09656646847724915,0.02483135461807251,0.41450814143693504,-0.7141664315741001,-0.39150790362449767,-0.4060427859889053,-0.27767212056768215,-1.917323632593712,-1.9430778756331861
1773065403105844224,1.5613853931427002,-0.030310653150081635,-0.018243402242660522,0.030297432094812393,-0.9045280814170837,0.2742215096950531,0.32654502987861633,0.11134570837020874,-0.0496731698513031,0.059593915939331055,0.4145962836560066,-0.7141252023849349,-0.39153251153418267,-0.4060017977318983,-0.27778007964590307,-1.9172470540589122,-1.9428840134005385
1773065403115882496,1.5714235305786133,-0.0713622197508812,-0.05503657087683678,0.03462080657482147,-0.904304027557373,0.2743588984012604,0.3270498812198639,0.045722365379333496,-0.0106411874294281,0.031684309244155884,0.41438070723126263,-0.7144005041491908,-0.39135260413745226,-0.40591102515918737,-0.2779229553447698,-1.9178199820937905,-1.9436134898755213
1773065403125920256,1.5814614295959473,0.06811245530843735,-0.01764938421547413,0.025693226605653763,-0.9040841460227966,0.27455416321754456,0.3274930715560913,-0.04667562246322632,0.008954107761383057,0.038824647665023804,0.41430729817435236,-0.714562729271274,-0.3913395398309528,-0.40571281648775886,-0.278126028288721,-1.9183311554492901,-1.9437946718940275
1773065403135958272,1.5914993286132812,-0.10551472753286362,0.021492958068847656,0.013573713600635529,-0.9040234088897705,0.2748683989048004,0.3273971676826477,-0.08918637037277222,0.0387912392616272,0.06940755248069763,0.4144160493637462,-0.7145923454972959,-0.39122419451464496,-0.40566083020381,-0.27845283843912216,-1.9182589179925977,-1.943831534107429
1773065403145996288,1.6015374660491943,0.018063580617308617,0.03578454628586769,-0.19295468926429749,-0.9043570756912231,0.2738003134727478,0.32737064361572266,-0.11865311861038208,0.03560212254524231,0.07042595744132996,0.4139879148776482,-0.7145424438189758,-0.3912983695321542,-0.406114084903114,-0.2773421292250686,-1.9181148323676518,-1.944369978054629
1773065403156034304,1.6115753650665283,0.24476996064186096,-0.007395414635539055,-0.19515392184257507,-0.9050155282020569,0.2722989022731781,0.32680267095565796,-0.047315895557403564,-0.06680881977081299,-0.04018166661262512,0.4141267292408998,-0.7137493601344511,-0.39238143235865,-0.4063220636752076,-0.27578141694561903,-1.917326902860626,-1.9420457919071836
1773065403166072320,1.6216135025024414,0.16535937786102295,0.051698800176382065,0.03591177612543106,-0.9052900671958923,0.27226340770721436,0.3260713517665863,0.12436050176620483,-0.10673603415489197,-0.02710592746734619,0.41475225409720723,-0.7131185364416712,-0.3930618696984118,-0.4061340860322439,-0.27574450753898655,-1.9165151370012965,-1.9396944428414835
1773065403176110336,1.6316514015197754,0.10949691385030746,0.0714288279414177,0.20069220662117004,-0.9051735401153564,0.273822546005249,0.3250872492790222,0.14789527654647827,-0.12153986096382141,-0.04037362337112427,0.41562829436367443,-0.7129334123699029,-0.3927716552302044,-0.4058440054848595,-0.277365251348252,-1.9155935239366821,-1.9387588790061165
1773065403186147328,1.641688346862793,-0.09821575880050659,0.10039643198251724,0.29497143626213074,-0.9047213196754456,0.2761911153793335,0.3243423402309418,0.0740174651145935,-0.03833708167076111,-0.04080352187156677,0.4163455281240175,-0.7132557995921796,-0.3917107847348368,-0.40556786869067707,-0.27982879697989005,-1.9150231246061757,-1.9395563616601572
1773065403196185344,1.651726484298706,-0.12794621288776398,0.1482081562280655,0.12158846855163574,-0.9045001268386841,0.2778054475784302,0.3235795795917511,-0.07090270519256592,0.13822540640830994,0.07298111915588379,0.41654230515341517,-0.7137517712834787,-0.3903180687111231,-0.4058358862076254,-0.2815088871280065,-1.914353377443238,-1.9418096699566216
1773065403206223360,1.66176438331604,0.3175131380558014,0.08161168545484543,-0.21640436351299286,-0.9050328135490417,0.2775704860687256,0.3222895562648773,-0.21542024612426758,0.20382905006408691,0.07411852478981018,0.4169429129242278,-0.7132433701750422,-0.3904211534955436,-0.4062190705847494,-0.2812643112313817,-1.9129023215644034,-1.9408568064388503
1773065403216261376,1.6718025207519531,0.6749807000160217,0.12722179293632507,-0.31760260462760925,-0.9061425924301147,0.2766249477863312,0.31997567415237427,-0.1924293041229248,0.10759136080741882,0.1151745617389679,0.41841139804748523,-0.7113825923167633,-0.3923297554911732,-0.4061331377226607,-0.28028021593255215,-1.9102465685801666,-1.93468057218954
1773065403226299392,1.681840419769287,0.49337849020957947,0.16604280471801758,-0.19814027845859528,-0.907363772392273,0.27620571851730347,0.3168615996837616,-0.07188421487808228,-0.07170748710632324,0.11583182215690613,0.4203687364372612,-0.709261876839909,-0.3941806648760622,-0.4060286821345878,-0.2798440058494,-1.9067682723238364,-1.9277443025640872
1773065403236337152,1.691878318786621,0.14183270931243896,0.12474944442510605,-0.060134995728731155,-0.9081754088401794,0.2760312855243683,0.31468090415000916,0.06341838836669922,-0.22387680411338806,0.03857526183128357,0.4215216335290601,-0.708038573620222,-0.3949959885994164,-0.4061760931096214,-0.27966252164168093,-1.9043478735474466,-1.924142727392176
1773065403246375424,1.7019164562225342,-0.10346608608961105,0.1591857224702835,0.12026487290859222,-0.9085227251052856,0.2762644290924072,0.31347179412841797,0.16206276416778564,-0.20753881335258484,0.03549671173095703,0.4218427279639865,-0.7078128145092902,-0.394635176035155,-0.40658685829073576,-0.27990508040948775,-1.9030408230343656,-1.9241999031884074
1773065403256413184,1.7119543552398682,-0.31727665662765503,0.14492689073085785,0.2237214893102646,-0.9084711670875549,0.277316689491272,0.31269142031669617,0.13727658987045288,-0.011279642581939697,0.05943992733955383,0.4217398265173156,-0.7083577121614774,-0.39316035208120753,-0.40717310176294286,-0.28100011607221675,-1.902290506831574,-1.9270884211556962
1773065403266451456,1.7219924926757812,-0.08183203637599945,0.06589850783348083,-0.04802200570702553,-0.9085052013397217,0.2776109576225281,0.3123304545879364,-0.06697386503219604,0.17151623964309692,0.09210368990898132,0.42138652506975854,-0.7088194574720715,-0.3920971797728477,-0.40775986799553543,-0.2813064129433715,-1.901923690285583,-1.9296384365486747
1773065403276489216,1.7320303916931152,0.36129799485206604,0.09197670966386795,-0.3687611222267151,-0.9093731641769409,0.27601000666618347,0.3112219274044037,-0.25262951850891113,0.17101150751113892,0.1482049524784088,0.42159425253894944,-0.7079097451821826,-0.3930327672604864,-0.4082246657391988,-0.27964038389795143,-1.9005394397184896,-1.927437940695866
1773065403286527488,1.7420685291290283,0.49913322925567627,0.06057977303862572,-0.3454122543334961,-0.9107330441474915,0.2740013301372528,0.3090128004550934,-0.2332490086555481,0.04754716157913208,0.04933992028236389,0.4226704805480664,-0.7059673113490854,-0.3951158712398876,-0.4084646701037805,-0.2775511456412073,-1.89790829053132,-1.921561894952928
1773065403296565248,1.7521064281463623,0.09322699904441833,-0.08053527027368546,-0.2060392051935196,-0.9113826155662537,0.2725633978843689,0.30836808681488037,-0.05716896057128906,-0.05105161666870117,-0.08677998185157776,0.4232071808878403,-0.7048133087893719,-0.396764720439504,-0.40830332241104245,-0.27605630496464795,-1.897056826406876,-1.9175142556810303
1773065403306603264,1.7621443271636963,0.15774975717067719,0.25138795375823975,-0.24093660712242126,-0.9123919010162354,0.2706913352012634,0.3070298731327057,0.03426384925842285,-0.06132549047470093,0.1907881498336792,0.42328437497285454,-0.703906317539345,-0.39753092799413325,-0.4090420858072471,-0.27411110142190903,-1.8954040320406749,-1.9158278301072043
1773065403316640256,1.772181510925293,-0.060991112142801285,0.2787388563156128,-0.09114950895309448,-0.9135004878044128,0.2694568336009979,0.30481112003326416,0.05185198783874512,-0.0103626549243927,0.10235437750816345,0.42359589690871885,-0.7030375892155974,-0.39767285916508727,-0.4100742909304415,-0.27282897017616786,-1.8928532089890144,-1.9148673444410835
1773065403326678272,1.782219409942627,0.18449321389198303,0.187673419713974,-0.23918236792087555,-0.914679765701294,0.268129825592041,0.3024354875087738,-0.05753391981124878,0.0422949492931366,-0.07306542992591858,0.4239348750860758,-0.7020988850904092,-0.39783777245727686,-0.4111708285736995,-0.27145125559820926,-1.8901265975348054,-1.9138069412009997
1773065403336716288,1.792257308959961,0.18943125009536743,0.1175001859664917,-0.26007887721061707,-0.9158634543418884,0.26635801792144775,0.3004123568534851,-0.07916218042373657,0.02841123938560486,-0.21964755654335022,0.4244664015481059,-0.7007845893618028,-0.3988823576817466,-0.411852031478962,-0.2696125536363708,-1.8877482424707537,-1.9107992766307151
1773065403346754304,1.802295446395874,0.1397596001625061,0.15452517569065094,-0.21562258899211884,-0.9169883131980896,0.26464924216270447,0.2984853684902191,0.05193692445755005,0.06242293119430542,-0.07791957259178162,0.42485512502852335,-0.699636824857453,-0.3996886260776427,-0.4126203638140078,-0.2678401844249109,-1.885485982508219,-1.9084851105296816
1773065403356792320,1.812333345413208,0.1575564444065094,0.2911415994167328,-0.18742823600769043,-0.9180922508239746,0.26324304938316345,0.29632705450057983,0.09289693832397461,0.031053215265274048,-0.03103780746459961,0.42532519608279556,-0.6985383357806262,-0.40025956796466194,-0.413442800790429,-0.266382269693931,-1.8830044434059265,-1.906463925509102
1773065403366830336,1.822371482849121,0.14483852684497833,0.39889442920684814,-0.11748190224170685,-0.919549822807312,0.26226288080215454,0.29265373945236206,0.11606788635253906,0.04393520951271057,0.17220529913902283,0.42624904677412506,-0.6971640241004176,-0.4003613193636489,-0.41471055280529495,-0.2653664132977771,-1.8789179284296404,-1.9044623230201612
1773065403376868352,1.832409381866455,0.3098381459712982,0.41297057271003723,-0.12112005054950714,-0.9210711717605591,0.26187971234321594,0.28817811608314514,-0.03827923536300659,0.03954234719276428,0.08186274766921997,0.4276388349376243,-0.6955860796042402,-0.4003112098341089,-0.4159757786043377,-0.26496936971881907,-1.874020796417622,-1.901911121397003
1773065403386906368,1.8424475193023682,0.08265051990747452,0.4299335777759552,-0.2501603066921234,-0.9226264357566833,0.2609274983406067,0.28403714299201965,-0.2349204421043396,0.019651085138320923,-0.020060092210769653,0.42881303223942907,-0.6939726057116102,-0.4005253944490306,-0.4172538058037246,-0.2639828659382852,-1.8694458291395444,-1.899241675404898
1773065403396944384,1.8524854183197021,-0.025369690731167793,0.5250837802886963,-0.4494883418083191,-0.9249781370162964,0.2575840651988983,0.27940234541893005,-0.21373939514160156,0.031386882066726685,0.16682562232017517,0.42910020691711054,-0.6921600199042366,-0.4007688573796487,-0.41972817403662743,-0.26052104960075534,-1.8641453732469753,-1.8979600225601412
1773065403406982144,1.8625233173370361,0.060047514736652374,0.4174059331417084,-0.36499541997909546,-0.927422285079956,0.2536570727825165,0.27485576272010803,0.01239866018295288,0.003728151321411133,0.03241044282913208,0.4292328662736864,-0.6902375628157335,-0.40124802988907987,-0.42229271048925165,-0.2564591016719737,-1.858915178578899,-1.8965083163104608
1773065403417020416,1.8725614547729492,-0.06320863962173462,0.36755263805389404,-0.10732394456863403,-0.9291060566902161,0.251542329788208,0.2710878551006317,0.213789165019989,0.0003345310688018799,-0.11582967638969421,0.42963388976924793,-0.6888565448032333,-0.40127371247728055,-0.424111897377048,-0.2542734873916283,-1.8546882254089117,-1.8955200649160602
1773065403427058176,1.8825993537902832,-0.10193197429180145,0.56743323802948,-0.111174076795578,-0.9306180477142334,0.25038230419158936,0.2669433355331421,0.17399579286575317,0.06573402881622314,0.17290648818016052,0.4299781028174367,-0.6879264984847399,-0.400285894181542,-0.4262008370897925,-0.2530751079014627,-1.8501412469850023,-1.896496369452645
1773065403437095424,1.8926365375518799,0.1374816745519638,0.5166915059089661,-0.28728732466697693,-0.932641327381134,0.24858583509922028,0.26150572299957275,-0.1324983835220337,0.04729735851287842,0.17880186438560486,0.43081492265306626,-0.6862174138707919,-0.39982310741921084,-0.4285389733698722,-0.2512199878135971,-1.8441690347785498,-1.8955722783656979
1773065403447133184,1.9026744365692139,0.10498978197574615,0.5698623061180115,-0.49241143465042114,-0.935141384601593,0.2452472448348999,0.25566479563713074,-0.3200313448905945,-0.013054266571998596,0.047817230224609375,0.4316573626359641,-0.6838234740339928,-0.4002722243771013,-0.43109115499898937,-0.24777471642531285,-1.8376715707521938,-1.8929142804438408
1773065403457171200,1.9127123355865479,-0.1301383227109909,0.7112226486206055,-0.6102294325828552,-0.9380711913108826,0.2398958057165146,0.24994473159313202,-0.15128421783447266,-0.0052003562450408936,0.05036352574825287,0.43149767973043446,-0.6814928548844151,-0.4006742505213043,-0.43455421974852465,-0.2422585139211137,-1.831192104194198,-1.8920542759688055
1773065403467209216,1.922750473022461,-0.07481611520051956,0.6054389476776123,-0.46948376297950745,-0.94089674949646,0.23440995812416077,0.24446946382522583,0.16149306297302246,0.01508648693561554,-0.024056315422058105,0.4311593177161237,-0.6792649577597,-0.40104095900093367,-0.43802616788960796,-0.23661157533900096,-1.8250014254318716,-1.8915913619550404
1773065403477247232,1.932788372039795,0.06655991822481155,0.5631340742111206,-0.2290935218334198,-0.9432262778282166,0.23108965158462524,0.23858283460140228,0.29767268896102905,0.02710433304309845,-0.018749475479125977,0.43168725293509824,-0.6771401753441697,-0.4009645863070124,-0.4408567834744176,-0.23319749750483526,-1.818543295136824,-1.890466117594736
1773065403487287296,1.9428284168243408,-0.14745786786079407,0.6064537763595581,-0.10786683112382889,-0.9449684619903564,0.2295815795660019,0.23308165371418,0.2116614580154419,0.012926369905471802,-0.032474368810653687,0.43242251912317436,-0.675603647823544,-0.4001256508002758,-0.4432493710814038,-0.23164775449690073,-1.812624737487901,-1.8904242824365596
1773065403497325056,1.9528663158416748,-0.3498479723930359,0.6244325041770935,-0.16771312057971954,-0.9466791749000549,0.22773346304893494,0.22789481282234192,0.006615698337554932,0.016742855310440063,0.04108715057373047,0.4324839978745305,-0.6745323550715251,-0.3986897352226272,-0.44610557823111824,-0.22974935267741747,-1.8070321673390468,-1.8926440529797948
1773065403507363328,1.962904453277588,-0.27679672837257385,0.7100151777267456,-0.39499300718307495,-0.9487815499305725,0.22435934841632843,0.2224321961402893,-0.14048218727111816,0.06783117353916168,0.18296320736408234,0.43200842131969275,-0.6732667046529515,-0.39740161598694196,-0.4496137001478599,-0.22628557708794667,-1.8010773801871545,-1.8954851877850847
1773065403517401344,1.9729423522949219,-0.013438595458865166,0.7251264452934265,-0.569311261177063,-0.9514662027359009,0.21933525800704956,0.21588045358657837,-0.12504148483276367,0.08428417146205902,0.21814051270484924,0.4318687761536147,-0.6709375607204879,-0.39721910558190393,-0.4533753659047851,-0.2211330791140942,-1.7939112619270505,-1.8956658406006204
1773065403527439360,1.982980489730835,-0.010371034033596516,0.7837433218955994,-0.6001851558685303,-0.9543601274490356,0.21367129683494568,0.20866622030735016,-0.036683082580566406,0.024045363068580627,0.12850728631019592,0.43201781331764977,-0.6680350490562673,-0.3975704767205293,-0.45719539143653654,-0.21533151896094502,-1.786053966275621,-1.894351717891648
1773065403537477376,1.993018388748169,-0.17836377024650574,0.8387445211410522,-0.5235888957977295,-0.9572252631187439,0.20804278552532196,0.20109201967716217,0.0721544623374939,-0.04582656919956207,0.04602408409118652,0.4320222436366545,-0.6652339284134259,-0.39750450772163803,-0.46131417085149856,-0.20957353384059416,-1.777863284631126,-1.8940401236200755
1773065403547514112,2.0030553340911865,-0.23313423991203308,0.8450572490692139,-0.38042059540748596,-0.9598354697227478,0.20322604477405548,0.1934298574924469,0.2259029746055603,-0.038125962018966675,0.03182041645050049,0.4319117568075144,-0.6628408372093707,-0.39668243360835165,-0.4655505592234849,-0.2046516006687589,-1.7696568171191345,-1.8953062024812422
1773065403557552384,2.0130934715270996,-0.07758167386054993,0.786914587020874,-0.25788456201553345,-0.962031900882721,0.19985876977443695,0.18587970733642578,0.2583574652671814,-0.0043479204177856445,-0.010815605521202087,0.43225315533291003,-0.6606460750214829,-0.3955838893442242,-0.4692733136918392,-0.2012137865455354,-1.7616601223859143,-1.896307590288209
1773065403567590144,2.0231313705444336,-0.08220496028661728,0.750561535358429,-0.1926921010017395,-0.9638659358024597,0.1976151466369629,0.17863549292087555,0.18763607740402222,0.02806234359741211,-0.0033730417490005493,0.43304909992018753,-0.6585335434639913,-0.3945267009712483,-0.4723882717641745,-0.19892448894400258,-1.7540493825384456,-1.8964663126539407
1773065403577628416,2.0331695079803467,-0.18468153476715088,0.7814192771911621,-0.2600964307785034,-0.9656440615653992,0.19523538649082184,0.17150698602199554,0.10401076078414917,0.07287682592868805,0.10301387310028076,0.43355814216202254,-0.6565968261226722,-0.3932354245886354,-0.4756824927919671,-0.1964974491049951,-1.746572244906878,-1.8975423675444083
1773065403587666176,2.0432074069976807,-0.040644608438014984,0.785182535648346,-0.30480122566223145,-0.967542827129364,0.1922048032283783,0.16406792402267456,0.016264140605926514,0.0557047575712204,0.11792969703674316,0.43406187597996854,-0.6543572886353805,-0.39223781396789553,-0.4791204239961872,-0.19340835346650614,-1.738770227497754,-1.8980815963235418
1773065403597704192,2.0532453060150146,-0.21367603540420532,0.85077965259552,-0.3097512423992157,-0.9694235920906067,0.18910866975784302,0.15638424456119537,-0.01847630739212036,0.03557698428630829,0.14692999422550201,0.4345425785263412,-0.6520714723931799,-0.3911456469749534,-0.4826807777334926,-0.19025435628798032,-1.7307351859604951,-1.898816076707445
1773065403607742208,2.0632834434509277,-0.25451499223709106,0.8611025810241699,-0.4366239607334137,-0.9714521765708923,0.1850997358560562,0.14838853478431702,-0.05053597688674927,-0.004084721207618713,0.14384785294532776,0.43454951129421976,-0.6497518005005783,-0.38989340469229516,-0.4867983383073659,-0.18617334675271982,-1.722373884804516,-1.9006419730757664
1773065403617780224,2.0733213424682617,-0.25396105647087097,0.8269323706626892,-0.3920817971229553,-0.9734529852867126,0.18053245544433594,0.1407039314508438,0.0677216649055481,-0.02834130823612213,0.09814192354679108,0.43430271724198816,-0.6474133453195328,-0.388854637335353,-0.4909473378994074,-0.1815277712788516,-1.7143432433286558,-1.9025463702687897
1773065403627818240,2.083359479904175,-0.33350232243537903,0.869766116142273,-0.26629987359046936,-0.9751970171928406,0.1769828498363495,0.13292118906974792,0.17906957864761353,0.009159103035926819,0.13418389856815338,0.43420792325653046,-0.6453255028941786,-0.3873184600594866,-0.4949777602703522,-0.17792005322554524,-1.7062634107871624,-1.9050613319723395
1773065403637856256,2.093397378921509,-0.166981503367424,0.7797174453735352,-0.2940332293510437,-0.9767550826072693,0.1739397794008255,0.12527886033058167,0.13089925050735474,0.011347696185112,0.08581127226352692,0.43425745715170333,-0.6433136629329044,-0.3857291277576986,-0.4987797141522457,-0.17482903641033473,-1.6983601183061894,-1.9074201598945375
1773065403647894272,2.103435516357422,-0.07246170192956924,0.7170741558074951,-0.2303268313407898,-0.9781473278999329,0.1711118072271347,0.11810501664876938,0.10273522138595581,-0.0046079158782958984,0.01058758795261383,0.4346996241250974,-0.6411108160687026,-0.38474592750302344,-0.5019799047790391,-0.17195801514938752,-1.6909582187917893,-1.908047021436822
1773065403657932288,2.113473415374756,-0.2240815907716751,0.7887067794799805,-0.15164826810359955,-0.9793003797531128,0.16920305788516998,0.11109103262424469,0.09245955944061279,0.0770127922296524,0.107491135597229,0.4351894334736592,-0.6392336096142339,-0.38330915644904695,-0.505039294357361,-0.17002100685220306,-1.6837526373197884,-1.909386759369719
1773065403667969280,2.1235103607177734,-0.00859230849891901,0.7249583005905151,-0.3633041977882385,-0.9805468916893005,0.16662640869617462,0.10374750196933746,-0.03693968057632446,0.10299636423587799,0.18215644359588623,0.4355879366272811,-0.6371108673320275,-0.3820516920877729,-0.5083202245542567,-0.16740725406374865,-1.6762098868877089,-1.9105536624344641
1773065403678007296,2.1335484981536865,0.12770535051822662,0.621555745601654,-0.46595892310142517,-0.9819304943084717,0.16242459416389465,0.0971125066280365,-0.06604313850402832,-0.008188769221305847,0.016718029975891113,0.4360300861625965,-0.6343881107843781,-0.38224073267127234,-0.5111961813721932,-0.16314738771221077,-1.669375329895893,-1.9091637789534626
1773065403688045312,2.1435863971710205,-0.05852600187063217,0.712004542350769,-0.2969604432582855,-0.9831866025924683,0.15859320759773254,0.09051153063774109,0.10200679302215576,-0.037560462951660156,0.07068228721618652,0.4363971080046412,-0.6318592481933686,-0.3821120974502831,-0.5141029231840488,-0.1592656613665416,-1.662596935634467,-1.908465328391411
1773065403698083328,2.1536245346069336,-0.05991324409842491,0.7095107436180115,-0.1360623836517334,-0.9841384291648865,0.15646734833717346,0.08360431343317032,0.19130700826644897,-0.031284257769584656,0.04458475112915039,0.43699439655465017,-0.6297741403815841,-0.38103370974979306,-0.5169466376192492,-0.15711292838542676,-1.6555446264161342,-1.9089915665843602
1773065403708121344,2.1636624336242676,-0.10627754032611847,0.6640010476112366,-0.1265607625246048,-0.9848796725273132,0.15523000061511993,0.07691489905118942,0.15770059823989868,0.0026527047157287598,-0.027232281863689423,0.43775411061199926,-0.6279263056466508,-0.3796919876018989,-0.519532491731588,-0.15586026530054792,-1.648733871105291,-1.9096864887006542
1773065403718159104,2.1737003326416016,0.08167584985494614,0.4663074314594269,-0.2695961892604828,-0.9856071472167969,0.1532808542251587,0.07129823416471481,0.05500417947769165,0.019204482436180115,-0.10082400590181351,0.4382584992945089,-0.626111980210931,-0.37898931924090795,-0.5218048688234279,-0.15388750859759745,-1.6430099403595715,-1.9097734748297917
1773065403728197376,2.1837384700775146,0.12008155882358551,0.42569687962532043,-0.2770160436630249,-0.9863382577896118,0.15052007138729095,0.06693796813488007,0.09025061130523682,0.0005724579095840454,-0.07302618026733398,0.43868739641214555,-0.624191710648281,-0.37928049430924,-0.5235307511909866,-0.1510943138015846,-1.6385575515469735,-1.908342266407084
1773065403738235136,2.1937763690948486,0.07415055483579636,0.4597134590148926,-0.17274422943592072,-0.9869601130485535,0.1484067440032959,0.06233229115605354,0.15537136793136597,0.040573328733444214,0.15072619915008545,0.4392178297464692,-0.6224119699019675,-0.3791694671334764,-0.5252824336238716,-0.1489569850448091,-1.6338683922093877,-1.9074114685946228
1773065403748273408,2.2038145065307617,0.22523607313632965,0.36765769124031067,-0.25210896134376526,-0.9875084757804871,0.14649492502212524,0.05801732465624809,0.01927739381790161,-0.030604422092437744,0.10232196748256683,0.43995635995997745,-0.6205930592553939,-0.37930583530078116,-0.5267158638237841,-0.14702403337058076,-1.6294800868252506,-1.9056984241802877
1773065403758311168,2.2138524055480957,0.017599524930119514,0.371481716632843,-0.3388665020465851,-0.988152265548706,0.1435656100511551,0.05425930395722389,-0.08376246690750122,-0.1363939642906189,0.031067855656147003,0.44030914993948383,-0.6187298995651486,-0.3798722976662896,-0.5282028527870627,-0.14406341450660637,-1.6256510985229857,-1.9039635340728949
1773065403768349184,2.2238903045654297,-0.23382078111171722,0.4842587411403656,-0.3067995011806488,-0.9888460040092468,0.14023099839687347,0.050187159329652786,0.0421755313873291,-0.11122402548789978,-3.147497773170471e-05,0.4398202228892369,-0.6172702987669019,-0.37956680355164935,-0.5305323226329504,-0.14069472124869142,-1.621506077623151,-1.9052122789525334
1773065403778386432,2.2339274883270264,-0.07152160257101059,0.5253398418426514,-0.20090316236019135,-0.9894434809684753,0.13762201368808746,0.04540470615029335,0.2281673550605774,-0.0028868913650512695,-0.07332825660705566,0.43957642867889146,-0.6158121215291373,-0.3787846141333452,-0.5329822830677722,-0.13806017683259578,-1.6166532917009844,-1.9068105231355408
1773065403788424192,2.2439653873443604,0.11484099179506302,0.4990520477294922,-0.13015761971473694,-0.9898776412010193,0.13608844578266144,0.04027743265032768,0.2334231734275818,0.09193886816501617,-0.15354347229003906,0.44024148632909205,-0.614066206070588,-0.3782345975601806,-0.53483524288373,-0.13651205392248725,-1.6114631988152035,-1.9063751941797962
1773065403798462464,2.2540035247802734,0.30922457575798035,0.42916885018348694,-0.23040512204170227,-0.9902956485748291,0.13441771268844604,0.03530239686369896,0.10844451189041138,0.07305605709552765,-0.16930508613586426,0.44130176521757647,-0.6120046836865258,-0.37828754420408006,-0.5362848868232223,-0.13482581498612894,-1.6064295796098,-1.9042120327526184
1773065403808500224,2.2640414237976074,0.2249457836151123,0.40328943729400635,-0.2691454589366913,-0.9907776117324829,0.13192640244960785,0.030902447178959846,0.02482008934020996,-0.03631480038166046,-0.13862943649291992,0.4422739237160217,-0.6097673609977204,-0.37899206990614054,-0.5375336848995262,-0.1323121146318794,-1.6019763128702025,-1.9011233941852532
1773065403818538240,2.2740793228149414,-0.025699744001030922,0.48133736848831177,-0.22068339586257935,-0.9912278056144714,0.12951239943504333,0.026344427838921547,0.051805198192596436,-0.09118233621120453,0.007240176200866699,0.44274224879945234,-0.6078898952547491,-0.37900143718467255,-0.5392653428722473,-0.12987722088403628,-1.5973676435876916,-1.900114782013678
1773065403828576256,2.2841174602508545,-0.050038643181324005,0.4517294466495514,-0.18569424748420715,-0.991603434085846,0.1274821013212204,0.021699728444218636,0.09821665287017822,-0.1204783171415329,0.04240238666534424,0.4429384450312087,-0.6063331157326949,-0.37843099339992287,-0.5412537624835431,-0.12782994665366187,-1.592676308644019,-1.9005745144585495
1773065403838614272,2.2941553592681885,-0.11734151095151901,0.3199615478515625,-0.0763041153550148,-0.9918524026870728,0.1261235922574997,0.017931301146745682,0.15393131971359253,-0.09317983686923981,-0.043230414390563965,0.44310323331160417,-0.605171461110808,-0.3778004139959062,-0.542857103550653,-0.12646037977433497,-1.5888729546822575,-1.9012196841099456
1773065403848652288,2.3041934967041016,-0.13146767020225525,0.2575744390487671,0.07041756063699722,-0.991901159286499,0.12608537077903748,0.01531962025910616,0.22041678428649902,-0.0012684762477874756,-0.0846250057220459,0.443171044538269,-0.6047392640374584,-0.3767628334265349,-0.5440033556625424,-0.12642185821494964,-1.5862398037399528,-1.902759148218654
1773065403858690304,2.3142313957214355,-0.07728300243616104,0.2821088135242462,0.2532494068145752,-0.9917317628860474,0.1276850402355194,0.01283232867717743,0.23759663105010986,0.0863499641418457,0.024704337120056152,0.44385473427229044,-0.6045168347697726,-0.3754671235358939,-0.5445886623604405,-0.128034562929511,-1.5837349189859882,-1.9036157374585747
1773065403868728320,2.3242695331573486,0.27080467343330383,0.1630016267299652,0.11180201917886734,-0.9914776086807251,0.12987780570983887,0.010194413363933563,0.008887887001037598,0.10248303413391113,0.06880033016204834,0.445099200927171,-0.6041080682741903,-0.374366997279198,-0.5447839105233181,-0.13024573829042904,-1.5810780056093094,-1.9031145987236213
1773065403878766336,2.3343074321746826,0.3746296167373657,-0.06848113983869553,-0.4140535295009613,-0.9916760325431824,0.12840668857097626,0.00950289610773325,-0.31546807289123535,-0.12753698229789734,-0.06960725784301758,0.4458938726610253,-0.6029044018476812,-0.37584269345129756,-0.5444512671248858,-0.12876220754084958,-1.5803786951696113,-1.8991780993172132
1773065403888804096,2.3443453311920166,-0.05529274791479111,0.0672716349363327,-0.49642083048820496,-0.9923089146614075,0.12343740463256836,0.009299327619373798,-0.23581010103225708,-0.25609734654426575,0.06362247467041016,0.4449692582452449,-0.6016271367187752,-0.3777491918730443,-0.5453006450168661,-0.1237530395890485,-1.580167456187877,-1.8976569012540991
1773065403898841344,2.3543825149536133,-0.1836611032485962,0.09947564452886581,-0.12798768281936646,-0.9927073121070862,0.12023920565843582,0.008630430325865746,0.12312430143356323,-0.1943359076976776,0.04611814022064209,0.4438534165603315,-0.6010859471056501,-0.37816781894995605,-0.5465151649281196,-0.12053083367118302,-1.5794899392262827,-1.8989593914636484
1773065403908879360,2.3644204139709473,-0.15178696811199188,-0.0013614911586046219,0.12126635015010834,-0.9926934838294983,0.12038392573595047,0.008197792805731297,0.24339550733566284,-0.022498801350593567,-0.050357818603515625,0.44347427515164306,-0.6013407634076992,-0.37747606880493684,-0.547020632452555,-0.12067660845817406,-1.579054269940723,-1.9007944296773363
1773065403918917120,2.3744583129882812,0.0008627567440271378,-0.289577841758728,0.08717815577983856,-0.9925373792648315,0.12155624479055405,0.009681986644864082,0.12710458040237427,0.09788039326667786,-0.16466546058654785,0.4433021055905793,-0.6021193447316937,-0.3772178254358373,-0.5464817301942031,-0.12185760590181319,-1.5805508001370194,-1.9015843317660723
1773065403928955392,2.3844964504241943,0.22124049067497253,-0.4585897624492645,0.026081781834363937,-0.992435872554779,0.12202149629592896,0.013488177210092545,0.08722347021102905,0.06013792008161545,-0.21919190883636475,0.44297265439376987,-0.603069619203693,-0.3782209977907646,-0.5450057095176875,-0.1223263417932499,-1.5843864712978508,-1.9006118099597427
1773065403938993152,2.3945343494415283,0.21943673491477966,-0.36488083004951477,0.16777101159095764,-0.9922530055046082,0.1229889765381813,0.01754341833293438,0.11533039808273315,-0.057849206030368805,-0.07665598392486572,0.4432035292649523,-0.6038503601546039,-0.3796530673944319,-0.5429539261219333,-0.12330116536366076,-1.588474872800616,-1.897906504607633
1773065403949031424,2.4045724868774414,0.19171397387981415,-0.29878902435302734,0.04212106764316559,-0.9920233488082886,0.12440528720617294,0.02032534033060074,-0.1101800799369812,-0.12493938207626343,0.010146498680114746,0.4434860958319393,-0.6045815674864469,-0.38032065190884995,-0.5414401610138962,-0.12472844034991203,-1.591282232834836,-1.8963540727126924
1773065403959069184,2.4146103858947754,0.2925281822681427,-0.33913034200668335,-0.333943635225296,-0.9921480417251587,0.1228470578789711,0.023467544466257095,-0.32865267992019653,-0.2204270213842392,-0.1700892448425293,0.4432191484242143,-0.60460148079087,-0.3823490831756857,-0.5402064090057416,-0.12315816291298863,-1.5944451851284926,-1.8935022305815248
1773065403969107456,2.4246485233306885,0.07604934275150299,-0.0377153679728508,-0.17676201462745667,-0.9924620985984802,0.11994489282369614,0.02514898031949997,-0.09271252155303955,-0.13457810878753662,-0.09611761569976807,0.4425704351198222,-0.604168176481051,-0.3841292810452825,-0.5399602052094776,-0.12023437614663163,-1.5961308962587515,-1.8917056605322609
1773065403979145216,2.4346864223480225,0.13708312809467316,0.013761934824287891,0.16210606694221497,-0.9924430251121521,0.12012729793787003,0.0250303465873003,0.07427579164505005,0.023122191429138184,-0.08374619483947754,0.44291683256773556,-0.6039763349120887,-0.38435369096420025,-0.5397310936309098,-0.12041810440763923,-1.596011920240595,-1.8906959913748382
1773065403989183232,2.4447243213653564,0.03334861621260643,-0.03752162680029869,0.0313873328268528,-0.9923017024993896,0.12130890041589737,0.024928120896220207,-0.08620470762252808,0.05309903621673584,-0.16248607635498047,0.44355068014527993,-0.6039686745022572,-0.3842992329966534,-0.5392575541204897,-0.12160841882496254,-1.595912557295433,-1.8896400557804687
1773065403999221248,2.4547624588012695,-0.15555818378925323,-0.11200278252363205,-0.10381070524454117,-0.992344856262207,0.12077559530735016,0.025784803554415703,-0.1065015196800232,-0.011263251304626465,-0.24017083644866943,0.44300080713860923,-0.6042685498809607,-0.3843851207417764,-0.5393123884013089,-0.12107116028117619,-1.5967741931081372,-1.890512771121156
1773065404009259264,2.4648003578186035,0.04965959116816521,-0.14293140172958374,-0.006082279607653618,-0.992387592792511,0.12009521573781967,0.02727542072534561,0.15905940532684326,-0.09389586746692657,-0.2853168249130249,0.44236273703423085,-0.6046589543951625,-0.3847405091371383,-0.5391451550286182,-0.12038579319664694,-1.5982740537847893,-1.89110413402099
1773065404019296256,2.474837303161621,-0.022549891844391823,0.005716391839087009,0.21478751301765442,-0.9922362565994263,0.12118957936763763,0.027936730533838272,0.27659904956817627,-0.09405948966741562,-0.13340544700622559,0.4426043139857132,-0.6049988369533159,-0.38463589643876067,-0.5386400664480755,-0.12148820882685325,-1.598944212755475,-1.8908657267671374
1773065404029334272,2.484875440597534,0.18479344248771667,-0.06851336359977722,0.08377650380134583,-0.9920133352279663,0.12298762053251266,0.027993937954306602,0.0019010305404663086,-0.06436333805322647,-0.011972188949584961,0.44325004608838764,-0.6052420593086808,-0.3842902792359359,-0.5380822034440906,-0.1232998014235825,-1.5990081562628244,-1.890289344442033
1773065404039372288,2.494913339614868,-0.0023218514397740364,-0.10984881967306137,-0.14860427379608154,-0.9920443296432495,0.12251853197813034,0.02893969975411892,-0.27422165870666504,-0.12431907653808594,-0.08901357650756836,0.44332230494373714,-0.6051337208229064,-0.3850753558739718,-0.5375831199226602,-0.12282713521673948,-1.5999598364691332,-1.888852456715032
1773065404049410304,2.5049514770507812,-0.24835677444934845,-0.015872923657298088,-0.05899675935506821,-0.9921746253967285,0.12127635627985,0.029693536460399628,-0.14182806015014648,-0.0640559270977974,-0.02053821086883545,0.4424015309236594,-0.6054104307189313,-0.3851298198841948,-0.5379908620328696,-0.12157562805871401,-1.60071512844115,-1.8904431610967551
1773065404059448320,2.5149893760681152,-0.18991558253765106,-0.037872761487960815,0.19339127838611603,-0.9920884370803833,0.12185845524072647,0.030180582776665688,0.13378167152404785,0.011747509241104126,-0.12951529026031494,0.441885190049065,-0.6060699002704552,-0.3844080743773635,-0.5381887122353082,-0.12216207554147572,-1.6012082108430858,-1.8926154808856244
1773065404069486336,2.5250275135040283,-0.19355115294456482,-0.09866314381361008,0.33934688568115234,-0.9917237758636475,0.12457378208637238,0.031068893149495125,0.17783528566360474,0.07350053638219833,-0.17494404315948486,0.4419093175488395,-0.607221609499675,-0.3831662342629456,-0.5377561382282346,-0.12489825867663443,-1.6021142556803583,-1.894709636681947
1773065404079524352,2.5350654125213623,-0.12142263352870941,-0.16715751588344574,0.31569430232048035,-0.9912594556808472,0.12783335149288177,0.03260969743132591,0.09088408946990967,0.04750536382198334,-0.1657578945159912,0.4420729316230962,-0.6085687704843227,-0.38203258965007425,-0.536904726979622,-0.12818410181998988,-1.6036817034859836,-1.8963881614268587
1773065404089562112,2.5451033115386963,-0.11926041543483734,-0.2279159426689148,0.1809050589799881,-0.9908689856529236,0.13030532002449036,0.034629929810762405,-0.027304232120513916,-0.026698127388954163,-0.0992356538772583,0.44206070946153614,-0.6097994758255119,-0.38139161539745897,-0.5359733171964649,-0.13067691835537998,-1.6057311579533504,-1.8975628180137343
1773065404099600384,2.5551414489746094,-0.3126101791858673,-0.3426726162433624,-0.05789447948336601,-0.9906752705574036,0.13090373575687408,0.03777233138680458,-0.16682595014572144,-0.08051919937133789,-0.0773841142654419,0.44104533507067467,-0.6111715826092576,-0.38125511350981933,-0.5353436594390448,-0.13128050462419247,-1.6089057300099818,-1.8997222270066563
1773065404109638144,2.5651793479919434,-0.32570940256118774,-0.33194392919540405,-0.14174184203147888,-0.9907086491584778,0.12952682375907898,0.04146600514650345,-0.08297616243362427,-0.11176560819149017,-0.07692742347717285,0.4390679242264517,-0.6125417616429587,-0.3814781694208724,-0.5352443302470666,-0.12989176986402867,-1.6126268063495013,-1.9030085962660905
1773065404119676416,2.5752174854278564,-0.2061486542224884,-0.3727981448173523,0.06868357211351395,-0.9906157851219177,0.1289985179901123,0.04516167193651199,0.13023382425308228,-0.0699164867401123,-0.06913328170776367,0.43748453797185494,-0.6139578267639841,-0.3816236667233747,-0.5348143173224789,-0.12935898579059626,-1.6163542756753662,-1.9057097732404114
1773065404129714176,2.5852553844451904,-0.14901208877563477,-0.38613274693489075,0.09218662977218628,-0.9903024435043335,0.12989524006843567,0.049278657883405685,0.0805124044418335,-0.00019553303718566895,-0.0980151891708374,0.43649032711362357,-0.6155573481283231,-0.3817439984818642,-0.533701138118836,-0.13026332742647784,-1.6205165359877447,-1.9074111863617562
1773065404139751168,2.595292329788208,-0.20043933391571045,-0.3409298360347748,0.08360140025615692,-0.9900148510932922,0.13057230412960052,0.053115617483854294,-0.04105192422866821,0.04555988311767578,-0.1120908334851265,0.43546675837371673,-0.6170547368443119,-0.3818393116211252,-0.5327389402547392,-0.1309462113280134,-1.624396271817448,-1.909194811163906
1773065404149789440,2.605330467224121,-0.27263307571411133,-0.26823073625564575,0.16938115656375885,-0.9896742105484009,0.131722092628479,0.056515250355005264,-0.07117772102355957,0.06423124670982361,-0.15603303909301758,0.4345291221496411,-0.6186145562594858,-0.3815411587149635,-0.5319085158337036,-0.13210601441805672,-1.6278392798837162,-1.9114812702713468
1773065404159827200,2.615368366241455,-0.43090471625328064,-0.18648765981197357,0.12824782729148865,-0.9893313050270081,0.13313649594783783,0.05914662778377533,-0.08673381805419922,0.08260750770568848,-0.16084647178649902,0.4333772395194586,-0.6203286187065744,-0.3804809050422303,-0.5316115826198077,-0.13353298195635321,-1.6305097041296253,-1.9154221446231143
1773065404169865472,2.625406503677368,-0.09623564779758453,-0.3093709945678711,-0.09173433482646942,-0.9891562461853027,0.13314606249332428,0.061982739716768265,-0.14003980159759521,0.016206949949264526,-0.26567232608795166,0.4321212859944876,-0.6216027617985903,-0.3802648776525843,-0.5313000579715488,-0.13354263788424375,-1.6333767380076656,-1.9181067264560614
1773065404179903232,2.635444402694702,-0.14137303829193115,-0.26066258549690247,-0.07181335985660553,-0.9890968203544617,0.13210605084896088,0.06508208066225052,-0.03238755464553833,-0.042338594794273376,-0.20009183883666992,0.430988392643678,-0.6224191760611104,-0.3809664141591358,-0.5307617884648932,-0.13249335189912284,-1.6365011131488996,-1.9190086199401322
1773065404189941504,2.6454825401306152,-0.08253523707389832,-0.20702023804187775,0.09483727812767029,-0.9889281392097473,0.1321670264005661,0.06747915595769882,0.07195097208023071,-0.006846606731414795,-0.018742546439170837,0.43018125975317273,-0.6233336655811952,-0.3810442500138595,-0.530287364169461,-0.13255486248816495,-1.6389253659893277,-1.9203767475667906
1773065404199979264,2.655520439147949,-0.05966401472687721,-0.23944635689258575,0.09205906838178635,-0.9886357188224792,0.13317905366420746,0.06973376870155334,-0.06106215715408325,0.02728237211704254,0.006148219108581543,0.4298709474684338,-0.6242384891243211,-0.381042247929428,-0.529475305550302,-0.13357592806231888,-1.641215054053709,-1.9210028877434917
1773065404210017280,2.665558338165283,-0.0597076453268528,-0.4179491102695465,-0.13573002815246582,-0.988427460193634,0.1330254077911377,0.0729074478149414,-0.29709500074386597,0.0692451149225235,-0.025452613830566406,0.42905299334724495,-0.6251768552784778,-0.3815856691014135,-0.5286396107461544,-0.13342089145995756,-1.6444240416092384,-1.9216143811674828
1773065404220055296,2.6755964756011963,-0.19993293285369873,-0.5407230257987976,-0.2724665701389313,-0.9883543252944946,0.13071459531784058,0.07790764421224594,-0.25108665227890015,0.005073338747024536,-0.13969051837921143,0.4271613684347305,-0.6262883460364869,-0.38303620011844947,-0.5278062229867623,-0.1310897235190256,-1.6494592972389015,-1.9225978334150955
1773065404230093312,2.6856343746185303,-0.35145509243011475,-0.4658346176147461,-0.08473501354455948,-0.988193690776825,0.12854516506195068,0.08336292952299118,0.09222811460494995,-0.034978240728378296,-0.12305104732513428,0.4247108508406973,-0.6279144531318174,-0.38393346220437047,-0.527199429147471,-0.1289018279169488,-1.6549559600748192,-1.9255005555101865
1773065404240131328,2.6956725120544434,-0.18191398680210114,-0.41571977734565735,0.18715348839759827,-0.9877327084541321,0.1289123296737671,0.08812437951564789,0.2475135326385498,-0.030310019850730896,-0.14207947254180908,0.4232032492907292,-0.6297508767686049,-0.38402607064680194,-0.5261529594169109,-0.12927207682439268,-1.659779574142411,-1.9281161362173895
1773065404250168320,2.705709457397461,-0.2049936056137085,-0.3658359944820404,0.161880761384964,-0.9871270656585693,0.13074909150600433,0.09211308509111404,0.006826162338256836,0.025897637009620667,-0.029231667518615723,0.42244190732875636,-0.6315160842974773,-0.3837238286701472,-0.5248678854383045,-0.13112451760417615,-1.6638411973187757,-1.930093287761096
1773065404260206336,2.715747356414795,-0.12913985550403595,-0.41006070375442505,-0.20907866954803467,-0.9867726564407349,0.130461648106575,0.09622674435377121,-0.39678752422332764,0.04463295638561249,-0.014256477355957031,0.4210590355132059,-0.6329238712202317,-0.3840842928625078,-0.524019054466166,-0.13083459863331218,-1.668005594445817,-1.9319968344764593
1773065404270244352,2.725785493850708,-0.15937529504299164,-0.30415382981300354,-0.36963385343551636,-0.986818253993988,0.1271475851535797,0.10011686384677887,-0.40223509073257446,-0.050304338335990906,-0.08908474445343018,0.4190612237483543,-0.6335744654035966,-0.38554095761147006,-0.5237645820868849,-0.12749268983881085,-1.6719045822069503,-1.9330344061095464
1773065404280282368,2.735823392868042,-0.16156360507011414,-0.1923607438802719,-0.24820971488952637,-0.9869546294212341,0.12387862801551819,0.10283510386943817,-0.08735579252243042,-0.10840623080730438,-0.1072143167257309,0.4172093540953468,-0.6339900478013855,-0.38661889445672587,-0.5239455890240317,-0.12419767457186077,-1.6746160591364374,-1.9344209484455481
1773065404290320384,2.745861530303955,-0.2166573703289032,-0.12688012421131134,-0.14253133535385132,-0.9870325922966003,0.12176573276519775,0.10459329932928085,0.03268694877624512,-0.08996643126010895,-0.13915443420410156,0.41585558482691876,-0.6343735835644644,-0.38712634387036354,-0.5241827009376313,-0.12206865690130753,-1.6763697574757657,-1.9359057983959878
1773065404300358400,2.755899429321289,-0.38781100511550903,-0.10369998216629028,0.02340756729245186,-0.9870007634162903,0.12078437954187393,0.1060219407081604,0.023804962635040283,0.03497733920812607,-0.11551296710968018,0.4144988474412521,-0.6351628620041466,-0.3867545854969289,-0.5245757701214224,-0.12108000888029344,-1.677804306421877,-1.9389118062136297
1773065404310396160,2.765937328338623,-0.3414768874645233,-0.1403495967388153,0.1755473017692566,-0.9867475032806396,0.12140646576881409,0.10765537619590759,0.045295536518096924,0.1770554482936859,-0.06711281090974808,0.41328380316684793,-0.6364995780903222,-0.38561117035266973,-0.5247558954663515,-0.12170670410960778,-1.6794677498850648,-1.9430237540541246
1773065404320434432,2.775975465774536,-0.026552755385637283,-0.27827179431915283,0.15578798949718475,-0.9862925410270691,0.12301462143659592,0.10997532308101654,0.002924621105194092,0.197068989276886,-0.011342525482177734,0.41280058458092844,-0.637766484579504,-0.3850215213933278,-0.5240306208365252,-0.12332700861974032,-1.6818413852899765,-1.9449492944097866
1773065404330472192,2.78601336479187,0.08653651177883148,-0.3450859785079956,-0.057360514998435974,-0.9858765602111816,0.12359857559204102,0.11300909519195557,-0.1753021478652954,0.07595586776733398,0.04585017263889313,0.4124849657957199,-0.6385958671265228,-0.385616213666121,-0.5228304711479161,-0.1239154532038907,-1.6849262293622758,-1.9445497446907012
1773065404340510464,2.796051502227783,0.04063133895397186,-0.32048583030700684,-0.2629466950893402,-0.9856988191604614,0.12202557921409607,0.11622194200754166,-0.3022039532661438,-0.08741866797208786,0.17233705520629883,0.41161013157992066,-0.6390121203006556,-0.38700708329935507,-0.5219828808984357,-0.12233046037447984,-1.6881626075700458,-1.9437072975850112
1773065404350548224,2.806089401245117,0.0004772196989506483,-0.37209057807922363,-0.3254011571407318,-0.9856518507003784,0.11906369030475616,0.11964324861764908,-0.20718884468078613,-0.16859371960163116,0.1463174968957901,0.4101922725233586,-0.6393057274886312,-0.38872845323315136,-0.5214602220253999,-0.11934680819342697,-1.6915902673473184,-1.9431977896893453
1773065404360586496,2.8161275386810303,-0.037568166851997375,-0.31540626287460327,-0.28564709424972534,-0.9855929613113403,0.11593623459339142,0.12314791977405548,0.026028752326965332,-0.1336364448070526,0.027029037475585938,0.40863838112097095,-0.6396399740349159,-0.3904288191525771,-0.5209997741663203,-0.11619753793269494,-1.6951001695618053,-1.942938768250828
1773065404370623232,2.826164484024048,-0.007639607414603233,-0.22645039856433868,-0.11049483716487885,-0.9854949712753296,0.11388134211301804,0.12582093477249146,0.13184189796447754,-0.026738397777080536,0.026705875992774963,0.4074627514709938,-0.6400155861439564,-0.39152333294388375,-0.5206377877748891,-0.11412894107324849,-1.6977821720187143,-1.9430692433208672
1773065404380661248,2.836202383041382,-0.0756910964846611,-0.14461944997310638,-0.028522206470370293,-0.9853180050849915,0.11328940838575363,0.12772490084171295,0.014584481716156006,0.07260841131210327,0.02278779447078705,0.40685454132173404,-0.6404558919459025,-0.3920187521078993,-0.520198796385576,-0.11353315600377692,-1.6997055985801817,-1.9432737376500273
1773065404390699264,2.846240520477295,-0.03451911360025406,-0.11793364584445953,-0.11315786838531494,-0.9852296113967896,0.11255380511283875,0.12905144691467285,-0.12284839153289795,0.13498952984809875,0.0022504329681396484,0.4062065782650321,-0.6408027876446346,-0.39229773246144034,-0.5200677654902015,-0.11279281556777598,-1.701040985940586,-1.943906788529194
1773065404400737280,2.856278419494629,-0.016373932361602783,-0.08596878498792648,-0.12645263969898224,-0.9852327108383179,0.11123626679182053,0.13016562163829803,-0.06658613681793213,0.11535674333572388,-0.06111955642700195,0.4056156799837166,-0.6408503236440424,-0.39292960679587546,-0.5199934071100787,-0.11146695352894853,-1.7021522197773544,-1.9438128571385938
1773065404410775296,2.866316318511963,0.06851073354482651,-0.03946293517947197,-0.035577718168497086,-0.9852509498596191,0.11043421924114227,0.13070940971374512,0.09773874282836914,0.07720309495925903,-0.020037412643432617,0.4052986350707867,-0.6408314794197651,-0.393306136833962,-0.5199792065131364,-0.11065993363267917,-1.702692224238827,-1.9436935238376034
1773065404420813312,2.876354455947876,0.14086908102035522,-0.017316089943051338,-0.024036379531025887,-0.9852279424667358,0.1103699803352356,0.1309373676776886,0.11939841508865356,-0.0060761794447898865,-0.05815291404724121,0.4055848151965513,-0.6406148189331778,-0.3938036746937326,-0.5196463763303438,-0.11059529738645056,-1.7029226395930066,-1.9423434668549033
1773065404430851328,2.88639235496521,0.010833099484443665,0.07590426504611969,-0.09674560278654099,-0.9853416085243225,0.109886534512043,0.13048750162124634,0.025701045989990234,-0.053734198212623596,0.0033472776412963867,0.40571415324502885,-0.6402729983986087,-0.3940738999120408,-0.5197617771549415,-0.11010889162879155,-1.702458919715953,-1.9416361062663066
1773065404440889344,2.896430492401123,0.02145751379430294,0.05287564918398857,-0.16146469116210938,-0.985575258731842,0.10857636481523514,0.12981845438480377,-0.04666668176651001,-0.09041842073202133,0.019580379128456116,0.4055714244525569,-0.6397820375741521,-0.3944466613169959,-0.5201948705002798,-0.10879083588277201,-1.7017608521548706,-1.9411954259044408
1773065404450927360,2.906468391418457,-0.10533150285482407,0.10784541815519333,-0.14301909506320953,-0.985849916934967,0.10695989429950714,0.12907181680202484,-0.01965850591659546,-0.06736334413290024,0.06740033626556396,0.4051750901315468,-0.6393515105379265,-0.3946714500926738,-0.5208619951784857,-0.10716489542753362,-1.7009802704990098,-1.941437401386161
1773065404460965376,2.91650652885437,0.01273947861045599,0.048742689192295074,-0.14822158217430115,-0.9861103296279907,0.10549578815698624,0.12828625738620758,0.03887510299682617,0.049945488572120667,0.1363622099161148,0.40475597173181455,-0.6389942809337293,-0.39475237733215085,-0.5215645738590805,-0.10569246133577044,-1.7001629941808964,-1.941971192779304
1773065404471003392,2.926544427871704,0.2267085313796997,-0.11047958582639694,-0.24977602064609528,-0.9862753748893738,0.10368316620588303,0.12849409878253937,0.004936873912811279,0.10441618412733078,0.08299267292022705,0.4045804518347876,-0.6384241416062298,-0.39580508847027895,-0.5216010400173144,-0.10386983733135517,-1.7003488079271991,-1.9404076786713265
1773065404481040128,2.9365811347961426,0.24516503512859344,-0.1747557818889618,-0.30100807547569275,-0.9863697290420532,0.10121452808380127,0.12973159551620483,-0.0380900502204895,0.04966437816619873,0.1249832957983017,0.4043449053098654,-0.6377480730869671,-0.39767221935704467,-0.5211903405465176,-0.10138814450665032,-1.7015700127233417,-1.9375269047612684
1773065404491077120,2.9466183185577393,0.15924960374832153,-0.20017991960048676,-0.26558855175971985,-0.9864189028739929,0.09864626079797745,0.13132645189762115,-0.02034074068069458,-0.03219423443078995,0.16867659986019135,0.40387876791499583,-0.6372415819269716,-0.3994826527570289,-0.5207866015227237,-0.09880695763052068,-1.7031525564600454,-1.9351323984308821
1773065404501115136,2.9566562175750732,0.040580205619335175,-0.2027898132801056,-0.283765971660614,-0.9864175319671631,0.09609288722276688,0.1332167536020279,-0.003526926040649414,-0.07758398354053497,0.1002885103225708,0.40308992264429794,-0.6370160106924001,-0.40102241317020254,-0.5204903366767162,-0.09624138958596323,-1.7050352131745203,-1.9337554876447702
1773065404511152896,2.9666941165924072,0.0046201664954423904,-0.13698309659957886,-0.25239312648773193,-0.9864416718482971,0.09339993447065353,0.1349429339170456,0.06607711315155029,-0.056168511509895325,0.04221166670322418,0.40206924798053545,-0.6368913620970721,-0.40229449044831717,-0.5204507369176422,-0.09353626631331603,-1.7067501358828414,-1.9332279609541647
1773065404521191168,2.9767322540283203,-0.010707124136388302,-0.08044685423374176,-0.1508670300245285,-0.9864838123321533,0.09141267836093903,0.13599015772342682,0.1270936131477356,0.021136164665222168,0.01952742040157318,0.40130063824175477,-0.6367856229828349,-0.40311183505689185,-0.5205407528791047,-0.0915404703691265,-1.7077863305010021,-1.9330698168279137
1773065404531228928,2.9867701530456543,0.05206380411982536,-0.09876394271850586,-0.1979997754096985,-0.9865086674690247,0.08977317065000534,0.13689978420734406,0.05329638719558716,0.05692479759454727,-0.006757616996765137,0.40074290688843256,-0.6366431714540244,-0.4039001904208759,-0.5205336736140583,-0.08989419365026094,-1.7086876710431853,-1.9326076572362096
1773065404541267200,2.9968082904815674,-0.05312706157565117,-0.014271430671215057,-0.1370922178030014,-0.9865772724151611,0.08797524124383926,0.13757017254829407,0.06660968065261841,0.028983376920223236,-0.035748258233070374,0.400139497889336,-0.6364451767908945,-0.40462652501191676,-0.5206757875884626,-0.08808911765804736,-1.7093448179675617,-1.9323233010830372
1773065404551304960,3.0068461894989014,0.05540367588400841,0.0006995294243097305,0.006296625826507807,-0.9866229295730591,0.08739306032657623,0.13761316239833832,0.16949963569641113,0.030740484595298767,-0.031991854310035706,0.3999829069660447,-0.6363325203057204,-0.4048302163130545,-0.5207753628286492,-0.08750468580754783,-1.7093812281497651,-1.9322187213298843
1773065404561343232,3.0168843269348145,0.10250566899776459,0.06915395706892014,0.040862590074539185,-0.9866405129432678,0.08777764439582825,0.13724219799041748,0.14185303449630737,0.04717108607292175,-0.016011133790016174,0.40034549499171085,-0.6361697267023629,-0.4048569802856214,-0.520674885906674,-0.08789075673763272,-1.709009950253256,-1.9315623553572665
1773065404571380992,3.0269222259521484,0.07759907841682434,0.1147741749882698,-0.004819674417376518,-0.9867539405822754,0.08812886476516724,0.13619835674762726,0.0014786720275878906,0.041708171367645264,0.07376253604888916,0.4009346692184605,-0.6357468358480792,-0.4048766957352318,-0.5207227720339977,-0.08824334292197653,-1.7079563486579556,-1.9305270255233185
1773065404581419008,3.0369601249694824,0.0443740151822567,0.10049350559711456,-0.17654536664485931,-0.9869740605354309,0.08733601123094559,0.135109081864357,-0.12658172845840454,-0.02663654088973999,0.066795215010643,0.40104854886566155,-0.6352191790545676,-0.4050322655130065,-0.5211578002284967,-0.08744742079088412,-1.7068429502767453,-1.9300344519557495
1773065404591457024,3.0469982624053955,-0.10145749151706696,0.23389843106269836,-0.19515100121498108,-0.987358570098877,0.08528701215982437,0.13360048830509186,-0.01699012517929077,-0.12491409480571747,0.028280004858970642,0.400814314435665,-0.6344020509598045,-0.40538164826884115,-0.522060919011492,-0.08539074899265331,-1.7052904860779783,-1.9297632194512768
1773065404601495040,3.0570361614227295,-0.0043884641490876675,0.17712250351905823,-0.14978937804698944,-0.987801194190979,0.08360530436038971,0.13137324154376984,0.128090500831604,-0.09741450846195221,0.03819763660430908,0.40057456304185124,-0.6336627704680542,-0.4051643030668241,-0.5233100084214943,-0.08370301078092862,-1.7030160396571434,-1.9304991777085503
1773065404611532032,3.067073106765747,0.033748313784599304,0.14495404064655304,-0.2066245675086975,-0.9881516695022583,0.0817609578371048,0.12989042699337006,0.09497839212417603,-0.08960399776697159,-0.048759445548057556,0.40052332610882585,-0.6327881989385256,-0.4056159600199376,-0.5240571748864772,-0.08185232860477942,-1.701494861574675,-1.9297446214986103
1773065404621570048,3.07711124420166,-0.06587228178977966,0.19452506303787231,0.019719090312719345,-0.9884707927703857,0.08069714158773422,0.12811541557312012,0.14595669507980347,0.007422365248203278,0.08567547798156738,0.40051207637764324,-0.6321709605119298,-0.4054843832338654,-0.5249117887748594,-0.08078498353420559,-1.6996875156220457,-1.929959942065433
1773065404631608064,3.087149143218994,0.11306080222129822,0.06821159273386002,0.024850204586982727,-0.9886040091514587,0.08120065182447433,0.12676240503787994,0.09526294469833374,0.09059804677963257,0.08887481689453125,0.400975474703788,-0.6318744910666209,-0.4051121233612993,-0.5252023687314762,-0.08129015362155878,-1.698324102508795,-1.929826126743052
1773065404641646080,3.0971872806549072,0.12874601781368256,0.05826069414615631,-0.04886156693100929,-0.9887003302574158,0.08108968287706375,0.12607987225055695,-0.008293688297271729,0.024134919047355652,0.009875878691673279,0.40145671546210226,-0.6313842751918758,-0.40545509034276106,-0.5251595531538483,-0.0811788185252637,-1.6976325774312457,-1.928399501023794
1773065404651684096,3.107225179672241,-0.01825687661767006,0.08780407160520554,0.06509389728307724,-0.9887948036193848,0.08124842494726181,0.12523344159126282,0.03780609369277954,-0.03977504372596741,0.041285738348960876,0.4017755091267671,-0.6311124051995353,-0.40535645472976495,-0.5253186274077001,-0.08133808055700309,-1.6967781792172314,-1.928027095082658
1773065404661722112,3.1172633171081543,-0.01353802066296339,0.07617537677288055,0.00925513170659542,-0.9888473749160767,0.08165936172008514,0.12455078214406967,0.07061910629272461,-0.09462933987379074,-0.019280418753623962,0.40197872234925364,-0.6310506415844869,-0.405031452284187,-0.5254882017374519,-0.08175038987433765,-1.696092022736151,-1.9282542796041662
1773065404671760128,3.1273012161254883,-0.032709892839193344,0.21438372135162354,0.13002297282218933,-0.9889816641807556,0.08211412280797958,0.12317833304405212,0.14797812700271606,-0.09931078553199768,0.027731075882911682,0.4023302544084801,-0.6308176167621857,-0.4045470336964982,-0.5258719821041734,-0.08220668355428944,-1.694708889565867,-1.928502739940193
1773065404681797888,3.1373391151428223,-0.050418317317962646,0.2862864136695862,0.25743526220321655,-0.9891198873519897,0.08422913402318954,0.12061146646738052,0.1595759391784668,0.01649414747953415,0.10184644162654877,0.40326631667894175,-0.6306821906249618,-0.403169577571525,-0.5263748304643444,-0.08432904582554133,-1.6921354682722152,-1.9293369115771994
1773065404691836160,3.1473772525787354,0.26630574464797974,0.16016735136508942,-0.01995242014527321,-0.9892803430557251,0.08560247719287872,0.11830801516771317,-0.0841449499130249,0.03248527646064758,0.05278885364532471,0.4043852797508311,-0.6301312822507974,-0.40260225178542863,-0.5266105051496849,-0.08570737166989037,-1.689821027982511,-1.9284239974356254
1773065404701873920,3.1574151515960693,-0.03856148198246956,0.26758354902267456,-0.06309216469526291,-0.9895749092102051,0.0851074606180191,0.11618244647979736,-0.17238187789916992,-0.0593201145529747,0.07192790508270264,0.405060184585443,-0.6291786554870952,-0.4027721964613397,-0.527100664447399,-0.08521053910166468,-1.687667706162402,-1.926944569591793
1773065404711912192,3.1674532890319824,-0.026009337976574898,0.2048473358154297,-0.02541150338947773,-0.9898920059204102,0.0846872627735138,0.1137632355093956,-0.047873497009277344,-0.09573464840650558,0.11818563938140869,0.4052796919945373,-0.6285707908620498,-0.4022193150482684,-0.5280784292229119,-0.08478882151306583,-1.6852192280316163,-1.9275034515607583
1773065404721949184,3.177490234375,-0.10207907110452652,0.20620287954807281,0.04530661180615425,-0.9901138544082642,0.08458331227302551,0.11189436167478561,0.15947115421295166,-0.12343219667673111,-0.02105879783630371,0.4055254062269321,-0.6281315255958496,-0.4017436586041295,-0.5287740895755352,-0.08468449185095225,-1.6833304749388736,-1.9278925641353217
1773065404731986944,3.187528133392334,-0.025776710361242294,0.23070384562015533,0.31975558400154114,-0.9902140498161316,0.08624663203954697,0.10971760004758835,0.35563141107559204,-0.04092804342508316,-0.0014107078313827515,0.4061441064787937,-0.6280889969453204,-0.4004535068572879,-0.5293281834183632,-0.08635391775668211,-1.6811480944895512,-1.9290879229533935
1773065404742025216,3.197566270828247,0.10788121819496155,0.28596895933151245,0.508987307548523,-0.990111231803894,0.09055082499980927,0.10714565217494965,0.2972249388694763,0.025644861161708832,0.019303910434246063,0.4079861954017065,-0.6281396411781766,-0.3987648626173035,-0.5291260816018474,-0.09067502965169551,-1.6785926119442174,-1.928909353738548
1773065404752062976,3.207604169845581,0.13502487540245056,0.24499942362308502,0.3393961489200592,-0.9899861216545105,0.09517750889062881,0.10425320267677307,-0.0778239369392395,0.05708995461463928,0.10268652439117432,0.4100758995910126,-0.6280917168282097,-0.3970231675003389,-0.528877247378875,-0.09532179897002645,-1.675717360408228,-1.9283777155224253
1773065404762101248,3.217642307281494,0.3351728618144989,0.08398550003767014,-0.07882266491651535,-0.9900323152542114,0.09663587063550949,0.1024564802646637,-0.3956334590911865,-0.03438001126050949,0.0332857221364975,0.4114997725025378,-0.6273981005681896,-0.3969884913829522,-0.5286204639894437,-0.0967869114072081,-1.6739172540130285,-1.925981081754978
1773065404772139008,3.227680206298828,0.13719862699508667,0.16720661520957947,-0.03639451041817665,-0.9902360439300537,0.09595466405153275,0.10112114250659943,-0.15441739559173584,-0.14420294761657715,0.07633854448795319,0.4122258849858281,-0.6264239475743363,-0.3976853156954766,-0.5286864405367938,-0.0961025249561201,-1.6725617853298862,-1.9234895269543928
1773065404782177024,3.237718105316162,0.1903523951768875,0.16265766322612762,0.2010907381772995,-0.9903221130371094,0.097036212682724,0.09922711551189423,0.20016103982925415,-0.1369684636592865,0.11685263365507126,0.41330288453692926,-0.6258285362329792,-0.39743200972420883,-0.5287410912899003,-0.09718914090188246,-1.6706598379632567,-1.9220559347685087
1773065404792215040,3.247756242752075,0.17058400809764862,0.13921093940734863,0.2601335346698761,-0.9902350902557373,0.09958072751760483,0.09756047278642654,0.22070389986038208,-0.07571596652269363,0.04793202877044678,0.4148245235918316,-0.6255119999110578,-0.3968815607821966,-0.5283373530533928,-0.09974604598686619,-1.66900192630441,-1.920387480773721
1773065404802253056,3.257794141769409,0.19225868582725525,0.07817155122756958,0.3022756576538086,-0.9900577664375305,0.10253036767244339,0.09629584103822708,0.10523128509521484,-0.00691879540681839,0.028078541159629822,0.41634032282824,-0.6254079354970318,-0.3962484503926697,-0.5277430260279229,-0.10271086752090855,-1.667754202020611,-1.9188759546078493
1773065404812291072,3.2678322792053223,0.213507741689682,0.049742441624403,0.29697346687316895,-0.989799976348877,0.10574115067720413,0.09547187387943268,-0.016822338104248047,-0.0004707649350166321,0.03398369997739792,0.41791606363467265,-0.6254133291458019,-0.3957197320014274,-0.5268873007143561,-0.10593920057701639,-1.6669545843132867,-1.9170826661709341
1773065404822329088,3.2778701782226562,0.02986174076795578,0.041702356189489365,0.17156867682933807,-0.9895845055580139,0.10829220712184906,0.09484225511550903,-0.15500766038894653,-0.03312740474939346,0.07675801217556,0.4190799841998361,-0.625485507804285,-0.3952075488079643,-0.5262610849303937,-0.10850499224772367,-1.6663449689234677,-1.9159651876620727
1773065404832367104,3.2879083156585693,0.11451750993728638,-0.013391255401074886,-0.040661297738552094,-0.989535927772522,0.10893449932336807,0.09461386501789093,-0.19790297746658325,-0.07647905498743057,0.1056271642446518,0.4194154303513587,-0.6254636065695576,-0.3950977200713645,-0.5261023481200531,-0.10915110689301206,-1.6661209233827574,-1.9155748449132766
1773065404842405120,3.2979462146759033,0.22938895225524902,0.043499723076820374,0.053444430232048035,-0.9895600080490112,0.10892271250486374,0.09437503665685654,0.013928413391113281,-0.14114926755428314,0.03833065927028656,0.4199664319781924,-0.6250170769946353,-0.3956528443639284,-0.5257761702252463,-0.1091392464190107,-1.6658794543018858,-1.9136478923830462
1773065404852442112,3.307983160018921,0.17084500193595886,0.09104100614786148,0.2770209312438965,-0.9894367456436157,0.11089682579040527,0.09336463361978531,0.16878855228424072,-0.08118796348571777,0.035740017890930176,0.4212145516066989,-0.6247505226203112,-0.3954353307518657,-0.5252580678318589,-0.11112539764705263,-1.6648791436612262,-1.9118514098845352
1773065404862480128,3.318021297454834,0.1948225051164627,9.592389687895775e-05,0.2172476053237915,-0.989190936088562,0.11359413713216782,0.09272352606058121,0.06308925151824951,0.00046531111001968384,-0.04980051517486572,0.4225408188332607,-0.6247557661688538,-0.3950215142695664,-0.5244973645258385,-0.11383986531226054,-1.6642599582715008,-1.9102689650044418
1773065404872518144,3.328059196472168,0.1785464584827423,-0.017392653971910477,0.2742753326892853,-0.9889101982116699,0.11605452001094818,0.09266991168260574,0.04965561628341675,0.020496375858783722,-0.11331512033939362,0.42371564011724566,-0.6248466542700246,-0.3948437857378021,-0.5235742554721314,-0.11631662592669095,-1.664232590630623,-1.9085471396891671
1773065404882555904,3.338097095489502,0.07642754912376404,0.06966954469680786,0.39028558135032654,-0.9885317087173462,0.1195339486002922,0.0922849103808403,0.11003756523132324,0.0269198939204216,-0.043288953602313995,0.4250660749843647,-0.6251725740538312,-0.3940833750124577,-0.5226626921553853,-0.11982045249471572,-1.663882066559547,-1.9075269187580888
1773065404892594176,3.348135232925415,0.14483700692653656,0.07433659583330154,0.30606457591056824,-0.9881700873374939,0.12321896851062775,0.09130825102329254,-0.0015150904655456543,0.029628299176692963,0.01235998421907425,0.426478700000062,-0.6254640269832205,-0.3929998432586428,-0.5219788317404805,-0.12353292579309948,-1.6629360427482023,-1.9069387330839056
1773065404902631936,3.358173131942749,0.25091978907585144,-0.008004080504179,0.1319228559732437,-0.9879326820373535,0.12553812563419342,0.09071540087461472,-0.14816045761108398,-0.013874292373657227,0.024183273315429688,0.4277398685822452,-0.6253685382317145,-0.39277460695754196,-0.5212302197770071,-0.12587022703524,-1.6623630174150001,-1.9051189608732293
1773065404912670208,3.368211269378662,0.20820794999599457,-0.026397334411740303,0.13345935940742493,-0.9877567291259766,0.12696608901023865,0.09064283967018127,-0.06883805990219116,-0.05074845254421234,0.028726689517498016,0.4287799054274549,-0.6251436149685322,-0.39308635046265356,-0.5204097630644234,-0.12730971355524207,-1.6623063865075414,-1.9027590562665815
