time,seconds_elapsed,rotationRateX,rotationRateY,rotationRateZ,gravityX,gravityY,gravityZ,accelerationX,accelerationY,accelerationZ,quaternionW,quaternionX,quaternionY,quaternionZ,pitch,roll,yaw
1773063459009667584,0.02425861358642578,-0.0667976588010788,-0.015423554927110672,-0.014797085896134377,0.18856871128082275,0.060569118708372116,-0.9801903963088989,-0.033447861671447754,0.006386447697877884,-0.005054354667663574,0.9732298553782918,-0.049496848050665655,0.0863415393058387,0.20716854061512158,-0.060606214589987724,0.1900576989453786,0.4252515350226685
1773063459019703552,0.03429460525512695,-0.08377157896757126,0.006295854691416025,-0.018084490671753883,0.18852128088474274,0.06138768792152405,-0.9801486134529114,0.011658772826194763,-0.040864620357751846,0.021225273609161377,0.9732304264028406,-0.049890234885323646,0.08623609520378943,0.2071157102429057,-0.06142631051447686,0.19001895564517346,0.42522452348487394
1773063459029739520,0.044330596923828125,-0.07789924740791321,-0.0011986466124653816,-0.02306908555328846,0.18854589760303497,0.062224213033914566,-0.9800910949707031,-0.016762465238571167,-0.009093109518289566,0.018604278564453125,0.9732329750040616,-0.05029772600532527,0.08616601786818756,0.20703403337101212,-0.06226443855181173,0.1900540545868602,0.4251438807117518
1773063459039776512,0.0543675422668457,-0.04162406548857689,-0.010050727985799313,-0.020939355716109276,0.1884680837392807,0.06287628412246704,-0.9800644516944885,-0.010459065437316895,0.003941945731639862,0.009178221225738525,0.9732428842375035,-0.05060358563502672,0.08606419516349727,0.2069552428563838,-0.06291778980073427,0.18998253238577195,0.42504489086693564
1773063459049812480,0.06440353393554688,-0.01614786498248577,-0.010300599038600922,-0.012971444055438042,0.18835455179214478,0.06318426132202148,-0.9800664782524109,-0.0015869736671447754,-0.009397037327289581,0.004953563213348389,0.9732574342681767,-0.05073723444940676,0.08597960044439885,0.20688929651733326,-0.0632263800909887,0.18987043609555734,0.42493501383205906
1773063459059849472,0.07444047927856445,-0.01012539304792881,-0.014905469492077827,-0.010984726250171661,0.1882282793521881,0.06331876665353775,-0.9800820350646973,-0.007213279604911804,-0.004129938781261444,-0.001607358455657959,0.973270346232554,-0.05078617510566711,0.0859053793224591,0.20684726976554677,-0.0633611569389906,0.18974323785307154,0.42485574990279334
1773063459069885440,0.08447647094726562,0.005966757424175739,-0.022159121930599213,-0.0020270058885216713,0.1880130171775818,0.06336709856987,-0.9801202416419983,-0.005533188581466675,-0.0004093348979949951,0.0035425424575805664,0.9732852192532572,-0.05078470662598569,0.08579501762726885,0.20682385247205473,-0.06340958057579366,0.18952419934991338,0.42480116364675585
1773063459079922688,0.0945136547088623,0.04052579775452614,-0.015199216082692146,0.011441398411989212,0.18782223761081696,0.06312249600887299,-0.9801726341247559,-0.0020312219858169556,-0.006924375891685486,0.007028102874755859,0.9732935766094197,-0.05064573962159306,0.08572456354326752,0.20684765959622556,-0.06316448883807695,0.1893265744167925,0.4248148354390739
1773063459089958656,0.10454964637756348,0.06516936421394348,-0.004460019990801811,0.02618616633117199,0.18775944411754608,0.06255754828453064,-0.9802208542823792,-0.007232725620269775,-0.007656432688236237,-0.0008887052536010742,0.9732887585031966,-0.050367791819278564,0.0857476125112117,0.20692856493891573,-0.06259842496290148,0.18925568228028958,0.42491986395888726
1773063459099994624,0.11458563804626465,0.07388827949762344,0.0016751037910580635,0.036148253828287125,0.18776796758174896,0.06180784851312637,-0.980266809463501,-0.008263573050498962,0.0009515546262264252,-0.0020940303802490234,0.9732748313738265,-0.05001007969666779,0.08582305478797123,0.20704958048581865,-0.06184726975596046,0.1892554156693801,0.4250922417886995
1773063459110031616,0.12462258338928223,0.01655721664428711,0.01351931318640709,0.02888164110481739,0.18785883486270905,0.06124221906065941,-0.9802848696708679,-0.007911935448646545,0.00897873193025589,-0.0004584789276123047,0.9732501255868391,-0.04975346474393332,0.08591943889042697,0.2071877625287279,-0.06128056638193305,0.18934140765618776,0.4253230950357629
1773063459120067584,0.1346585750579834,-0.09286540746688843,0.02297806367278099,0.010359356179833412,0.18805763125419617,0.06158217415213585,-0.9802254438400269,-0.00891946256160736,0.000704202800989151,0.00987333059310913,0.9732106054444939,-0.0499524078320978,0.08597688104220173,0.20730138026007802,-0.061621164165813216,0.1895482344257306,0.42560175139880524
1773063459130104576,0.14469552040100098,-0.14277558028697968,0.030077315866947174,-0.019988518208265305,0.18831346929073334,0.0628071129322052,-0.9800986051559448,-0.010258659720420837,-0.011278174817562103,0.025920748710632324,0.9731735393048467,-0.05058529010739275,0.08597568406442366,0.20732267259701326,-0.06284848078612164,0.18982394153708043,0.42578469923737033
1773063459140140544,0.15473151206970215,-0.10506388545036316,0.022187702357769012,-0.03470274806022644,0.18854697048664093,0.06412122398614883,-0.9799686074256897,-0.011361926794052124,-0.01675795018672943,0.03322184085845947,0.9731607953981526,-0.051249280855848116,0.08596045103884331,0.2072252878455728,-0.06416524432130018,0.19007829838348186,0.42573222579874503
1773063459150177536,0.16476845741271973,-0.02452211081981659,0.02559405192732811,-0.028576724231243134,0.18873915076255798,0.06482033431529999,-0.9798856377601624,-0.0036195218563079834,-0.008820578455924988,0.016674578189849854,0.9731697730670047,-0.05160193158023925,0.08599082198629043,0.20708342364635604,-0.06486581082813979,0.19028311798993416,0.42552318818380863
1773063459160213504,0.1748044490814209,0.04689348489046097,0.009993254207074642,-0.020581383258104324,0.18891239166259766,0.06474733352661133,-0.9798570871353149,0.0028448104858398438,0.007441997528076172,-0.009248137474060059,0.9731895803325444,-0.05157336521562464,0.08609093889343922,0.20695551725985056,-0.06479265842596804,0.19045900976408206,0.4252621347676636
1773063459170249728,0.18484067916870117,0.05612187087535858,0.0005261162295937538,-0.015471130609512329,0.18895560503005981,0.06421644985675812,-0.9798836708068848,0.0069825053215026855,0.01831834763288498,-0.021764278411865234,0.9732188566040345,-0.05130713494275273,0.08617271068188503,0.2068502467835396,-0.06426066702746429,0.19049647544466758,0.4249933095697187
1773063459180286720,0.19487762451171875,-0.011740533635020256,-0.0035538466181606054,-0.02172689698636532,0.1889318972826004,0.06403087079524994,-0.9799004197120667,0.010485216975212097,0.007654912769794464,-0.01031869649887085,0.9732441147130979,-0.05120436440423434,0.08618535563649735,0.2067510244145821,-0.06407470631788392,0.19046997465919838,0.42476892890654233
1773063459190322688,0.20491361618041992,-0.0436956062912941,-0.005181736778467894,-0.008019384928047657,0.18888604640960693,0.06438547372817993,-0.979885995388031,0.00798286497592926,-0.0064631178975105286,0.006314218044281006,0.9732548738829946,-0.051368131277754046,0.0861296417715492,0.20668315362265433,-0.06443004437039417,0.19042759331583378,0.42466361539613035
1773063459200359680,0.2149505615234375,-0.01782512478530407,-0.0015582400374114513,-0.0043841698206961155,0.18884512782096863,0.06471133232116699,-0.9798724055290222,-0.0024590343236923218,-0.011107206344604492,0.017592132091522217,0.9732535087670439,-0.05152341663698618,0.08607628082719455,0.2066734291987138,-0.06475658083398798,0.1903899088219463,0.4246750946959778
1773063459210395648,0.22498655319213867,0.025776416063308716,-0.0014324055518954992,-0.024836713448166847,0.18882916867733002,0.06469361484050751,-0.979876697063446,-0.005067571997642517,-0.004375621676445007,0.011126697063446045,0.9732702153144045,-0.051506476773025396,0.08607408719375871,0.20660005105930276,-0.06473882970921263,0.19037340418338186,0.4245216285915757
1773063459220432640,0.23502349853515625,0.052247971296310425,-0.008095367811620235,-0.022542933002114296,0.18876825273036957,0.06433825939893723,-0.9799118041992188,-0.002672061324119568,0.010536618530750275,-0.01047515869140625,0.9733111208670527,-0.05131149546220922,0.08608850397193632,0.20644939250909766,-0.06438272960528776,0.19030679761882222,0.42417204781255885
1773063459230468608,0.24505949020385742,0.05082058161497116,0.00039362418465316296,-0.005306200124323368,0.18870224058628082,0.06383749097585678,-0.9799572825431824,0.001605391502380371,0.017476603388786316,-0.024940788745880127,0.9733401561163941,-0.05105041567953887,0.08611168112548072,0.20636777107348545,-0.06388092613290848,0.19023322339475804,0.4239491647435372
1773063459240504576,0.2550954818725586,0.021119412034749985,0.009310686029493809,0.0019256137311458588,0.18875356018543243,0.0634651854634285,-0.9799715876579285,0.001187831163406372,0.007869653403759003,-0.012063324451446533,0.9733528891047554,-0.05086870613933802,0.08617768309799106,0.2063249995882338,-0.06350786520887175,0.19028102037022823,0.42382565083144386
1773063459250541568,0.2651326656341553,-0.03424471244215965,0.016860248520970345,-0.005425554700195789,0.18887609243392944,0.06352298706769943,-0.9799442291259766,-0.009142816066741943,-0.0032355040311813354,0.0057010650634765625,0.9733469440842268,-0.05090993432315539,0.08623266370889378,0.20632013717206985,-0.06356578675372007,0.19040675936680904,0.42382817265114475
1773063459260577792,0.27516865730285645,-0.06467612087726593,0.010198883712291718,-0.027079718187451363,0.18900437653064728,0.06408446282148361,-0.9798828959465027,-0.010018780827522278,-0.014447614550590515,0.021676719188690186,0.9733440611049611,-0.051194989530063024,0.08624160828152311,0.2062590096425453,-0.06412840573908403,0.19054460669061216,0.42376733869330896
1773063459270614528,0.285205602645874,-0.02182186394929886,-0.00031767296604812145,-0.021477047353982925,0.18903793394565582,0.06461434066295624,-0.9798416495323181,-0.0025144964456558228,-0.018090292811393738,0.024122655391693115,0.973359408990626,-0.051448875357531586,0.086210155317364,0.20613669325801895,-0.0646593867721309,0.19058546472865,0.42357256453308634
1773063459280650496,0.2952415943145752,0.045773692429065704,0.014419727958738804,0.004190764855593443,0.18911322951316833,0.0644773617386818,-0.9798361659049988,0.002277761697769165,-0.010430730879306793,0.01068943738937378,0.9733674378336991,-0.051385522836750776,0.08626388812787056,0.20609219640197504,-0.06452212046049959,0.19066059694543017,0.42347104470547364
1773063459290687488,0.3052785396575928,0.054865721613168716,0.012536873109638691,0.0035287034697830677,0.18926216661930084,0.06394117325544357,-0.9798425436019897,6.888806819915771e-05,0.000206775963306427,0.003142714500427246,0.9733691638407768,-0.05113724912449233,0.0863928392227463,0.20609155872838086,-0.0639848237026828,0.1908059187752662,0.4234222995100346
1773063459300723456,0.31531453132629395,0.03239370509982109,0.004840337671339512,0.002314834389835596,0.18934008479118347,0.06352992355823517,-0.9798542261123657,-0.006494015455245972,0.0049057453870773315,0.004115700721740723,0.9733727255350307,-0.05094273480961138,0.08647387140602876,0.20608893080230933,-0.0635727346586015,0.19088035794648361,0.4233785640684974
1773063459310759424,0.3253505229949951,-0.013457007706165314,0.018239565193653107,0.0013456214219331741,0.189432293176651,0.06349296867847443,-0.9798387885093689,-0.00022330880165100098,-0.005311205983161926,0.013789594173431396,0.9733700844796459,-0.0509338587033333,0.08652369429699283,0.20608240738205358,-0.06353570430878651,0.19097401193291372,0.42336624393001626
1773063459320796416,0.3353874683380127,-0.038067277520895004,0.01789308898150921,0.0072075058706104755,0.18961918354034424,0.06380070000886917,-0.9797826409339905,-0.0026074647903442383,-0.010166063904762268,0.015457689762115479,0.9733476504388355,-0.05110895322776515,0.08658263389813074,0.20612017739283692,-0.06384406661886549,0.19116855077343484,0.42348568269839865
1773063459330832384,0.34542346000671387,-0.013426047749817371,0.008859546855092049,-0.010812641121447086,0.18971794843673706,0.0640619695186615,-0.9797464609146118,-0.011357977986335754,-0.005163043737411499,0.011042296886444092,0.9733389272156491,-0.051248110586230924,0.08660479831543867,0.2061178700154403,-0.06410586765713498,0.19127260298643803,0.4235133306705628
1773063459340869632,0.35546064376831055,0.034963056445121765,0.00950003694742918,-0.011302130296826363,0.18976245820522308,0.06392766535282135,-0.9797466397285461,-0.009693488478660583,0.002387039363384247,-0.008153140544891357,0.9733531176916608,-0.05118077326181454,0.08664416587279423,0.20605119333449004,-0.06397128585294241,0.19131636252992215,0.42336481089774064
1773063459350905600,0.3654966354370117,0.049355246126651764,0.014098083600401878,-0.0030404275748878717,0.1898794174194336,0.06343857944011688,-0.9797557592391968,0.0024271011352539062,0.011405780911445618,-0.021312355995178223,0.9733668862515702,-0.05094750725534579,0.08675523150861003,0.2059971124809816,-0.06348120680947585,0.19142968207880268,0.42320926484689925
1773063459360942592,0.3755335807800293,0.03621707111597061,0.016234738752245903,0.0010304804891347885,0.19004955887794495,0.0629628449678421,-0.9797534346580505,0.0020128190517425537,0.015635177493095398,-0.017148971557617188,0.9733686906204859,-0.05073034859321561,0.08688900974759896,0.2059859095502908,-0.06300451775787672,0.1915974839744903,0.42314602559015213
1773063459370978560,0.38556957244873047,0.005225666332989931,0.0022288081236183643,-0.004592118319123983,0.1901261955499649,0.0627460703253746,-0.9797524809837341,-0.003968983888626099,0.009092308580875397,-0.0016927719116210938,0.973372613394006,-0.050630003809892084,0.0869502833647186,0.2059662696947597,-0.06278731293706824,0.1916730514697308,0.4230872817224028
1773063459381014528,0.39560556411743164,0.011430565267801285,-0.0026684787590056658,-0.016389921307563782,0.19008703529834747,0.06274715065956116,-0.9797600507736206,-0.002419188618659973,-0.006777912378311157,0.012871623039245605,0.973387389601615,-0.050620916198182674,0.08693392367990642,0.20590565159501706,-0.06278839840663439,0.19163309586002786,0.42296076967355556
1773063459391051520,0.4056425094604492,0.0712805837392807,-0.020534293726086617,-0.03161441534757614,0.18999361991882324,0.06243344396352768,-0.9797981977462769,0.0006039142608642578,-0.01209469884634018,0.015152812004089355,0.9734247567696264,-0.05044463855154998,0.08692665798003502,0.20577505439173982,-0.0624740760392296,0.19153392759243448,0.4226549792675573
1773063459401087488,0.4156785011291504,0.1722434163093567,-0.020570512861013412,-0.028252972289919853,0.1897674798965454,0.06126780062913895,-0.9799156188964844,0.00224912166595459,0.0029717013239860535,0.000698089599609375,0.9734951074106669,-0.049829010337872036,0.08694408999311379,0.2055849690172883,-0.06130619493771142,0.19128911919292266,0.4221320586637271
1773063459411124480,0.42571544647216797,0.21013939380645752,-0.02058023400604725,-0.023127809166908264,0.18955430388450623,0.0593850240111351,-0.9800727367401123,0.0024775564670562744,0.012819565832614899,-0.005645036697387695,0.973575463589185,-0.04886152533735637,0.08704124460528799,0.20539539030631498,-0.05941998340499737,0.19104952618771512,0.42153752741091205
1773063459421160704,0.43575167655944824,0.20102259516716003,-0.021034570410847664,-0.017397750169038773,0.18934249877929688,0.05739162862300873,-0.9802324175834656,-0.0014763027429580688,0.006756320595741272,0.002113521099090576,0.9736532987249162,-0.04784112279907135,0.08714935993553237,0.20522069458355982,-0.057423182573068096,0.19081086000059128,0.4209632541346485
1773063459431196672,0.4457876682281494,0.20926827192306519,-0.02933737263083458,0.0033769477158784866,0.18907561898231506,0.05542301386594772,-0.9803972244262695,-0.0059091150760650635,-0.009524576365947723,0.009068489074707031,0.973726457223975,-0.046829688761911376,0.08722598229821715,0.205074206653856,-0.055451428826839545,0.19051711555052905,0.42044776608865886
1773063459441233664,0.455824613571167,0.1940067559480667,-0.017462337389588356,0.030402973294258118,0.18887275457382202,0.05339042469859123,-0.9805490970611572,-0.005660504102706909,-0.02740471065044403,0.005390465259552002,0.9737636093145761,-0.0458076089873152,0.08733333668172447,0.20508286548013843,-0.053415821270605554,0.1902888438975423,0.4202485974661223
1773063459451269632,0.46586060523986816,0.20088638365268707,-0.01154233142733574,0.05401375889778137,0.1887383610010147,0.05141010880470276,-0.9806808233261108,-0.0023980289697647095,-0.03760090842843056,0.00277554988861084,0.9737745535896201,-0.04482768905994747,0.0874647246612718,0.2051913938299788,-0.05143278139996642,0.19013174922324536,0.4202640388593463
1773063459461306624,0.47589755058288574,0.25153490900993347,-0.012073098681867123,0.12059970945119858,0.188653364777565,0.049027860164642334,-0.9808191657066345,-0.0046628862619400024,-0.035371243953704834,-0.0072942376136779785,0.9737381094624961,-0.04367624933804863,0.08765167630479637,0.2055328446834648,-0.04904752308150367,0.1900220090730884,0.4207203337139093
1773063459471342592,0.4859335422515869,0.32090118527412415,0.0007514862809330225,0.1580144613981247,0.1886640340089798,0.045929696410894394,-0.9809670448303223,-0.00030954182147979736,-0.028672005981206894,-0.027577877044677734,0.9736612415412469,-0.04220114362806412,0.08795192530347384,0.20607586326736416,-0.045945861682358716,0.19000453488190314,0.42152374615993476
1773063459481379584,0.4959704875946045,0.39667078852653503,-0.05407421290874481,0.21474005281925201,0.18856075406074524,0.04209112375974655,-0.9811590909957886,-8.419156074523926e-05,-0.025001276284456253,-0.017543911933898926,0.9735462710396018,-0.040371115702412405,0.08826450293982634,0.20685085546834692,-0.042103560881965284,0.18986671828618829,0.42272598321854854
1773063459491415552,0.5060064792633057,0.4812648296356201,-0.0971745103597641,0.33245518803596497,0.18798206746578217,0.037256695330142975,-0.9814655780792236,0.008154407143592834,-0.03745506331324577,-0.031214475631713867,0.9733791176996254,-0.038035476066553865,0.08843367502149142,0.20800435697964653,-0.03726532133919678,0.1892401617718167,0.42459023438431553
1773063459501451520,0.5160424709320068,0.5637658834457397,-0.19667765498161316,0.3680398166179657,0.18668527901172638,0.031411003321409225,-0.9819175004959106,0.04309682548046112,-0.05327684432268143,-0.07392966747283936,0.9731642590310512,-0.03516165393541972,0.08834541489150576,0.2095475369885123,-0.031416169184754546,0.1878808323737807,0.4271356539048609
1773063459511488768,0.5260796546936035,0.6721872091293335,-0.2952927350997925,0.43557268381118774,0.1842893362045288,0.024566056206822395,-0.9825649857521057,0.08608114719390869,-0.061431288719177246,-0.1251162886619568,0.9729681745938661,-0.031690390142385255,0.08782497549470074,0.21122366122691164,-0.024568527926462195,0.18540536492132886,0.42983407618717984
1773063459521524736,0.5361156463623047,0.7548826336860657,-0.41742396354675293,0.44276270270347595,0.18088394403457642,0.016693679615855217,-0.9833627343177795,0.11751693487167358,-0.06774958968162537,-0.19566857814788818,0.9727516040249676,-0.02762751282966961,0.08692145751821462,0.21315643010134452,-0.016694455133066128,0.18191077369665917,0.43295815077510524
1773063459531561728,0.5461525917053223,0.7103143334388733,-0.527069628238678,0.383503258228302,0.17626537382602692,0.008662618696689606,-0.9843045473098755,0.1721690595149994,-0.1000322550535202,-0.25843220949172974,0.9726118736707264,-0.023334763153980923,0.08545880841162593,0.2148913434791976,-0.008662727467849799,0.17719784847671136,0.4356677903120563
1773063459541597696,0.5561885833740234,0.582188069820404,-0.6368230581283569,0.4450068175792694,0.17052839696407318,0.0015286110574379563,-0.9853515625,0.24345779418945312,-0.14181791245937347,-0.29266357421875,0.9724909833021195,-0.019357533216119546,0.08336364478440278,0.21664984786989255,-0.0015286116977597883,0.17136609992792684,0.4385288387942709
1773063459551634432,0.566225528717041,0.4483170807361603,-0.712405800819397,0.598670482635498,0.16379262506961823,-0.0044073727913200855,-0.986484944820404,0.2743329703807831,-0.1710992157459259,-0.29201841354370117,0.9722489022950087,-0.015902780979692305,0.08065126652972765,0.21903124987470698,0.0044073869910268276,0.16453559252162417,0.4428044295686617
1773063459561670656,0.5762615203857422,0.17876896262168884,-0.6847180128097534,0.7986770868301392,0.1563015729188919,-0.00933759193867445,-0.9876652359962463,0.2656955122947693,-0.18887408077716827,-0.25336259603500366,0.971814046611709,-0.012914090434532597,0.0774635802126968,0.22228369023957692,0.009337727667779109,0.15695198596770954,0.4489907020800205
1773063459571706624,0.5862975120544434,-0.20589783787727356,-0.08569695800542831,0.5239639282226562,0.15170276165008545,-0.009966638870537281,-0.9883759021759033,0.24169932305812836,-0.2252475917339325,-0.21223139762878418,0.971142787924684,-0.012373750460785229,0.07522589677685504,0.22598597932255654,0.009966803879472514,0.15229837005489283,0.45650405952987383
1773063459581743360,0.5963344573974609,-0.7132808566093445,0.010401350446045399,-0.9732561707496643,0.1513398140668869,-0.006027293391525745,-0.9884634017944336,0.2219054102897644,-0.4309691786766052,-0.19233793020248413,0.9711958817934981,-0.014245731634274186,0.07460126420398662,0.22585465242224548,0.006027329895534104,0.15192633626243557,0.4565250784619875
1773063459591779584,0.6063704490661621,-2.6129207611083984,-0.8996752500534058,-0.24279621243476868,0.14569683372974396,0.011882657185196877,-0.9892579317092896,0.26879292726516724,-0.9227255582809448,-0.19276416301727295,0.972210032755417,-0.022092255911616857,0.0698782616370168,0.22234359842424148,-0.011882937050386533,0.1462276873848493,0.45053546708547015
1773063459601816576,0.6164076328277588,-3.29194712638855,-1.055698275566101,1.8403578996658325,0.13640247285366058,0.040859464555978775,-0.9898105263710022,0.6572834253311157,-0.833202600479126,-0.0418056845664978,0.9711299764725959,-0.0355451434371393,0.06189734581114627,0.22762239572858448,-0.040870842001434836,0.13694411506337528,0.46326946565121396
1773063459611852544,0.62644362449646,-3.4036173820495605,-0.8832773566246033,2.389558792114258,0.12768682837486267,0.0709984302520752,-0.9892700910568237,0.9435716867446899,-0.2512962818145752,0.13071906566619873,0.9681027284472735,-0.04993219058628011,0.05358856826611462,0.23960848150531913,-0.07105821253446902,0.12836208276999783,0.48982344417609736
1773063459621889536,0.6364805698394775,-4.171418190002441,-0.5202962756156921,2.398317575454712,0.12271743267774582,0.10508676618337631,-0.986862301826477,0.6686186194419861,-0.3014979064464569,-0.04937732219696045,0.9642750671858953,-0.06657827680462852,0.04621884375706339,0.25219994839240384,-0.1052811483813126,0.12371604698676991,0.5181535438472209
1773063459631925504,0.6465165615081787,-5.027785301208496,-0.566081702709198,2.845029830932617,0.1209784671664238,0.14765769243240356,-0.9816116690635681,0.3977593183517456,-0.36630088090896606,-0.10994106531143188,0.9592067833316267,-0.0877105339754329,0.038743263706294946,0.26594790408814617,-0.1481995908679077,0.12262636309829518,0.550043450507839
1773063459641961472,0.6565525531768799,-5.573434352874756,-0.9403802156448364,3.1939613819122314,0.11889263987541199,0.1959271878004074,-0.9733843207359314,0.472171813249588,-0.3969464898109436,-0.0691571831703186,0.9524883024691526,-0.11155060068331188,0.02939887097228252,0.2818832022426414,-0.197202875332584,0.12154153223297381,0.5875009141693732
1773063459651998464,0.6665894985198975,-6.248475551605225,-1.176038146018982,2.9931890964508057,0.11557798087596893,0.2496625781059265,-0.9614105820655823,0.6507031321525574,-0.7424299120903015,-0.036117494106292725,0.9443695644546769,-0.1377728143666086,0.017701899966642752,0.2981129202035189,-0.2523317799873613,0.11964292868019381,0.6267409722008803
1773063459662034432,0.6766254901885986,-6.5650835037231445,-1.5687023401260376,2.678177833557129,0.11043427139520645,0.30807289481163025,-0.9449313879013062,0.6796352863311768,-0.9675577878952026,0.06245458126068115,0.9352012072678992,-0.1658966562044784,0.0035491997866242777,0.3128328243735915,-0.31316673929457256,0.11634236868632222,0.6640036511158097
1773063459672070912,0.686661958694458,-6.405699253082275,-1.9696235656738281,2.549488067626953,0.10259155184030533,0.36631378531455994,-0.9248184561729431,0.7219170928001404,-0.7989310026168823,0.2549728751182556,0.9240161447611185,-0.19341509512665991,-0.013467527428449573,0.3295502371925107,-0.3750443479076818,0.11047985798474558,0.7061575905052252
1773063459682106880,0.6966979503631592,-6.124949932098389,-2.2834668159484863,2.563356399536133,0.09303446114063263,0.4212853014469147,-0.9021437168121338,0.8258650898933411,-0.5540367960929871,0.4127180576324463,0.9129683102748485,-0.21897345421818404,-0.03128528810720632,0.3428712801840978,-0.43486205873144135,0.1027627248767715,0.7412388504874721
1773063459692144128,0.7067351341247559,-5.851374626159668,-2.371452569961548,2.5542659759521484,0.08378997445106506,0.4724954068660736,-0.8773410320281982,0.8616140484809875,-0.312735915184021,0.446677029132843,0.9010674084922343,-0.24267347033015976,-0.04938682948031624,0.3560168787471559,-0.49212002832740415,0.09521566367984284,0.7764903660688952
1773063459702180096,0.716771125793457,-5.571023941040039,-2.405848264694214,2.3172876834869385,0.07535574585199356,0.5200603604316711,-0.8507988452911377,0.8102643489837646,-0.09481322765350342,0.42230159044265747,0.8886139654144452,-0.2646958117351287,-0.06735498138701668,0.36846238413824656,-0.5469215986956978,0.08834005520754167,0.81093345930371
1773063459712216064,0.7268071174621582,-5.416348934173584,-2.2811830043792725,1.7689098119735718,0.06649820506572723,0.5648118257522583,-0.8225361108779907,0.7080531716346741,-0.007240414619445801,0.3850971460342407,0.8762971455082149,-0.28538369266529096,-0.0853703524382672,0.3786442614623026,-0.6002051978667379,0.0806698836051525,0.8407063645800305
1773063459722253056,0.7368440628051758,-5.370738506317139,-2.155904769897461,1.605495810508728,0.05844656750559807,0.6072925925254822,-0.7923255562782288,0.5840552449226379,-0.025551259517669678,0.32963329553604126,0.8640984117216108,-0.30539024795757297,-0.10283006312929181,0.3866481639652996,-0.652648321257038,0.0736324902111443,0.8664057572783506
1773063459732289024,0.746880054473877,-5.606334686279297,-2.225736618041992,1.680494785308838,0.051746122539043427,0.6490347981452942,-0.758996844291687,0.5287439823150635,-0.07303076982498169,0.299585223197937,0.8510161810519211,-0.32559993926021025,-0.12035886870342781,0.3940430912565929,-0.7063150091337103,0.06807165671378317,0.8923681029470426
1773063459742326016,0.7569169998168945,-5.8552565574646,-2.3413193225860596,1.9394967555999756,0.046899303793907166,0.6907731890678406,-0.7215489745140076,0.6083130836486816,-0.09310168027877808,0.37351131439208984,0.8362579367868767,-0.34649541738951123,-0.13844287924708465,0.4018050480791299,-0.7625578085049174,0.0649067827366365,0.9218484252532901
1773063459752361984,0.7669529914855957,-5.722275257110596,-2.3937840461730957,2.136251926422119,0.044915176928043365,0.7308743000030518,-0.6810325980186462,0.6640539169311523,-0.09963345527648926,0.5012535452842712,0.8198755150507945,-0.3674249269049581,-0.1564692818989496,0.41026863051098433,-0.8196020448277627,0.06585621149498119,0.9565567087861643
1773063459762398976,0.7769899368286133,-4.952200412750244,-2.65229868888855,2.0026376247406006,0.04404096305370331,0.7655907869338989,-0.6418185830116272,0.728130042552948,-0.10486996173858643,0.5404545068740845,0.8033093173556016,-0.38582924024272014,-0.17385768645893995,0.4190506161400919,-0.8719591611220443,0.06851162283608814,0.9935707005849614
1773063459772434944,0.7870259284973145,-3.8182992935180664,-3.209550619125366,1.7954026460647583,0.04053054749965668,0.7923135161399841,-0.6087663769721985,0.7778135538101196,-0.0958871841430664,0.5613878965377808,0.7879665247804334,-0.3988635276394814,-0.19111435930969312,0.42835952614239603,-0.9145916753015048,0.06648005332742538,1.0285965227340998
1773063459782470912,0.7970619201660156,-2.413329601287842,-3.4230101108551025,1.7628638744354248,0.03457681089639664,0.810486912727356,-0.5847353935241699,0.7863307595252991,0.010664820671081543,0.5666079521179199,0.7744082309259047,-0.40563520171735207,-0.20758705163659538,0.4389301681460413,-0.9449828990096869,0.059063629955292386,1.0614855140708999
1773063459792508160,0.8070991039276123,-1.0108309984207153,-3.153479814529419,2.112313747406006,0.031081272289156914,0.8196409940719604,-0.5720338225364685,0.7106789946556091,0.20359814167022705,0.507199227809906,0.7631440068703598,-0.406816636202883,-0.2201892796912522,0.45125186390286054,-0.96078407891297,0.05428130152366983,1.0962968228987768
1773063459802544128,0.8171350955963135,-0.38005226850509644,-2.5151636600494385,2.674672842025757,0.0344967320561409,0.8224388360977173,-0.567806601524353,0.5133548378944397,0.32728034257888794,0.3815120458602905,0.753147218853408,-0.4053274644330581,-0.22761006673018686,0.46548105243874716,-0.9656851368773413,0.060679783702087084,1.1389860949001713
1773063459812581120,0.827172040939331,-0.8736239075660706,-1.764871597290039,3.028104782104492,0.04619826376438141,0.8244917392730713,-0.5639849305152893,0.2355247586965561,0.32538002729415894,0.3256121873855591,0.7427297627741541,-0.4057246012789937,-0.23107375650777165,0.4799425231378448,-0.969303385154594,0.08173152784310313,1.1904323469265237
1773063459822617088,0.8372080326080322,-2.0863659381866455,-1.5081764459609985,2.984844207763672,0.062291719019412994,0.8309688568115234,-0.5528205633163452,0.0022834651172161102,0.18033790588378906,0.3123573064804077,0.7304957338972096,-0.4106800300614958,-0.23437500063417932,0.4927334726301268,-0.9808469374534912,0.112206529912647,1.2467943987113896
1773063459832654080,0.8472449779510498,-3.8010270595550537,-1.5732227563858032,2.7442004680633545,0.0781557485461235,0.8447919487953186,-0.5293564796447754,-0.0597231462597847,-0.1392865777015686,0.2866654396057129,0.7154160756551327,-0.420881805123978,-0.24120584462772035,0.5028499974945009,-1.0061762108473495,0.1465839662695082,1.3060781899510352
1773063459842690048,0.857280969619751,-5.073178291320801,-1.6407967805862427,2.589663028717041,0.09264153987169266,0.8656424283981323,-0.4920170307159424,0.07734136283397675,-0.5236777067184448,0.3212711811065674,0.6969666853725898,-0.4360435081662332,-0.25270049393547717,0.51014312393168,-1.0464321227812015,0.18611033393892606,1.3712573836925652
1773063459852726016,0.8673169612884521,-5.1713361740112305,-1.7018097639083862,2.6538612842559814,0.10779827833175659,0.8874625563621521,-0.4480956494808197,0.2678120732307434,-0.7238273620605469,0.5011657476425171,0.67652690671409,-0.45302740311718287,-0.26592921734020164,0.5160999276516107,-1.0918099888625705,0.23608367422531715,1.4472088642497627
1773063459862763008,0.8773539066314697,-4.2281670570373535,-2.155338764190674,2.8688228130340576,0.12448886781930923,0.904744029045105,-0.4073581099510193,0.43128201365470886,-0.6464433073997498,0.6159152984619141,0.655708900397666,-0.46781256233799684,-0.278338558953589,0.523187112034057,-1.1307783718136615,0.2965869715178615,1.535918692458528
1773063459872799232,0.88739013671875,-2.1774635314941406,-2.8290257453918457,3.068662166595459,0.14182882010936737,0.9135894179344177,-0.38110217452049255,0.5497757792472839,-0.3044586181640625,0.45564135909080505,0.6365750466567572,-0.4759438540242883,-0.28796937534360345,0.534156551444189,-1.1520254027189676,0.35627349235554656,1.6290913917194954
1773063459882836224,0.8974270820617676,-0.03849564865231514,-2.9562931060791016,3.1608104705810547,0.15933702886104584,0.9129507541656494,-0.37567615509033203,0.6017866134643555,0.06414580345153809,0.20825672149658203,0.6212442788856992,-0.47592082795207075,-0.2926794861287273,0.5494484757558563,-1.1504576236989552,0.4011369059210476,1.7104132629855473
1773063459892872192,0.9074630737304688,1.2695547342300415,-2.3811864852905273,3.1889595985412598,0.1780066043138504,0.9049779772758484,-0.38643065094947815,0.5018486976623535,0.2399195432662964,0.13267701864242554,0.6099937693665668,-0.47092374214309246,-0.2915741728856142,0.5666771670135826,-1.1313278911868911,0.43166937278225526,1.7738160612534533
1773063459902908928,0.9175000190734863,1.5940982103347778,-1.6888060569763184,3.19635009765625,0.19882157444953918,0.893025815486908,-0.4037015736103058,0.23655745387077332,0.27591949701309204,0.1862332820892334,0.6013385722886972,-0.4651872737339334,-0.28591960491360424,0.5833033124633924,-1.1040248819671294,0.45762676311530176,1.8252729215357801
1773063459912945152,0.9275360107421875,1.063265323638916,-1.3523807525634766,3.2104876041412354,0.2211914211511612,0.880567729473114,-0.41913577914237976,-0.0067291706800460815,0.1553971767425537,0.25881168246269226,0.592933481566506,-0.4611703814733607,-0.2788440304606898,0.5983291350080218,-1.077058824721133,0.4855864153008449,1.87366612699052
1773063459922981120,0.9375720024108887,-0.10760866850614548,-1.2985191345214844,3.290879249572754,0.24408365786075592,0.8708438277244568,-0.426677942276001,-0.06857703626155853,-0.14425086975097656,0.3894007205963135,0.5824270865300513,-0.4601579971146955,-0.27370723041766165,0.6116515096180375,-1.056916386190689,0.5196189398331647,1.9276727090286312
1773063459933017856,0.9476089477539062,-1.274437427520752,-1.2330988645553589,3.524038791656494,0.26828113198280334,0.8652089834213257,-0.4236019253730774,0.036070674657821655,-0.47987884283065796,0.5415828824043274,0.568471039329102,-0.4629775782716373,-0.27175504798598094,0.6234112588448599,-1.0455670519315496,0.5645692417082211,1.994127471869174
1773063459943054080,0.9576449394226074,-1.7376511096954346,-1.127355933189392,3.729508399963379,0.2948060929775238,0.8614155650138855,-0.4135849177837372,0.2000211477279663,-0.6945302486419678,0.6747391223907471,0.5517859850468635,-0.4685320707418595,-0.27145026618767726,0.634290638382206,-1.0380502498465483,0.6192694812398836,2.071230070783024
1773063459953091072,0.9676821231842041,-1.6597342491149902,-1.12269127368927,3.863379955291748,0.32306814193725586,0.8566974401473999,-0.40211495757102966,0.34705209732055664,-0.7075122594833374,0.7664185166358948,0.5339627738353203,-0.47485588592755473,-0.2710247488501507,0.6449350406524569,-1.0288326799631333,0.6768242778134359,2.1512074955454166
1773063459963127040,0.9777181148529053,-1.0784034729003906,-1.2804707288742065,3.9295735359191895,0.3516969382762909,0.8490638732910156,-0.3942078649997711,0.4252805709838867,-0.4488716125488281,0.761197030544281,0.5162516369259266,-0.4799222531073031,-0.26938948474766744,0.6561921968468883,-1.0142107309428352,0.7284673274203011,2.2258302988534506
1773063459973164032,0.9877550601959229,-0.3159785270690918,-1.2927533388137817,3.872422695159912,0.3796781599521637,0.8374050855636597,-0.3931886553764343,0.4493928551673889,-0.026537716388702393,0.6718446612358093,0.4998340746904932,-0.4825914291906503,-0.2655394237024755,0.6684013015788745,-0.9925182669302496,0.7679189510735064,2.288125334377488
1773063459983200000,0.997791051864624,0.03524554893374443,-0.9954347610473633,3.7154812812805176,0.406731516122818,0.8228409886360168,-0.3968653678894043,0.419867604970932,0.2969862222671509,0.5968928337097168,0.4851929284639726,-0.48394041804229004,-0.25955537631003267,0.6804560529475708,-0.9663924276405177,0.7976750339453134,2.3379659117631655
1773063459993235968,1.0078270435333252,-0.05769797042012215,-0.6269793510437012,3.575528860092163,0.433275431394577,0.8074639439582825,-0.4003429114818573,0.321729451417923,0.44683903455734253,0.5879955291748047,0.4716571001791916,-0.4858177777224613,-0.2526056693507443,0.6911665012245608,-0.9398404032374735,0.8248831271332747,2.381265254941202
1773063460003272960,1.0178639888763428,-0.4124531149864197,-0.3984124958515167,3.601598024368286,0.4599819779396057,0.7923370599746704,-0.40077269077301025,0.22554966807365417,0.43707895278930664,0.5962987542152405,0.45798073615691204,-0.48906763609069737,-0.24581801653417798,0.7004571053928068,-0.9146302532904259,0.8540775998498966,2.4240570832598993
1773063460013308928,1.027899980545044,-0.7153409719467163,-0.3230784237384796,3.775455951690674,0.4875997006893158,0.7771047949790955,-0.3979380130767822,0.21752417087554932,0.29989099502563477,0.6093180179595947,0.44310586430901694,-0.49360489782039035,-0.2395520832200592,0.7089613319207748,-0.8900524795551719,0.8863054078139058,2.469622797238143
1773063460023345920,1.0379369258880615,-0.8676684498786926,-0.3038160502910614,3.9276721477508545,0.5161515474319458,0.7608498930931091,-0.3933130204677582,0.2931441068649292,0.17039400339126587,0.6318536400794983,0.426926425191334,-0.498822567668575,-0.2334941877286155,0.7172101644134513,-0.8646217803770576,0.9196525636627427,2.5170457287919388
1773063460033381888,1.0479729175567627,-0.7677900791168213,-0.28547218441963196,3.8737094402313232,0.5445690751075745,0.7432604432106018,-0.38859811425209045,0.38141053915023804,0.1555432677268982,0.6419245004653931,0.4103039159084896,-0.5040314869624326,-0.22727342474972823,0.7252239790029297,-0.8379308714063075,0.9510088299748273,2.562683653593021
1773063460043419136,1.0580101013183594,-0.559428870677948,-0.16625817120075226,3.563605546951294,0.5711778402328491,0.7249249219894409,-0.38501930236816406,0.4108167886734009,0.26765936613082886,0.6198673248291016,0.39471056304048363,-0.5087181280776285,-0.22067218685680795,0.7326071953303781,-0.8109253641771468,0.9776792632198507,2.602160587400158
1773063460053455104,1.0680460929870605,-0.4563377797603607,0.056419841945171356,3.210956573486328,0.5952499508857727,0.707055926322937,-0.38177141547203064,0.3518783450126648,0.412023663520813,0.573269248008728,0.380869798861529,-0.5131574368777174,-0.21397133082566713,0.7387989911697544,-0.7853262745138418,1.0005166378326604,2.6349076655559376
1773063460063491072,1.0780820846557617,-0.44758501648902893,0.3692297041416168,3.0345458984375,0.6178709864616394,0.6898365020751953,-0.3773076832294464,0.24342656135559082,0.5408763885498047,0.5263098478317261,0.368354383310075,-0.5180866691159892,-0.20720124532275044,0.7436187992197445,-0.7612631522428339,1.0225771021608525,2.6634262383202643
1773063460073528064,1.0881190299987793,-0.3662486672401428,0.6264541745185852,2.9894027709960938,0.6403179168701172,0.6723961234092712,-0.3713169991970062,0.15553468465805054,0.5824103355407715,0.494058758020401,0.3565500908144291,-0.523791296401051,-0.19996043279970735,0.7473489429781562,-0.7374411890194112,1.0452912877201073,2.6893380328540903
1773063460083564032,1.0981550216674805,-0.39832937717437744,0.8349159955978394,2.9916768074035645,0.662936270236969,0.654185950756073,-0.36408287286758423,0.131039559841156,0.5054972767829895,0.49144798517227173,0.34506486716122275,-0.5301343257528407,-0.19213577880819213,0.7503144318585824,-0.7131058172670094,1.068569513103804,2.713329847407224
1773063460093601024,1.108191967010498,-0.5831258296966553,0.9474012851715088,2.927385091781616,0.6854099631309509,0.6358540654182434,-0.3548279404640198,0.16300922632217407,0.4369303584098816,0.5214844346046448,0.33341664369839075,-0.5371687404325852,-0.18448788366989893,0.7524941064054689,-0.6891146204854484,1.0930993250804484,2.737327741815105
1773063460103636992,1.1182279586791992,-0.7676394581794739,0.979885995388031,2.7453560829162598,0.7066798806190491,0.6183685064315796,-0.34383732080459595,0.2035069465637207,0.5002076029777527,0.5513873100280762,0.32171429689096126,-0.5445070416399324,-0.17774538327068326,0.7539354763334069,-0.6666650092308954,1.1179639571688822,2.7615457119360323
1773063460113673984,1.1282649040222168,-0.923650324344635,1.0920119285583496,2.544191598892212,0.7263731360435486,0.6022224426269531,-0.3312256336212158,0.2003694772720337,0.6176415085792542,0.5385620594024658,0.3102668604667704,-0.5520740902529913,-0.1720505300233411,0.7545511428586619,-0.6462820594744096,1.1429645995012516,2.7855720810390663
1773063460123710208,1.138301134109497,-0.9513988494873047,1.2491730451583862,2.3588435649871826,0.7448218464851379,0.5872071981430054,-0.3169041574001312,0.13271111249923706,0.6865812540054321,0.47284895181655884,0.2993212527300693,-0.5600472381583577,-0.16701801823290294,0.7542273919462912,-0.6276042169744587,1.1685222044316064,2.808791161736139
1773063460133747200,1.1483380794525146,-0.8124108910560608,1.3883577585220337,2.2062292098999023,0.7621962428092957,0.5727204084396362,-0.3017418682575226,0.02062535285949707,0.700900137424469,0.39077696204185486,0.28928403237369044,-0.5682402128825809,-0.16196333566313886,0.7531172881562341,-0.6098206128351868,1.1938425966598178,2.8295560296461324
1773063460143783168,1.1583740711212158,-0.6165153980255127,1.4794453382492065,2.1263368129730225,0.7787328362464905,0.5581148266792297,-0.2865014970302582,-0.08888298273086548,0.6870176792144775,0.3082452416419983,0.2801898187378886,-0.5764406226330288,-0.1564143931122738,0.7514948288110103,-0.592112090148497,1.218258377454005,2.8471597250603615
1773063460153819136,1.168410062789917,-0.36486390233039856,1.494926929473877,2.0695648193359375,0.7945113182067871,0.5429207682609558,-0.2720087766647339,-0.1544051170349121,0.7109702229499817,0.2077387571334839,0.2719994169942998,-0.5843542273109072,-0.15008580358493384,0.749680415696331,-0.5739112447800512,1.2409440302940968,2.8611717447849663
1773063460163856128,1.1784470081329346,-0.12338230758905411,1.479835867881775,2.0167789459228516,0.8094637989997864,0.527099609375,-0.2587165832519531,-0.18408238887786865,0.7797393202781677,0.09810259938240051,0.26470359152023093,-0.5917841118514628,-0.1429449989429319,0.7478571248449948,-0.5551839511662578,1.2614428770095163,2.8715114811004923
1773063460173892096,1.1884829998016357,-0.024889491498470306,1.4625188112258911,1.9455071687698364,0.8235363364219666,0.5109978318214417,-0.24631094932556152,-0.20756959915161133,0.8368109464645386,-0.00014898180961608887,0.25809448434119997,-0.5987739949234018,-0.13533007807479294,0.7460178703944583,-0.5363452384600842,1.2801751924995919,2.8791358881992037
1773063460183929088,1.1985199451446533,-0.08674061298370361,1.413126826286316,1.8304219245910645,0.8365570306777954,0.4953603744506836,-0.23407356441020966,-0.2439819574356079,0.8585519790649414,-0.07806020975112915,0.2518405395559982,-0.6054692625792226,-0.1279460325642608,0.74405184108983,-0.5182496310724524,1.297967651324098,2.885750785146996
1773063460193965056,1.2085559368133545,-0.30146175622940063,1.3359174728393555,1.6855863332748413,0.8483131527900696,0.480929970741272,-0.22152069211006165,-0.29057377576828003,0.8422970771789551,-0.15637847781181335,0.24556916295999945,-0.6119324527750666,-0.12156613379041457,0.7419274240725664,-0.5017151032395264,1.3153693561216455,2.893128862126958
1773063460204002048,1.2185931205749512,-0.4711091220378876,1.273128867149353,1.5458987951278687,0.8588281273841858,0.4679466784000397,-0.2084231972694397,-0.3415399193763733,0.8128761053085327,-0.2042202353477478,0.23910406358759478,-0.6182405126816933,-0.11647775409910781,0.7396221515929728,-0.486965958832418,1.3327157869808333,2.9020592197059996
1773063460214038016,1.2286291122436523,-0.5153181552886963,1.2506322860717773,1.450118064880371,0.8683072924613953,0.4559914767742157,-0.19522905349731445,-0.38988322019577026,0.7954733967781067,-0.20194196701049805,0.2327462223440614,-0.6243443539611634,-0.11215880641032519,0.7371864123917317,-0.4734859342976353,1.349635437745658,2.9113539401758306
1773063460224074240,1.2386651039123535,-0.46667391061782837,1.2467299699783325,1.3882877826690674,0.8770919442176819,0.4445187747478485,-0.18196946382522583,-0.4222732186317444,0.8107150197029114,-0.17078322172164917,0.22661004402221968,-0.6303389619681402,-0.10811132112401674,0.7345969388549942,-0.4606369650020795,1.3662293649837747,2.9202688532840226
1773063460234110976,1.248702049255371,-0.20681048929691315,1.1903417110443115,1.321819543838501,0.8852259516716003,0.43312373757362366,-0.16964328289031982,-0.42491406202316284,0.8981598615646362,-0.16450893878936768,0.22116811137705153,-0.6359445929561495,-0.10369587208923672,0.732056215226327,-0.4479555912224618,1.381453543977634,2.927015156298907
1773063460244146944,1.2587380409240723,0.1388595700263977,1.119074821472168,1.2731246948242188,0.8926944732666016,0.42161795496940613,-0.15916982293128967,-0.412164568901062,0.9887977838516235,-0.2091010957956314,0.21687556287281212,-0.6408823141894446,-0.09841214487559553,0.729760232337538,-0.4352288909470873,1.3943479253591395,2.9300508270216326
1773063460254183936,1.2687749862670898,0.4953303337097168,1.0621885061264038,1.1840882301330566,0.8995417952537537,0.41001036763191223,-0.15071795880794525,-0.40785789489746094,1.0123682022094727,-0.27835917472839355,0.21392086544423228,-0.645107706492979,-0.09207099301544466,0.7277339987319051,-0.422465444464451,1.4047886068169482,2.9288663108300477
1773063460264219904,1.278810977935791,0.7141886353492737,1.0373386144638062,0.9887597560882568,0.9055326581001282,0.39919978380203247,-0.14370137453079224,-0.42657458782196045,0.9758917093276978,-0.33624857664108276,0.21239867410629604,-0.6487664594685981,-0.08515511269458627,0.7257667917316797,-0.41064389788742006,1.4134160392921629,2.924134061609278
1773063460274256896,1.2888479232788086,0.8466776609420776,1.0103888511657715,0.7272912263870239,0.9103729128837585,0.390290230512619,-0.13745731115341187,-0.4659302830696106,0.9267568588256836,-0.35074764490127563,0.2122469034461162,-0.652012144575777,-0.07843155222388257,0.7236572617145501,-0.4009468150271198,1.4209381975737974,2.917150625888746
1773063460284292864,1.2988839149475098,0.9608026146888733,0.9958682656288147,0.542595386505127,0.9141685366630554,0.3833146393299103,-0.13177867233753204,-0.5032036900520325,0.9130567312240601,-0.35056692361831665,0.21330681337368865,-0.65492209239706,-0.07202578869068949,0.7213802322941166,-0.39338240288162524,1.4276311248603393,2.9084289772677527
1773063460294328832,1.308919906616211,1.1387492418289185,0.9466948509216309,0.4510436952114105,0.9173209071159363,0.37742170691490173,-0.12678782641887665,-0.5023276805877686,0.9064985513687134,-0.36605578660964966,0.2152901283971807,-0.6574990419872077,-0.0655827733710944,0.7190577301959711,-0.3870105021010054,1.4334511650596329,2.897979739603513
1773063460304366080,1.3189570903778076,1.3900089263916016,0.851189374923706,0.37268632650375366,0.9199990630149841,0.3720458745956421,-0.12322241812944412,-0.44633567333221436,0.8986298441886902,-0.389793336391449,0.21825864904851006,-0.6595024579571386,-0.05869666427372911,0.7169201465730543,-0.38121214554790817,1.4376511840096267,2.885045929480684
1773063460314402048,1.3289930820465088,1.6242860555648804,0.7417593002319336,0.29246658086776733,0.9222122430801392,0.36712196469306946,-0.12143432348966599,-0.3633742332458496,0.8981521129608154,-0.4234417676925659,0.22227731146614446,-0.6607960095533775,-0.05129785875554283,0.7150595098182487,-0.37591303715972585,1.4398723501637007,2.869381356412863
1773063460324439040,1.3390300273895264,1.8845146894454956,0.6359279155731201,0.19823835790157318,0.9239538311958313,0.36270415782928467,-0.12147078663110733,-0.2986791729927063,0.8943606615066528,-0.4746595621109009,0.22737395607262997,-0.6613465612193736,-0.04342043616792413,0.7134679684033547,-0.37116800567006164,1.4400775422427707,2.850992372026668
1773063460334475008,1.3490660190582275,2.107483386993408,0.5433449149131775,0.07689341902732849,0.9251751899719238,0.3589731454849243,-0.12324479222297668,-0.26472902297973633,0.8642629384994507,-0.5196232199668884,0.23363143349229554,-0.6611681245400283,-0.03513282458826941,0.7120665991033467,-0.3671674653013224,1.438363637386921,2.829860760348699
1773063460344512000,1.3591029644012451,2.2511870861053467,0.4565511643886566,-0.06952531635761261,0.925812304019928,0.3562052249908447,-0.12644989788532257,-0.2554174065589905,0.8055684566497803,-0.5303646922111511,0.24093943457700495,-0.6603488117225649,-0.02673007194527921,0.7107553923744552,-0.3642035775187001,1.4350536007467871,2.8066026891113265
1773063460354547968,1.3691389560699463,2.3366029262542725,0.3729574978351593,-0.22717410326004028,0.9258198142051697,0.3546167016029358,-0.13078533113002777,-0.24469798803329468,0.7502264380455017,-0.507611870765686,0.24912354631068181,-0.6589873627230949,-0.018519897328820836,0.7094576748463536,-0.3625040984532301,1.4304605495150546,2.7819401778628636
1773063460364585216,1.379176139831543,2.372673273086548,0.29572397470474243,-0.3727757930755615,0.9251984357833862,0.35424843430519104,-0.136073499917984,-0.22239387035369873,0.7092128992080688,-0.4644361734390259,0.25800146772892063,-0.6571519879986844,-0.010701231148354095,0.7081468974618532,-0.36211026968333027,1.4247682990098232,2.7564351002427667
1773063460374621184,1.3892121315002441,2.3593037128448486,0.21120908856391907,-0.5258491635322571,0.9239519834518433,0.35510575771331787,-0.14217203855514526,-0.1871964931488037,0.6652495265007019,-0.40950947999954224,0.2674077787162054,-0.6549062522212752,-0.0034321131345026066,0.7068091874708586,-0.3630271880572587,1.4181199461063239,2.730558294685595
1773063460384657152,1.3992481231689453,2.285437822341919,0.12814882397651672,-0.6662001013755798,0.9220564961433411,0.3572605848312378,-0.1489180326461792,-0.14602506160736084,0.6154414415359497,-0.3642350435256958,0.27715964882413113,-0.6523277793028215,0.003074197356984157,0.7054370926022656,-0.3653332493302413,1.4106726039476885,2.7048814015714964
1773063460394694144,1.409285068511963,2.1586737632751465,0.0519992932677269,-0.7867581844329834,0.9195685982704163,0.3605911433696747,-0.15610124170780182,-0.10110247135162354,0.5660903453826904,-0.3348045349121094,0.28700780771883494,-0.6495181169980961,0.008694340946212294,0.7040434331805614,-0.3689016093226048,1.4026444270455916,2.679982557199859
1773063460404730112,1.419321060180664,1.9946634769439697,-0.020519914105534554,-0.9061719179153442,0.916512131690979,0.36505478620529175,-0.16352516412734985,-0.058388352394104004,0.5210993885993958,-0.30816978216171265,0.29675874008173014,-0.6465758711610834,0.013306534264675766,0.7026356221234875,-0.37369165593557424,1.3942331006514808,2.656349285334394
1773063460414767104,1.4293580055236816,1.8282201290130615,-0.10113748908042908,-1.0158796310424805,0.9128457307815552,0.37071049213409424,-0.1711326390504837,-0.02478426694869995,0.4782885015010834,-0.2772926688194275,0.30634698976659097,-0.6435455296556287,0.016817668675595487,0.701225937203786,-0.37977391266061394,1.3854758260351157,2.6341952183655684
1773063460424803072,1.4393939971923828,1.6818454265594482,-0.1535106897354126,-1.1083978414535522,0.9086117148399353,0.37736910581588745,-0.1789339780807495,-0.009487569332122803,0.43174341320991516,-0.237493634223938,0.3157595186325222,-0.6404363551166449,0.01934656353316765,0.6998306655933821,-0.3869537092805266,1.37635329778601,2.6133674983643442
1773063460434840064,1.4494309425354004,1.5491654872894287,-0.17376895248889923,-1.1907341480255127,0.9038969278335571,0.3848915100097656,-0.18662506341934204,-0.002651810646057129,0.3783073425292969,-0.19763702154159546,0.3249963768816064,-0.6373731150321081,0.021047092578642162,0.698347971137848,-0.39509028221383957,1.3671901073971058,2.5937130786607936
1773063460444876032,1.4594669342041016,1.4750851392745972,-0.17379024624824524,-1.2533073425292969,0.8987765312194824,0.39309194684028625,-0.19411174952983856,0.0035976767539978027,0.32184332609176636,-0.15693192183971405,0.3341200937385138,-0.6343929739402159,0.022128627366887102,0.696720607314315,-0.4039918187127547,1.3580900363425594,2.574867731147656
1773063460454912000,1.4695029258728027,1.423156976699829,-0.17147740721702576,-1.288297414779663,0.8933449983596802,0.4016890823841095,-0.20144633948802948,0.016002535820007324,0.273771733045578,-0.11460894346237183,0.3431838740877115,-0.6314709725363418,0.022830749592605143,0.6949446304568653,-0.4133605434706225,1.3490091867392988,2.5564217868613395
1773063460464949248,1.4795401096343994,1.3819698095321655,-0.24041599035263062,-1.2885011434555054,0.8876505494117737,0.4103904664516449,-0.20894066989421844,0.03843587636947632,0.22831189632415771,-0.07780247926712036,0.3521610741858472,-0.6284807547257252,0.02327243846186581,0.6931471110547692,-0.4228822084355123,1.339618427475128,2.5382027902314057
1773063460474985216,1.4895761013031006,1.4600390195846558,-0.33477383852005005,-1.185981035232544,0.8818410038948059,0.4184383153915405,-0.2174072265625,0.06902569532394409,0.19372907280921936,-0.0650787353515625,0.3609747495633983,-0.6250861741543594,0.02374149568754758,0.6916653064178248,-0.4317251819094389,1.3290787514925866,2.5198248724372685
1773063460485021952,1.4996130466461182,1.519558310508728,-0.4486689865589142,-1.0695817470550537,0.8761945962905884,0.425054669380188,-0.227182075381279,0.0938066840171814,0.13356968760490417,-0.0730498731136322,0.3696229914281226,-0.6211272683040405,0.024695693259162852,0.69063014340932,-0.4390222686834554,1.3171002967569574,2.5006808763586754
1773063460495058176,1.5096490383148193,1.4212828874588013,-0.5577208399772644,-1.0059365034103394,0.8705461025238037,0.43069779872894287,-0.23801006376743317,0.09304636716842651,0.03226909041404724,-0.07131610810756683,0.37788455767427465,-0.6167148614881167,0.025646540585276205,0.6900784197756845,-0.4452658198144624,1.3039152743314286,2.4818204017024925
1773063460505094912,1.519685983657837,1.191206455230713,-0.5314780473709106,-0.9492305517196655,0.8649097681045532,0.43607470393180847,-0.24853582680225372,0.03412282466888428,-0.045632779598236084,-0.02715998888015747,0.3854085157159944,-0.612414566192957,0.02608619190672324,0.6897305572787769,-0.4512321511218932,1.290980786362536,2.4648043805053015
1773063460515130880,1.529721975326538,0.9304081201553345,-0.4310031533241272,-0.8496893644332886,0.8596829175949097,0.441223680973053,-0.2574235200881958,-0.06999480724334717,-0.09857231378555298,0.0476304292678833,0.39186343795398193,-0.6087778331128858,0.02603444741509268,0.6893147137855714,-0.45696182054840484,1.27985331119089,2.4505718205976623
1773063460525167104,1.5397579669952393,0.6843717098236084,-0.30113571882247925,-0.7224312424659729,0.8552191853523254,0.4458957016468048,-0.2641541063785553,-0.16210395097732544,-0.14866968989372253,0.12183541059494019,0.39707569751327776,-0.6060225943952569,0.025681903231103257,0.6887728720908325,-0.46217469022229457,1.2712191743445937,2.439417312024386
1773063460535203840,1.5497949123382568,0.5460500717163086,-0.18986456096172333,-0.5969921350479126,0.851591944694519,0.4499305188655853,-0.2689864933490753,-0.20596206188201904,-0.18650278449058533,0.17346644401550293,0.40124129031722505,-0.6040424126573377,0.025288748161782365,0.6881124179664266,-0.4666875276432028,1.2648504935332439,2.4306766217339777
1773063460545239808,1.559830904006958,0.5084430575370789,-0.126301571726799,-0.4402448534965515,0.8487869501113892,0.453007310628891,-0.2726632356643677,-0.2085433006286621,-0.18452885746955872,0.2089119851589203,0.40464990935884393,-0.6025234733581507,0.025176183019466215,0.6874519496611511,-0.4701357432221227,1.259970114947081,2.4233113913008633
1773063460555277056,1.5698680877685547,0.5862633585929871,-0.11166267842054367,-0.22954845428466797,0.846889317035675,0.4544462263584137,-0.27614662051200867,-0.18812167644500732,-0.14269396662712097,0.22292402386665344,0.4074819877486693,-0.6010518916490145,0.025754772503632922,0.6870455845286114,-0.4717504468416767,1.255595423658822,2.4163323686298357
1773063460565313024,1.5799040794372559,0.8255928754806519,-0.09045033156871796,-0.020825592800974846,0.8460317254066467,0.453561395406723,-0.28020039200782776,-0.1612173318862915,-0.1053558886051178,0.20283833146095276,0.41002206787155504,-0.599282817833295,0.02756654235568263,0.6870094714763542,-0.47075737732511963,1.2509726741399956,2.4084448124510485
1773063460575350016,1.5899410247802734,1.099254846572876,-0.05619841441512108,0.12548598647117615,0.8460555672645569,0.4503668248653412,-0.28523603081703186,-0.15385591983795166,-0.12872686982154846,0.18272754549980164,0.4127453120420514,-0.5970154381332268,0.03089576700175673,0.6872111841020232,-0.4671761336853099,1.245627013354576,2.398337011270235
1773063460585385984,1.5999770164489746,1.3286066055297852,0.021256960928440094,0.2614651322364807,0.8468536138534546,0.4452373683452606,-0.290865033864975,-0.16850894689559937,-0.194810152053833,0.15326127409934998,0.4157373221737741,-0.5943890164523598,0.03562561185623186,0.6874553562143766,-0.46143932863356507,1.2399546818002702,2.386076192371356
1773063460595422976,1.6100139617919922,1.3680022954940796,0.08857551217079163,0.4189673662185669,0.8485100865364075,0.43834152817726135,-0.29645827412605286,-0.18742293119430542,-0.2509177625179291,0.13088509440422058,0.41861155915839277,-0.5916530780544853,0.041442748698820954,0.6877453042017119,-0.4537526466863466,1.2346678439826255,2.372919433366786
1773063460605458944,1.6200499534606934,1.1939847469329834,0.1956268697977066,0.5723696947097778,0.8510913252830505,0.4302371144294739,-0.300898015499115,-0.19777101278305054,-0.304031640291214,0.18020099401474,0.42069276416196244,-0.589303906515135,0.04766437386219592,0.6880891297370556,-0.44475541640449817,1.23096798368608,2.3611807903914994
1773063460615494912,1.6300859451293945,0.9158807992935181,0.2850562632083893,0.6919685006141663,0.8545204997062683,0.4216327667236328,-0.30334892868995667,-0.1997353434562683,-0.3437671959400177,0.27551692724227905,0.421573284774251,-0.5877441254517276,0.05368776497612535,0.6884406049410996,-0.43524521667480254,1.229680199627787,2.352468213216379
1773063460625532160,1.6401231288909912,0.6873136758804321,0.3525710999965668,0.7978467345237732,0.8586155772209167,0.41279157996177673,-0.30394479632377625,-0.20056504011154175,-0.35367900133132935,0.33162420988082886,0.4212578484104737,-0.5869488984772544,0.05931777708494828,0.6888499237025669,-0.4255168178767796,1.230567792834494,2.3469144788817737
1773063460635568128,1.6501591205596924,0.6437103748321533,0.3968782126903534,0.8439928889274597,0.863132655620575,0.40368953347206116,-0.3033756911754608,-0.21028536558151245,-0.33539122343063354,0.3612827658653259,0.4202128778439457,-0.5866128306400862,0.06478848174947693,0.6892814848045573,-0.41554600646715534,1.2328017533091529,2.3431677613052053
1773063460645605120,1.66019606590271,0.7406105995178223,0.4323384463787079,0.8809450268745422,0.8678319454193115,0.3941219747066498,-0.3025483787059784,-0.2183569073677063,-0.30383574962615967,0.3028688132762909,0.4191246237260578,-0.5862978248982559,0.07057391542440733,0.6896438800793687,-0.40511229965964013,1.2353465099864558,2.3391591718257945
1773063460655641088,1.6702320575714111,0.9686989188194275,0.49713754653930664,0.9806275963783264,0.8728624582290649,0.38343098759651184,-0.30181387066841125,-0.234480619430542,-0.2571493089199066,0.21393850445747375,0.41823110279623615,-0.5857735725272767,0.07721653502922832,0.6899199680426799,-0.39350837414949075,1.2378905461666907,2.333748869691483
1773063460665678080,1.6802690029144287,1.0690704584121704,0.5227997899055481,1.0585874319076538,0.8782910108566284,0.3713076412677765,-0.30122342705726624,-0.24566161632537842,-0.2248232662677765,0.18490564823150635,0.41752944692677624,-0.5849631656518127,0.08489042683540146,0.6901310469633416,-0.3804169627907176,1.2404021053241665,2.3267257913507287
1773063460675715328,1.6903064250946045,0.9541374444961548,0.5271753072738647,1.1273144483566284,0.8838676810264587,0.35857000946998596,-0.3003421127796173,-0.23617786169052124,-0.25563424825668335,0.2099338173866272,0.4165020097192605,-0.5841510351306636,0.09271735277949844,0.6904325268678835,-0.36673558570164283,1.2432331669140264,2.32013385396954
1773063460685751552,1.7003424167633057,0.728483259677887,0.5316651463508606,1.2266026735305786,0.8896057605743408,0.34555312991142273,-0.29865437746047974,-0.20518815517425537,-0.2991969883441925,0.2660768926143646,0.4146684730875899,-0.5836355383214747,0.10021161298928466,0.6909248460046975,-0.3528281595435406,1.2469034252841336,2.315516715287586
1773063460695788288,1.7103793621063232,0.37765681743621826,0.5886838436126709,1.283338189125061,0.8955627083778381,0.3326120972633362,-0.2955279052257538,-0.16236263513565063,-0.3538523018360138,0.30721616744995117,0.4116407727073296,-0.583770702320242,0.1069944609899854,0.6916038444344399,-0.33907201328263215,1.2520566031200169,2.3141207514321183
1773063460705824256,1.7204153537750244,0.10405483841896057,0.6162187457084656,1.2899357080459595,0.9015569090843201,0.32034486532211304,-0.2908167243003845,-0.12511342763900757,-0.40373411774635315,0.3496546149253845,0.4075195819300104,-0.5846931196339928,0.11280778084607285,0.6923410911761156,-0.32609351726864927,1.2587623298247537,2.316027631784767
1773063460715861248,1.730452299118042,0.06923174113035202,0.612429678440094,1.3142377138137817,0.9074391722679138,0.30836981534957886,-0.28541600704193115,-0.10299581289291382,-0.37244147062301636,0.35040318965911865,0.4028339366204753,-0.5859561967425659,0.11809879706845808,0.6931326679370626,-0.3134788550728171,1.2660639590768643,2.319554122421329
1773063460725897216,1.7404882907867432,0.295713871717453,0.5802507400512695,1.3495928049087524,0.9131669998168945,0.295725017786026,-0.28048646450042725,-0.0781145691871643,-0.2644903063774109,0.29862919449806213,0.3983462702700475,-0.5868794360167536,0.12381153850471674,0.6939476944514205,-0.3002143806090696,1.2727856518187242,2.32198540432996
1773063460735934464,1.7505254745483398,0.6035329103469849,0.5623262524604797,1.3134509325027466,0.918639600276947,0.28214797377586365,-0.27657511830329895,-0.05392402410507202,-0.15098345279693604,0.21851545572280884,0.39466421488139075,-0.5871017568370671,0.13047590034928644,0.6946421672600287,-0.28603232440233195,1.2783578654606058,2.321491775521777
1773063460745970432,1.760561466217041,0.7416819930076599,0.5946985483169556,1.2172993421554565,0.923734188079834,0.26854872703552246,-0.27312442660331726,-0.054257750511169434,-0.09188243746757507,0.17794010043144226,0.3918650277678829,-0.5869152083278395,0.13772553117068856,0.6949849984355204,-0.27188610334274343,1.2833127948865517,2.318454359301018
1773063460756007424,1.7705984115600586,0.6691973209381104,0.6160568594932556,1.137197732925415,0.9284675121307373,0.25568756461143494,-0.26939207315444946,-0.054505109786987305,-0.06985074281692505,0.18215757608413696,0.3894749367186118,-0.5867813665716175,0.14488473816735536,0.6949858989211002,-0.25855884870248524,1.2884032925340254,2.3146708745583857
1773063460766043392,1.7806344032287598,0.500217080116272,0.6158959865570068,1.127052903175354,0.9329519867897034,0.2435997575521469,-0.265065997838974,-0.02786153554916382,-0.08783794939517975,0.220418781042099,0.3867918471214239,-0.5869708534599267,0.15143386568942893,0.6949282053034758,-0.24607569097598145,1.2939755261305104,2.312115514321212
1773063460776079360,1.790670394897461,0.41851842403411865,0.602434515953064,1.1449230909347534,0.9372756481170654,0.23170223832130432,-0.2604391276836395,0.03049778938293457,-0.14614620804786682,0.2652609348297119,0.3837042773359682,-0.5873258450472553,0.15757152898143148,0.6949752933711194,-0.23382717726765528,1.2997654993833085,2.3107214205835187
1773063460786116352,1.8007073402404785,0.3929491639137268,0.5929954648017883,1.162468433380127,0.9414348006248474,0.21979738771915436,-0.25571408867836,0.10116773843765259,-0.20601868629455566,0.2645642161369324,0.38037923025424014,-0.5877140644036665,0.16350881386196706,0.6951033738389558,-0.22160677724834743,1.3055736195159058,2.3099006220732545
1773063460796152320,1.8107433319091797,0.4203881025314331,0.594936728477478,1.1452839374542236,0.9454361200332642,0.2077837884426117,-0.2509510815143585,0.14271390438079834,-0.2182055413722992,0.2443593144416809,0.3770337340508789,-0.5880493442791742,0.16947690631695791,0.6952129931636754,-0.20930874929228555,1.3113449150382102,2.3089633650387333
1773063460806189312,1.8207802772521973,0.3150571584701538,0.5991021394729614,1.0457932949066162,0.9491404294967651,0.19641278684139252,-0.2460782527923584,0.13957417011260986,-0.20854350924491882,0.2219235897064209,0.3738211121756153,-0.5884553935015995,0.1751602829586262,0.6951955961474682,-0.19769809335075525,1.3171174839637896,2.308037215455851
1773063460816225536,1.8308165073394775,0.1260773241519928,0.6686758399009705,0.9486135244369507,0.9525928497314453,0.18641482293605804,-0.24045071005821228,0.11738395690917969,-0.22358521819114685,0.19555938243865967,0.3704343828904596,-0.5893759801899192,0.18002944360704057,0.6949847583212123,-0.18751172506441854,1.3235440576493758,2.3084105945495668
1773063460826262528,1.8408534526824951,0.35114291310310364,0.8644599914550781,0.8183074593544006,0.9559919238090515,0.1774158477783203,-0.2336728572845459,0.08683943748474121,-0.2462940365076065,0.1929624229669571,0.3671123713045272,-0.5908254554883228,0.18463165831991646,0.6943089550533034,-0.17836001090607068,1.3310670911550961,2.308992949932197
1773063460836298496,1.8508894443511963,-0.15403702855110168,0.7631939053535461,0.41705965995788574,0.9590229392051697,0.17110469937324524,-0.22582818567752838,0.08452564477920532,-0.26277947425842285,0.1700420379638672,0.36480929097769715,-0.5928500026914054,0.1887187908478035,0.6926964468182776,-0.17195080187845846,1.3395320372155586,2.308400293106455
1773063460846335488,1.8609263896942139,-0.42924806475639343,0.7015624642372131,0.9209630489349365,0.9616720676422119,0.16606080532073975,-0.2181985080242157,0.12009972333908081,-0.14041081070899963,0.22041107714176178,0.3608559507737355,-0.5954807718119225,0.19053449359039715,0.6920131674516129,-0.16683365350775878,1.3476790016998126,2.3135921968706366
1773063460856371456,1.870962381362915,-0.29236334562301636,0.5968606472015381,1.3071714639663696,0.9649567604064941,0.15546606481075287,-0.21139666438102722,0.2249692678451538,0.18926048278808594,0.289430171251297,0.3551942978594946,-0.5971939125391339,0.19406467010987102,0.6924848256493112,-0.15609923879796028,1.3551297117687484,2.3194148836395545
1773063460866407424,1.8809983730316162,-0.5660873055458069,0.6988719701766968,1.124087929725647,0.9681112170219421,0.1444581001996994,-0.20467664301395416,0.34211522340774536,-0.1040375679731369,0.13155651092529297,0.348982077833018,-0.5989362056659054,0.1973248635518273,0.693216994461298,-0.14496531175231853,1.3624459118681602,2.3264184245609525
1773063460876444416,1.8910353183746338,-0.7313206791877747,0.856163501739502,0.8678050637245178,0.9710631370544434,0.13614410161972046,-0.1962168961763382,0.25855106115341187,-0.621510922908783,0.1918071061372757,0.34282167335960295,-0.6017746684927392,0.19939609621354007,0.6932400051533636,-0.13656821998666238,1.3714169564933412,2.334873426097722
1773063460886480384,1.901071310043335,-0.6346327662467957,1.0057129859924316,0.7659561634063721,0.9739439487457275,0.12952984869480133,-0.1861589550971985,0.10430306196212769,-0.7586802244186401,0.254899799823761,0.33688885967271837,-0.6054111367522967,0.20099222583621626,0.6925210345466828,-0.1298948171969568,1.3819350147526364,2.3435327691682524
1773063460896517632,1.9111084938049316,-0.6386699676513672,1.1201610565185547,0.7383451461791992,0.9769384264945984,0.1232171282172203,-0.1743813306093216,0.09264165163040161,-0.655123233795166,0.2793770432472229,0.33136759559193696,-0.6095359066589413,0.20316326968280735,0.690931401853244,-0.12353106969538058,1.3941588591660734,2.3506831899628646
1773063460906553600,1.9211444854736328,-0.7487599849700928,0.9271200299263,0.5224301218986511,0.979365348815918,0.11810526251792908,-0.16399553418159485,0.22671979665756226,-0.5003379583358765,0.30027174949645996,0.325939509675427,-0.6134188625444573,0.20425359027347867,0.6897543990933428,-0.11838157180812227,1.4048847773255142,2.3589468900604165
1773063460916590336,1.9311814308166504,-0.6644895076751709,0.6162079572677612,0.5534226298332214,0.981207013130188,0.11424235254526138,-0.15550413727760315,0.457239031791687,-0.3451077938079834,0.40948665142059326,0.3212629199610625,-0.6167231281915484,0.20469615479190637,0.6888702817375514,-0.11449232335456949,1.413621045336565,2.3666439149919056
1773063460926626560,1.9412174224853516,-0.4081823527812958,0.6294071078300476,0.6755727529525757,0.9828670620918274,0.10884135216474533,-0.14874833822250366,0.6338321566581726,-0.16159096360206604,0.34671586751937866,0.3166119422300425,-0.6191390099582985,0.20565193648174332,0.6885718250121583,-0.10905740128389478,1.4205948989014192,2.3734481097955733
1773063460936663296,1.9512543678283691,0.3139815032482147,0.8838035464286804,0.25109654664993286,0.9844975471496582,0.10415280610322952,-0.14112678170204163,0.6512141227722168,-0.17177975177764893,0.25001347064971924,0.31397366714200564,-0.6213698258093779,0.20817335993935687,0.6870108663921125,-0.1043420350880134,1.4284172415219945,2.374721281732541
1773063460946699264,1.9612903594970703,0.6935834288597107,1.1833899021148682,0.0791839137673378,0.9860174059867859,0.10222306102514267,-0.13160574436187744,0.47578978538513184,-0.26289814710617065,0.19717277586460114,0.3142517841213177,-0.6238723698452945,0.21208580915186442,0.6834095825557404,-0.10240193528570715,1.4381085155126871,2.3692574163641815
1773063460956735488,1.9713263511657715,0.43284305930137634,1.1751209497451782,0.4166177809238434,0.9877844452857971,0.09912778437137604,-0.1202310174703598,0.3017815351486206,-0.34909728169441223,0.3493722677230835,0.3140257139033214,-0.6268087161847278,0.21678405432011982,0.679340374401327,-0.0992908535273406,1.44967427019828,2.3635564853747235
1773063460966772224,1.981363296508789,-0.4835437536239624,0.9096806645393372,0.5070909857749939,0.9894858598709106,0.09418140351772308,-0.10976236313581467,0.4074258804321289,-0.4079478681087494,0.37639445066452026,0.31122486233797175,-0.6298355714433205,0.2200590180487858,0.6767720176936513,-0.09432119910410044,1.4603193124407028,2.3639846502340567
1773063460976808192,1.9913992881774902,-1.6137328147888184,0.6175143122673035,0.41431742906570435,0.9907048344612122,0.09090200811624527,-0.10119727998971939,0.5571772456169128,-0.5406242609024048,0.11630350351333618,0.30544307772536233,-0.6336026453325652,0.2189727078492624,0.6762419879449744,-0.09102766323688793,1.4690026296726104,2.375310696628366
1773063460986845440,2.001436471939087,-1.839053988456726,0.32103413343429565,0.6712659001350403,0.991629421710968,0.08746495097875595,-0.09497927129268646,0.4328548312187195,-0.6423355340957642,-0.17955684661865234,0.2974645577684765,-0.6373137345832439,0.2152709218383502,0.6774987109475492,-0.08757685753719814,1.4753066116929339,2.3937479589619
1773063460996881408,2.011472463607788,-1.2987021207809448,0.12717756628990173,0.899441123008728,0.9925181269645691,0.08093320578336716,-0.09141936898231506,0.16501355171203613,-0.5174108743667603,-0.47513943910598755,0.2893412984947313,-0.6395628984016682,0.2127195664106757,0.6796993719442425,-0.0810218236265534,1.4789469753287416,2.4105913463951323
1773063461006918400,2.0215094089508057,-1.3251396417617798,-0.17360356450080872,0.6057103872299194,0.993076741695404,0.07432533800601959,-0.09096316248178482,-0.05931520462036133,-0.3834226131439209,-0.6884862780570984,0.28287789694690113,-0.6403049834449921,0.2110164619182362,0.6822475273727057,-0.07439393818729115,1.4794539028525127,2.423386010253718
1773063461016954368,2.031545400619507,-1.5509600639343262,-0.25846827030181885,0.7299901843070984,0.9933261871337891,0.06949204206466675,-0.09205509722232819,-0.1933382749557495,-0.26051679253578186,-0.608048677444458,0.2762509658291896,-0.640974364966143,0.20766395079092248,0.6853561602251628,-0.0695480919912074,1.4783866941125792,2.438686427405289
1773063461026991360,2.0415823459625244,-1.752956509590149,-0.33216941356658936,1.0105146169662476,0.9936497211456299,0.06211896613240242,-0.09381695836782455,-0.23432660102844238,-0.011124078184366226,-0.38994765281677246,0.26818213388330914,-0.6413097289118073,0.2044831316112244,0.6891929273078725,-0.06215898699742609,1.4766588599015062,2.4559698406675863
1773063461037027328,2.0516183376312256,-2.333871364593506,-0.5181166529655457,0.9876819849014282,0.993834912776947,0.0539553202688694,-0.09685587137937546,-0.14559882879257202,0.040328748524188995,-0.31258320808410645,0.25867230179885087,-0.6414631646658636,0.20024253393505936,0.6939139780554229,-0.05398153331424496,1.4736464204749335,2.476937821087049
1773063461047063296,2.0616543292999268,-2.565748691558838,-0.5708696246147156,0.8975757956504822,0.9937666058540344,0.047096192836761475,-0.10104493796825409,-0.05298584699630737,-0.023475565016269684,-0.1477953940629959,0.2477503525569822,-0.6418407601873448,0.19369556251339592,0.6993871040236774,-0.04711361988254144,1.4694658325987384,2.5032673957305263
1773063461057100544,2.0716915130615234,-2.3288652896881104,-0.5413268208503723,0.9019138216972351,0.9935607314109802,0.04074499383568764,-0.1057220920920372,-0.06704694032669067,0.11538295447826385,-0.0014099031686782837,0.23726873505610854,-0.6419363904249799,0.18723414427842633,0.7046734952412342,-0.040756275191759304,1.464787943337481,2.5286751355398724
1773063461067136512,2.0817275047302246,-2.079892873764038,-0.5435582995414734,0.825853705406189,0.9933053851127625,0.03436530753970146,-0.11028705537319183,-0.132404625415802,0.16903433203697205,0.0010494142770767212,0.22763528949471434,-0.6417509849535834,0.18169245154929706,0.7094544409188056,-0.034372076910120085,1.4602188760903805,2.5513950954707036
1773063461077173504,2.091764450073242,-2.1092002391815186,-0.3334592878818512,0.6924567818641663,0.993034303188324,0.029254848137497902,-0.11413600295782089,-0.17893213033676147,0.19263845682144165,0.1741030216217041,0.21860828961226977,-0.6418083819686615,0.17610791727155448,0.7136374679353651,-0.0292590235016587,1.4563618566765246,2.5731745309102387
1773063461087209472,2.1018004417419434,-1.939822793006897,-0.16112932562828064,0.6058180332183838,0.9929395318031311,0.02507508359849453,-0.11594206094741821,-0.26222652196884155,0.3069561719894409,0.3624325394630432,0.20989550821468317,-0.642578302406881,0.1706519672975244,0.716878681637375,-0.025077712477426566,1.4545562198239725,2.594253159329155
1773063461097246464,2.111837387084961,-1.6454265117645264,-0.08641620725393295,0.5055771470069885,0.9929278492927551,0.02167120948433876,-0.11672580242156982,-0.2518236041069031,0.3263818025588989,0.3632162809371948,0.2022125083556492,-0.6435336815482084,0.165835757025996,0.719356052148143,-0.021672905597018594,1.4537762253805881,2.612806408079944
1773063461107282432,2.121873378753662,-1.3153681755065918,-0.11099664866924286,0.49369412660598755,0.9929202198982239,0.018481148406863213,-0.11733642220497131,-0.12525975704193115,0.36056241393089294,0.23989498615264893,0.19571796615858988,-0.6442748178179006,0.16199305209512946,0.7213616935653709,-0.018482201380701703,1.4531687973791856,2.628140866328674
1773063461117319424,2.1319103240966797,-0.9274346232414246,-0.15193410217761993,0.47658708691596985,0.9928411245346069,0.014938103966414928,-0.11850535869598389,-0.018033266067504883,0.485122948884964,0.1464136689901352,0.19039549810824297,-0.6444813144192088,0.15934602502275994,0.7231889765738535,-0.014938659867174403,1.4519985160929603,2.63999326878961
1773063461127355392,2.141946315765381,-0.3842144310474396,-0.13963615894317627,0.3979093134403229,0.9927249550819397,0.011342431418597698,-0.11986969411373138,0.06739479303359985,0.5468393564224243,0.10096405446529388,0.18675039240598923,-0.6442322748307071,0.1582084961859079,0.7246097208954869,-0.011342674937497044,1.450629940359859,2.6471754072390454
1773063461137391360,2.151982307434082,0.20578646659851074,-0.19289952516555786,0.2649551033973694,0.9925560355186462,0.008104078471660614,-0.12151873111724854,0.12815624475479126,0.4529860019683838,0.021085381507873535,0.1854162518351396,-0.6434333164130841,0.15885276688732047,0.725520599713845,-0.008104166983727113,1.4489724917821618,2.6483499772439747
1773063461147428608,2.1620194911956787,0.46079692244529724,-0.09153057634830475,0.21023380756378174,0.9923802018165588,0.005426160991191864,-0.1230938658118248,0.16663163900375366,0.33241868019104004,-0.015410184860229492,0.1858411631265547,-0.6423606582498681,0.16070423934973824,0.7259545349889084,-0.005426187683650527,1.4473876416033062,2.645160230808538
1773063461157464576,2.17205548286438,0.6510560512542725,0.07172568887472153,0.330554336309433,0.9923930168151855,0.002095573814585805,-0.12309179455041885,0.19654124975204468,0.3725687265396118,0.04472268372774124,0.18669318522294923,-0.6416268010276696,0.1636128117326624,0.7257351242407498,-0.0020955754499339552,1.4473912755961986,2.6398690134408427
1773063461167501568,2.1820924282073975,0.6075583696365356,0.0400569811463356,0.4132201671600342,0.9924699664115906,-0.0024919325951486826,-0.12246302515268326,0.21364575624465942,0.42586231231689453,0.10624295473098755,0.1873155710286468,-0.640938127487267,0.16723277900153857,0.7253581406105428,0.0024919351418060303,1.4480247346807587,2.633954099048113
1773063461177537536,2.1921284198760986,0.5655617117881775,-0.023909585550427437,0.38035112619400024,0.9924588203430176,-0.007161036599427462,-0.1223692074418068,0.22708463668823242,0.32791605591773987,0.13121932744979858,0.18770831096502955,-0.6400843826509033,0.17060885356859817,0.7252242429952042,0.0071610978750813814,1.4481164884360005,2.6287204466785763
1773063461187574272,2.202165365219116,0.6522209644317627,-0.1335173100233078,0.3725384771823883,0.9923421740531921,-0.011618006974458694,-0.12297182530164719,0.26850682497024536,0.2651885747909546,0.05635195970535278,0.18840050780351275,-0.6389383568361798,0.17398811449350016,0.7252524959261721,0.011618268208233463,1.4475040815991314,2.6230157228596207
1773063461197610496,2.2122013568878174,0.8587172627449036,-0.260638952255249,0.38807162642478943,0.9920263290405273,-0.01637023314833641,-0.12496289610862732,0.3019799590110779,0.20972959697246552,-0.12731069326400757,0.1894602388616966,-0.6371543047967838,0.1776314784071923,0.7256626161523566,0.01637096435656414,1.4454890056753829,2.6163846692968673
1773063461207647232,2.222238302230835,1.0227437019348145,-0.30306366086006165,0.40600723028182983,0.9915894269943237,-0.021466484293341637,-0.12763001024723053,0.2911405563354492,0.10258220881223679,-0.34838318824768066,0.1914054904494371,-0.6348318820590648,0.18213587837954887,0.72607083908872,0.02146813361311656,1.442787584029865,2.607202106277788
1773063461217683200,2.232274293899536,0.9833773970603943,-0.3606206774711609,0.7097187042236328,0.9910278916358948,-0.028010832145810127,-0.13068705797195435,0.15936273336410522,-0.03195621818304062,-0.48492878675460815,0.1928967626374408,-0.6321864657539157,0.18707416573136437,0.726728556906728,0.0280144959469292,1.4396826372557043,2.5981315119967126
1773063461227719424,2.2423102855682373,1.6136784553527832,-0.43046021461486816,1.213200330734253,0.990170419216156,-0.039391160011291504,-0.13420499861240387,-0.035153329372406006,-0.1421731412410736,-0.3782461881637573,0.19373230802723473,-0.6285735697619645,0.19440361653115934,0.7277158287694954,0.03940135506085511,1.436079972688957,2.5868002021086096
1773063461237756416,2.252347469329834,2.0858404636383057,-0.33953413367271423,1.1832647323608398,0.989058792591095,-0.05438818782567978,-0.1371302604675293,-0.08195430040359497,-0.20264609158039093,-0.4118351936340332,0.19559211135877028,-0.6240424155785523,0.20495349318426986,0.7282230971631556,0.054415037693615415,1.4330273973810461,2.569407840103915
1773063461247792384,2.262383460998535,1.5376092195510864,-0.12780246138572693,0.5427761077880859,0.98819899559021,-0.06561081111431122,-0.13841266930103302,-0.02390456199645996,-0.10379224270582199,-0.4545438885688782,0.19843141456229985,-0.6204129383403378,0.21419955523604975,0.7278951740969638,0.06565797592262737,1.4316360609937824,2.5521996730473515
1773063461257829376,2.2724204063415527,0.7305782437324524,0.1568714827299118,0.028133559972047806,0.9880363345146179,-0.0698060393333435,-0.13751892745494843,0.04876786470413208,0.280148446559906,-0.08405393362045288,0.20100306147357536,-0.61902654831537,0.21919550555540893,0.7268819174031302,0.06986285348695527,1.4325007140707395,2.541202124784691
1773063461267865344,2.282456398010254,0.1147126778960228,0.2435150295495987,-0.227716863155365,0.9884308576583862,-0.06924504041671753,-0.13494309782981873,0.16588127613067627,0.5440680384635925,0.3535100221633911,0.202388381390932,-0.6195916971047736,0.22053248911332407,0.7256104642465446,0.06930049885234958,1.4351126054790053,2.537087941933045
1773063461277902336,2.2924933433532715,-0.17725971341133118,0.06505930423736572,-0.07383803278207779,0.9887841939926147,-0.06735933572053909,-0.13329820334911346,0.370636522769928,0.333182692527771,0.46944934129714966,0.20270445594823794,-0.6204635486058685,0.21994519045480349,0.7249551221766773,0.06741037503294363,1.4367940054322488,2.5373613717806602
1773063461287938304,2.3025293350219727,-0.121680349111557,-0.3124890625476837,0.1537487804889679,0.988552451133728,-0.06778498739004135,-0.13479317724704742,0.554233193397522,-0.24187690019607544,0.45049750804901123,0.20214362770043126,-0.6200407940410614,0.21943751754656182,0.7256269996232735,0.06783700147782583,1.435277978693148,2.538993414390564
1773063461297975296,2.3125662803649902,-0.20722441375255585,-0.15440161526203156,-0.031771186739206314,0.9881222248077393,-0.06835166364908218,-0.13763198256492615,0.6126468181610107,-0.8893051743507385,0.37600475549697876,0.2017109717240768,-0.6190977968406615,0.21886508831080784,0.7267246288417232,0.06840499855024336,1.432400339674777,2.5405569520471545
1773063461308011520,2.3226025104522705,-0.3531898558139801,0.19782167673110962,-0.06824077665805817,0.9882193803787231,-0.06737880408763885,-0.13741354644298553,0.3823402523994446,-1.1873056888580322,0.18808801472187042,0.20097530314214057,-0.6196066977022547,0.2176712391517445,0.7268532386324302,0.06742988911151643,1.4326306143619216,2.5433633961702884
1773063461318048512,2.332639455795288,-0.31369033455848694,0.4518778324127197,-0.3379146456718445,0.9887736439704895,-0.06508299708366394,-0.13450147211551666,0.024196207523345947,-0.7559009194374084,-0.07143114507198334,0.2002126536866842,-0.6213128395792021,0.21614720977194798,0.7260616160107833,0.06512903427822969,1.4355975608407574,2.546588670834462
1773063461328084480,2.3426754474639893,0.18479110300540924,0.8317175507545471,-0.7404234409332275,0.9899511337280273,-0.0595439076423645,-0.1282627284526825,-0.13721370697021484,-0.017238307744264603,-0.14442706108093262,0.20119292741275602,-0.6243111335289327,0.21471898592120195,0.7236385646424647,0.05957914992038351,1.4419493993423758,2.5468701330493113
1773063461338120448,2.3527114391326904,0.9207643866539001,0.9570725560188293,-0.830303966999054,0.9915521144866943,-0.052153948694467545,-0.11876163631677628,-0.1548822522163391,0.42941224575042725,-0.12643182277679443,0.20490079049324122,-0.6279620191564311,0.21513456968112696,0.7193027583702676,0.05217762294658127,1.451590719312669,2.540269474885177
1773063461348157440,2.362748384475708,1.1412376165390015,0.7275381684303284,-0.580531656742096,0.9928779006004333,-0.04618091508746147,-0.10982085019350052,0.0205802321434021,0.4143754839897156,-0.10610626637935638,0.20996188534655466,-0.6306736211704463,0.2175783920890361,0.71472115825229,0.04619734633323518,1.4606354968520534,2.528763492019657
1773063461358193408,2.372784376144409,1.0612642765045166,0.6232025623321533,-0.38541075587272644,0.9937847852706909,-0.04271408170461655,-0.10279673337936401,0.2887621521949768,0.17175765335559845,0.00892467051744461,0.21442146776673662,-0.6323494261295365,0.22076194650541608,0.7109301926529843,0.04272708139960767,1.467723272101041,2.517195368954197
1773063461368230400,2.3828213214874268,0.9010403752326965,0.6913086771965027,-0.42274028062820435,0.9945988059043884,-0.03973334655165672,-0.09588812291622162,0.4536128640174866,-0.01208549365401268,0.11235237121582031,0.21824170972587487,-0.6340403588597662,0.22371580468826038,0.7073292195033394,0.03974380933357338,1.4746845188483282,2.506943072116961
1773063461378266368,2.392857313156128,0.779425323009491,0.7237478494644165,-0.4957224726676941,0.9954404234886169,-0.035893514752388,-0.0883738100528717,0.4330415725708008,-0.1162976622581482,0.08739722520112991,0.2217381275976591,-0.6361867525152148,0.2260077638383463,0.7035759016484536,0.035901225506500455,1.482249863328883,2.498126329964431
1773063461388303616,2.4028944969177246,0.5495439171791077,0.6391054391860962,-0.5433344841003418,0.9961932301521301,-0.031214790418744087,-0.08139243721961975,0.3640972971916199,-0.16547100245952606,0.05285853147506714,0.2249804128903617,-0.6384079014040603,0.22746237826251176,0.7000571681150772,0.03121986157166704,1.4892739413572602,2.4909209254115376
1773063461398339584,2.412930488586426,0.20214305818080902,0.6122338771820068,-0.5226642489433289,0.9968358874320984,-0.026120396330952644,-0.0750732347369194,0.3308008313179016,-0.2121608555316925,0.07818603515625,0.2273693529773017,-0.6407727582224128,0.22775789064023405,0.6970221124093015,0.0261233683474865,1.495626703837543,2.486726857157724
1773063461408376576,2.4229674339294434,0.02233760803937912,0.7207606434822083,-0.5235759019851685,0.9974352121353149,-0.0210042092949152,-0.06842362135648727,0.2835400700569153,-0.22028303146362305,0.09047258645296097,0.22871641992788472,-0.6435707252373225,0.22716714070427685,0.6941906132579616,0.02100575367672654,1.5023040653724589,2.485435616693158
1773063461418412544,2.4330034255981445,0.03685862571001053,0.7412155270576477,-0.6007562875747681,0.9980192184448242,-0.015378480777144432,-0.061001550406217575,0.21752643585205078,-0.16961906850337982,0.01994013786315918,0.22990981952079784,-0.6467587517699109,0.22627934294631918,0.6911166799015619,0.015379086895888345,1.509749651038755,2.484828315282828
1773063461428448512,2.4430394172668457,0.11185643821954727,0.6954139471054077,-0.6000532507896423,0.9985074400901794,-0.009337182156741619,-0.05380970612168312,0.1713990569114685,-0.1298077255487442,-0.03601878136396408,0.23143107367961713,-0.6498446916902756,0.2253819488048331,0.6880002888107886,0.009337317974375321,1.5169582626569622,2.4837607978135305
1773063461438485504,2.4530763626098633,0.15050171315670013,0.6441733241081238,-0.5787447690963745,0.9988856315612793,-0.0035289579536765814,-0.04706143960356712,0.16630589962005615,-0.12194408476352692,-0.01855134218931198,0.23314910286700796,-0.6526603410220299,0.22473041400972668,0.6849613686727383,0.0035289652773769294,1.5237171974898511,2.4820626598065854
1773063461448521472,2.4631123542785645,0.05548863485455513,0.6206919550895691,-0.6214288473129272,0.999169647693634,0.0024284236133098602,-0.04067082703113556,0.19274014234542847,-0.17425766587257385,0.007345616817474365,0.23483849566698117,-0.6553941934015359,0.22388175150996475,0.6820456496719407,-0.002428425964810194,1.530114159859571,2.4807218008845235
1773063461458558208,2.473149299621582,-0.08044542372226715,0.6061813235282898,-0.664415717124939,0.9993627071380615,0.008892093785107136,-0.03456864878535271,0.2171899676322937,-0.24517443776130676,0.0834120512008667,0.23633485720578046,-0.6582019969713233,0.2224540557458753,0.6792864599219343,-0.008892211073929472,1.5362194199603056,2.480547869844303
1773063461468594432,2.483185291290283,-0.18964993953704834,0.5388845801353455,-0.6561681628227234,0.9994663000106812,0.015569061040878296,-0.028722157701849937,0.2364194393157959,-0.2740834355354309,0.16393029689788818,0.23747093445059836,-0.6610820483592554,0.22047549995588805,0.6767338827006355,-0.015569690341209414,1.5420667377324488,2.481755472594
1773063461478631424,2.49322247505188,-0.26215410232543945,0.42648303508758545,-0.6741800904273987,0.9994683265686035,0.02226978912949562,-0.023818204179406166,0.22672808170318604,-0.23633532226085663,0.18400496244430542,0.2384462190506265,-0.6637186463941604,0.2181019392016387,0.6745758776809155,-0.022271630541012947,1.546969961570752,2.483804159802152
1773063461488667392,2.503258466720581,-0.3221452534198761,0.3555271029472351,-0.6749627590179443,0.9993765950202942,0.029160695150494576,-0.019900809973478317,0.15481340885162354,-0.15858574211597443,0.14100980758666992,0.23933075925502553,-0.666111900444145,0.2152778008420339,0.6728084320270227,-0.02916482885742398,1.5508857353815406,2.4866613625350173
1773063461498704384,2.5132954120635986,-0.36590632796287537,0.377020001411438,-0.6261905431747437,0.999231219291687,0.03574144095182419,-0.016112621873617172,0.05031406879425049,-0.05904160439968109,0.00978022813796997,0.2400028035779818,-0.6684509639344459,0.21240762213538555,0.671159462451988,-0.03574905384239877,1.5546727059696295,2.4899215211890473
1773063461508740352,2.5233314037323,-0.4041019082069397,0.40689319372177124,-0.6085841059684753,0.9990466833114624,0.041965845972299576,-0.012019769288599491,-0.04764598608016968,-0.0012401565909385681,-0.11119496822357178,0.24032809690718113,-0.6708997477768035,0.2094842323497607,0.6695164356343174,-0.04197817374162949,1.5587656683277407,2.493803781920674
1773063461518777344,2.5333683490753174,-0.39982643723487854,0.42350441217422485,-0.6109429001808167,0.9988136887550354,0.04809783026576042,-0.007604971993714571,-0.1002998948097229,-0.016939383000135422,-0.12372744083404541,0.24060877788670945,-0.6734240592782826,0.20663385592813105,0.6677648488617842,-0.04811639291868013,1.5631824692600582,2.4976672112644227
1773063461528813312,2.5434043407440186,-0.5803967118263245,0.38644281029701233,-0.624143123626709,0.9985181093215942,0.05432513356208801,-0.003235810436308384,-0.09460270404815674,-0.10406877100467682,-0.015639305114746094,0.24061509180292923,-0.676021638905734,0.20341297522698484,0.6661248714650572,-0.05435188991100246,1.5675557254522405,2.502505165013405
1773063461538849280,2.5534403324127197,-0.7387239933013916,0.2542853355407715,-0.6106646060943604,0.9981672167778015,0.06051497161388397,0.0004259280685801059,-0.019041240215301514,-0.18032698333263397,0.12445199489593506,0.2400721299101744,-0.678543674096029,0.1994779345650705,0.6649454199083888,-0.06055196815873372,1.5712230369107305,2.509217914063671
1773063461548886272,2.5634772777557373,-0.7803863286972046,0.10842585563659668,-0.5971176624298096,0.997779130935669,0.06655596196651459,0.00268440879881382,0.09285807609558105,-0.20174884796142578,0.2275707721710205,0.2392845553765415,-0.6806573812840303,0.19505828287234267,0.6643799745121456,-0.06660519900726947,1.5734867041067548,2.516978844897074
1773063461558922496,2.5735135078430176,-0.5554678440093994,0.002097847405821085,-0.5283578634262085,0.9973809123039246,0.07223326712846756,0.003707712050527334,0.19565802812576294,-0.16358762979507446,0.17880260944366455,0.23879198628876683,-0.6822106825494351,0.1908990324467022,0.6641721041623453,-0.0722962263066421,1.5745137578851536,2.5238732015039234
1773063461568959488,2.583550453186035,-0.21664613485336304,-0.13454948365688324,-0.4193626940250397,0.9970356225967407,0.07687021046876907,0.0033403874840587378,0.23279231786727905,-0.060451753437519073,0.03088510036468506,0.23906870991745577,-0.682900151615604,0.18792971198646286,0.6642108418736128,-0.07694611881491699,1.5741466334041263,2.5278114189489247
1773063461578995456,2.5935864448547363,0.11945190280675888,-0.27039775252342224,-0.38178160786628723,0.9967271685600281,0.08082951605319977,0.0013703403528779745,0.16545861959457397,0.018840938806533813,-0.04087531566619873,0.24042640308971816,-0.6826564134392028,0.1861864425196858,0.6644622851980986,-0.08091778909544546,1.5721711659434963,2.5282616711937544
1773063461589032448,2.603623390197754,0.40691113471984863,-0.36031538248062134,-0.26869338750839233,0.9964610934257507,0.0840340182185173,-0.0019627753645181656,0.014174401760101318,0.024028755724430084,-0.05074107646942139,0.24266642190697818,-0.6816030844043445,0.18556898338963543,0.6649019155567409,-0.08413323794606897,1.568826583169468,2.5256713434954263
1773063461599068416,2.613659381866455,0.4816884398460388,-0.1786426603794098,-0.027776844799518585,0.9963102340698242,0.08566249161958694,-0.005275223404169083,-0.1474485993385315,-0.04914822429418564,-0.05786561965942383,0.24509959947231205,-0.6802076563397295,0.18622548826835433,0.6652546928486733,-0.0857676018331712,1.5655016164130293,2.520911856211323
1773063461609105408,2.6236963272094727,2.9251677989959717,1.2918057441711426,2.4679641723632812,0.9974932670593262,0.07060854882001877,0.004636305849999189,-0.18963199853897095,-0.045919857919216156,-0.19210577011108398,0.2446064942726176,-0.6804694801627644,0.19819041198824094,0.661701937837849,-0.07066735128705479,1.5754442501665695,2.504422602242806
1773063461619141376,2.633732318878174,2.314542055130005,-0.8782050609588623,0.9249927401542664,0.9985678195953369,0.05346868559718132,0.0018597294110804796,0.047666311264038086,0.17696955800056458,-0.44489872455596924,0.24745497174293654,-0.6752310653361113,0.21211523549411931,0.6616919365672119,-0.05349419626031433,1.5726587213358314,2.479446439466804
1773063461629178624,2.6437695026397705,2.207263231277466,-1.5674002170562744,-0.1268613040447235,0.9987179636955261,0.04895492270588875,-0.012884756550192833,0.5416416525840759,0.38354021310806274,-0.5857938528060913,0.25527175174059713,-0.6673347919052612,0.219594847944496,0.6642881732525273,-0.04897449707940988,1.5578957457631122,2.4561787818695993
1773063461639214592,2.6538054943084717,1.8456188440322876,-1.0653245449066162,-0.48987114429473877,0.998291015625,0.051730431616306305,-0.027185292914509773,0.110107421875,0.1363646537065506,0.300409197807312,0.2645762716011318,-0.6606164128348136,0.22359183591641654,0.6660270520823294,-0.05175353216780145,1.5435712238510364,2.43569745146548
1773063461649250560,2.663841485977173,1.3082984685897827,-0.3047451972961426,-0.29447075724601746,0.9978730082511902,0.05512233451008797,-0.03479735180735588,-0.19272780418395996,-0.29346463084220886,0.17595642805099487,0.27190512294194696,-0.6566544554330702,0.2267294641347386,0.6659326052990172,-0.05515028821916938,1.5359389281681501,2.4195596968218105
1773063461659287552,2.6738784313201904,0.7463873624801636,0.20302245020866394,-0.12439863383769989,0.997764527797699,0.05662507191300392,-0.03548865765333176,-0.44087982177734375,-0.4964138865470886,0.19744545221328735,0.2759008719960122,-0.6554244670546198,0.2295091266552934,0.6645471965154085,-0.056655374759180824,1.5352431450065935,2.409237258055492
1773063461669323520,2.6839144229888916,0.39939287304878235,0.3210305869579315,-0.2569582760334015,0.997769832611084,0.05813632905483246,-0.03279612585902214,-0.5065741539001465,-0.35919222235679626,0.21112561225891113,0.2779604170979562,-0.6558459282415604,0.2312316040280992,0.6626734468071175,-0.05816912584520487,1.5379387246608793,2.403556253733285
1773063461679360768,2.6939518451690674,0.20147280395030975,0.11179278045892715,-0.5171098709106445,0.9976081252098083,0.06199732422828674,-0.030569400638341904,-0.39174264669418335,-0.11329737305641174,0.1919006109237671,0.2799880280377054,-0.6566807691876948,0.23126968504256665,0.6609776471563067,-0.062037107714704325,1.5401632178930342,2.4003959891059754
1773063461689396736,2.7039878368377686,-0.13566048443317413,-0.1536245048046112,-0.622426450252533,0.9972178339958191,0.06789792329072952,-0.0307600274682045,-0.20603454113006592,-0.0007135048508644104,0.2136518359184265,0.2821103488013836,-0.6572479636402547,0.2294452014737445,0.660146686300898,-0.06795020388053868,1.5399602591250636,2.3997703296799306
1773063461699433728,2.714024782180786,-0.830666720867157,-0.1941760927438736,-0.5863959193229675,0.9967214465141296,0.07410991936922073,-0.0324668288230896,-0.07974451780319214,-0.029584772884845734,0.2670554518699646,0.28293427603313026,-0.6578840015093457,0.22573264237567497,0.6604404753155044,-0.07417792706930415,1.538234216374781,2.4038978279133874
1773063461709469952,2.7240610122680664,-1.381249189376831,-0.007965206168591976,-0.4507427215576172,0.9963022470474243,0.07978963106870651,-0.03186725825071335,-0.07493078708648682,-0.11428975313901901,0.25817036628723145,0.28089066905012894,-0.6600200972020871,0.22009053007985435,0.6610855530628553,-0.07987453917465337,1.5388216938817447,2.4153956390724747
1773063461719506944,2.734097957611084,-1.8276565074920654,0.0738949403166771,-0.5183383226394653,0.9959263801574707,0.08492858707904816,-0.030294574797153473,-0.1795201301574707,-0.21757325530052185,0.29128092527389526,0.277155509186262,-0.6628278808150767,0.21333521206470377,0.6620665325700096,-0.08503101859242124,1.5403872144889232,2.4311675943616127
1773063461729542912,2.744133949279785,-2.4479713439941406,0.03894680738449097,-0.9065550565719604,0.9953195452690125,0.09255705028772354,-0.027789199724793434,-0.24774569272994995,-0.28500089049339294,0.2363157868385315,0.27228993240456106,-0.6667098088638697,0.20396919218884696,0.6631385896411454,-0.09268971785628081,1.542883700862887,2.4524990609301778
1773063461739578880,2.7541699409484863,-3.2505080699920654,-0.19945567846298218,-1.557193636894226,0.9940962195396423,0.10543019324541092,-0.02563842386007309,-0.2533581852912903,-0.23250535130500793,0.1770513653755188,0.2669160587018689,-0.6715124387232815,0.19039914142947223,0.6645111759441098,-0.10562649444538237,1.5450113570540382,2.480639718671572
1773063461749615872,2.764206886291504,-3.320563793182373,0.009489551186561584,-1.572169303894043,0.9921625852584839,0.12284927070140839,-0.022838056087493896,-0.2539118528366089,-0.1826179325580597,0.1950182318687439,0.26102362347463837,-0.677179963868542,0.17322894940756955,0.6657970947137931,-0.12316039670154132,1.5477819308473382,2.5146947225395553
1773063461759651840,2.774242877960205,-2.563305616378784,0.02399592287838459,-0.8909210562705994,0.9905725717544556,0.13566358387470245,-0.019004659727215767,-0.24353289604187012,-0.16721880435943604,0.20142346620559692,0.25504253902117835,-0.6820283578270424,0.15916968578476445,0.6666749958529994,-0.13608321286678132,1.551613149825476,2.544335325600644
1773063461769688832,2.7842798233032227,-1.7808637619018555,-0.1846238672733307,-0.5062894821166992,0.9896268248558044,0.14269916713237762,-0.016597017645835876,-0.05751335620880127,-0.0537710040807724,-0.02971338853240013,0.2498698607031281,-0.6850895284906947,0.14951197138614536,0.6677300746945241,-0.14318796128615843,1.5540269139752845,2.566255176867111
1773063461779724800,2.794315814971924,-0.8733751177787781,-0.461081326007843,-0.45527708530426025,0.9888894557952881,0.14756415784358978,-0.01795075088739395,0.11265766620635986,0.20907950401306152,-0.19048428535461426,0.24707866414657556,-0.6859839728633225,0.14300564036200733,0.6692737958716687,-0.14810500777046381,1.552645885623333,2.579736192865622
1773063461789762048,2.8043529987335205,-0.027625225484371185,-0.5031067728996277,-0.4074738919734955,0.9881291389465332,0.15200284123420715,-0.02226994000375271,0.0774531364440918,0.35110995173454285,-0.17870354652404785,0.2474218408409256,-0.6851469797179791,0.1394225462150128,0.6707588504654534,-0.15259434529153598,1.5482626632941408,2.584030726285206
1773063461799798016,2.8143889904022217,0.33320319652557373,-0.360468327999115,-0.3311345875263214,0.9874587059020996,0.15557169914245605,-0.026885749772191048,-0.03985738754272461,0.25163960456848145,-0.1789705753326416,0.24960780565807658,-0.6836953079508099,0.1382673164914623,0.6716687347580447,-0.15620617758190902,1.5435758377862803,2.582005910186334
1773063461809835008,2.8244259357452393,0.17841096222400665,-0.15834160149097443,-0.35286837816238403,0.9868589639663696,0.15879996120929718,-0.029868055135011673,-0.16543251276016235,0.1246168315410614,-0.12853342294692993,0.2518486550268896,-0.6827143191171253,0.1377212085879549,0.6719422496716472,-0.1594750792699467,1.5405397859070482,2.5791304825274692
1773063461819870976,2.8344619274139404,-0.14177729189395905,-0.014130824245512486,-0.408936083316803,0.9862148761749268,0.1625957041978836,-0.030708199366927147,-0.25168728828430176,0.029222548007965088,-0.0264817476272583,0.25329654943393154,-0.6826721148531494,0.13639898952126217,0.6717105206348151,-0.16332080319134676,1.5396689518742885,2.578721772656261
1773063461829907968,2.844498872756958,-0.5450067520141602,0.002924326341599226,-0.3860965371131897,0.9855473637580872,0.16671042144298553,-0.03006999008357525,-0.26490527391433716,-0.06818439066410065,0.005747497081756592,0.2534741551038866,-0.6834089157498315,0.13385536669122897,0.6714059322306212,-0.16749245387779615,1.5402948358210444,2.5821058566770487
1773063461839943936,2.854534864425659,-0.8145374059677124,-0.04833703115582466,-0.31020838022232056,0.9849512577056885,0.17035558819770813,-0.029160529375076294,-0.21792232990264893,-0.10666537284851074,-0.05247396603226662,0.2522866695153976,-0.6844290540093427,0.13029430156340985,0.6715146331312662,-0.17119052569527485,1.5411989089972018,2.5890483963976436
1773063461849980928,2.8645718097686768,-0.8497182726860046,0.005006885156035423,-0.2660478949546814,0.9844498634338379,0.17342543601989746,-0.02796817384660244,-0.1540513038635254,-0.05054640769958496,-0.1257030963897705,0.25034695641878396,-0.6855916751761058,0.12641189650572388,0.6717965298121347,-0.1743067474781585,1.542394013785631,2.597618574400193
1773063461860016896,2.874607801437378,-0.6792870759963989,0.10695073008537292,-0.2285269945859909,0.9840383529663086,0.176042377948761,-0.026031233370304108,-0.1412343978881836,0.03675667941570282,-0.1840670108795166,0.24846589193369834,-0.6869107722929046,0.1230364752573962,0.6717740111446358,-0.17696458813741545,1.5443490202284267,2.605438109697636
1773063461870052864,2.884643793106079,-0.36206573247909546,0.16084377467632294,-0.18511320650577545,0.9836980700492859,0.17825333774089813,-0.023744797334074974,-0.16831421852111816,0.11582928895950317,-0.19849944114685059,0.2472675807413812,-0.6881567270431926,0.1206976384580273,0.6713651062727632,-0.17921106838048112,1.5466627138433164,2.6107745046642266
1773063461880090112,2.894680976867676,0.006436406169086695,0.17295344173908234,-0.05905425176024437,0.9835062026977539,0.1795622855424881,-0.021745262667536736,-0.17222696542739868,0.1634400188922882,-0.17768710851669312,0.2470064441635775,-0.6890237740745749,0.11988998136295327,0.6707163576907293,-0.18054148271730994,1.5486899900099156,2.6124879061406534
1773063461890126080,2.904716968536377,0.164653480052948,0.14697110652923584,0.11465761810541153,0.9835898280143738,0.17927348613739014,-0.020299918949604034,-0.13562840223312378,0.17415060102939606,-0.16202735900878906,0.24716913560148657,-0.6894360630225217,0.12053196745409467,0.6701174236439865,-0.18024792615542676,1.550160653160924,2.611451818984206
1773063461900162816,2.9147539138793945,0.07145242393016815,0.06308247148990631,0.26259729266166687,0.9839569330215454,0.1773330420255661,-0.01953718066215515,-0.09337776899337769,0.1632125824689865,-0.15291762351989746,0.24690620620511453,-0.6894958931213088,0.12176544328834571,0.6699297660647195,-0.17827587681695023,1.5509432083915737,2.61016458612564
1773063461910199040,2.9247899055480957,-0.11011017858982086,0.08901765942573547,0.3935664892196655,0.984546959400177,0.1741081178188324,-0.018802059814333916,-0.08369868993759155,0.1273139864206314,-0.12141096591949463,0.2457021412595652,-0.6895567570214817,0.122924566842145,0.6700980615688487,-0.17499997758417285,1.5517014789660086,2.610410597858398
1773063461920235776,2.9348268508911133,-0.3123139441013336,0.21767893433570862,0.5165887475013733,0.9853599667549133,0.16964104771614075,-0.0169599000364542,-0.13251572847366333,0.08032843470573425,-0.07386040687561035,0.24332719798056487,-0.690039818844123,0.12395603248936285,0.6702774337041802,-0.17046542704369394,1.5535861431127287,2.6127018479059356
1773063461930271744,2.9448628425598145,-0.3600047528743744,0.33228328824043274,0.5718653202056885,0.9863221645355225,0.16426511108875275,-0.013622586615383625,-0.19494032859802246,0.09043459594249725,-0.07046860456466675,0.2400942631153692,-0.6910567682892866,0.1250169970504098,0.670198531225737,-0.165012960552671,1.5569857069618276,2.6163528707607204
1773063461940308736,2.954899787902832,-0.12559114396572113,0.39302003383636475,0.6143753528594971,0.9873266220092773,0.1584123820066452,-0.009576646611094475,-0.23367977142333984,0.1386152058839798,-0.10350626707077026,0.23697892958716055,-0.692220587223742,0.1266583402331736,0.6697979823855297,-0.15908252781592291,1.5610970576487386,2.619022125303717
1773063461950344704,2.964935779571533,0.147731751203537,0.4419521689414978,0.7363047003746033,0.9884012937545776,0.15176664292812347,-0.0054755485616624355,-0.21636748313903809,0.18017306923866272,-0.16377496719360352,0.2345244431446045,-0.6931672202144582,0.1295431610264752,0.6691309052516565,-0.15235538002609325,1.5652565804180998,2.6188850411768256
1773063461960381952,2.97497296333313,0.2177092432975769,0.38049784302711487,0.9282439947128296,0.9896465539932251,0.14351847767829895,-0.0015743530821055174,-0.11846113204956055,0.20427514612674713,-0.2346011996269226,0.23215252245292128,-0.6938045956233247,0.13359643169585098,0.6685002352233161,-0.14401579365986236,1.5692055045932496,2.6168924621917573
1773063461970417920,2.985008955001831,-0.045568469911813736,0.19946041703224182,1.0389939546585083,0.9910286068916321,0.13364578783512115,0.0011322501813992858,0.02596968412399292,0.21242357790470123,-0.24714970588684082,0.2289951863137581,-0.6939687698223909,0.13774422528557032,0.6685769559156427,-0.13404686352213332,1.5719388263170258,2.615816531205797
1773063461980453888,2.9950449466705322,-0.37751004099845886,0.1419944018125534,1.1054656505584717,0.9923993349075317,0.12302216142416,0.0030445721931755543,0.14332759380340576,0.1983432024717331,-0.18027544021606445,0.224524125359548,-0.6940244760881809,0.14089823531978152,0.669377838847128,-0.12333460924454358,1.573864207492677,2.618046728026329
1773063461990490880,3.00508189201355,-0.40724292397499084,0.1261850744485855,1.2620248794555664,0.9937804341316223,0.11124777793884277,0.004933561664074659,0.1808258295059204,0.21124671399593353,-0.09253430366516113,0.21902710475980108,-0.6941131828640406,0.14378341383562185,0.6704925822808782,-0.11147853256817723,1.5757607242193814,2.6221488860941355
1773063462000526848,3.015117883682251,-0.20129480957984924,0.05327558144927025,1.4958325624465942,0.9952181577682495,0.09748771041631699,0.006082600448280573,0.1431790590286255,0.2754828631877899,-0.0035649542696774006,0.21323913869296784,-0.6937231651104443,0.14761256855628152,0.6719283885132681,-0.09764279212908954,1.5769080770630597,2.6252313721519824
1773063462010563840,3.0251548290252686,0.04029463976621628,-0.04063120484352112,1.6484674215316772,0.9966419339179993,0.08164922147989273,0.006211461033672094,0.10225039720535278,0.33390864729881287,0.006010890938341618,0.20763715953906306,-0.6926261751109286,0.15288790678014264,0.6736328679937156,-0.08174021863503335,1.5770286358494845,2.625854333349901
1773063462020599808,3.0351908206939697,-0.0964406430721283,-0.029307611286640167,1.6796094179153442,0.9978708624839783,0.06496254354715347,0.005800145678222179,0.06533104181289673,0.303979754447937,-0.02435481548309326,0.20200038652145758,-0.6911899104696697,0.1586082608261431,0.6754967068274272,-0.06500832116157114,1.5766087823859976,2.62582842489389
1773063462030637056,3.0452280044555664,-0.32201650738716125,0.03212112560868263,1.7432302236557007,0.9988385438919067,0.04782171919941902,0.005908984690904617,0.05635261535644531,0.21769650280475616,-0.00900649931281805,0.19546072902185047,-0.6900154740595011,0.1638082349985162,0.6773778407229417,-0.047839964324996195,1.5767121134155375,2.627868493965435
1773063462040673024,3.0552639961242676,-0.5875387191772461,0.043792299926280975,1.8152390718460083,0.9995294809341431,0.029974043369293213,0.006510355044156313,0.12263238430023193,0.09240145236253738,-0.023447632789611816,0.18783625092284018,-0.689107124582041,0.16848308010132731,0.6793102108006878,-0.029978534357053027,1.5773096542917724,2.6322275446103363
1773063462050710016,3.065300941467285,-0.8005343675613403,-0.043712519109249115,1.8585028648376465,0.9999116063117981,0.01147355604916811,0.006728210020810366,0.2509734034538269,-0.04362381994724274,-0.045226097106933594,0.1791157674562154,-0.6882067755475004,0.17243995792358124,0.681581624541592,-0.01147380797614289,1.5775250299664403,2.6391766769367306
1773063462060745984,3.0753369331359863,-0.7278213500976562,-0.2208927869796753,1.877690315246582,0.9999586343765259,-0.007326505146920681,0.0054152910597622395,0.36916685104370117,-0.0027900654822587967,-0.02944791316986084,0.1701252045389399,-0.6868052772109833,0.17608565191335868,0.6843609324772209,0.007326570897239624,1.576211789204521,2.6469242455349233
1773063462070782976,3.085373878479004,-0.2011284977197647,-0.3439880907535553,1.9451791048049927,0.9996446371078491,-0.02653595805168152,0.0025334819220006466,0.3939863443374634,0.19619841873645782,-0.0695347785949707,0.16210059924382367,-0.6845433552595098,0.18074052043076155,0.6873548141853839,0.026539072715126667,1.5733307039110132,2.6517847591517447
1773063462080818944,3.095409870147705,0.23736442625522614,-0.43046051263809204,1.8717515468597412,0.9989480972290039,-0.045833561569452286,-0.001364052528515458,0.3336476683616638,0.345912903547287,-0.12815254926681519,0.15595726838308605,-0.6813844225892257,0.18717169220838875,0.6901878852327437,0.04584962471061387,1.5694308387345244,2.6513429018874706
1773063462090855936,3.1054468154907227,0.26149293780326843,-0.48203662037849426,1.6577659845352173,0.9979614019393921,-0.06355270743370056,-0.005852139089256525,0.2515045404434204,0.29885849356651306,-0.09052234888076782,0.15122144729830747,-0.677872230301548,0.19381220266091378,0.6928623227812525,0.0635955652785656,1.5649323003788074,2.6485960463122176
1773063462100891904,3.115482807159424,-0.0041557177901268005,-0.41299697756767273,1.5092324018478394,0.9967915415763855,-0.07938656210899353,-0.010229174979031086,0.17291682958602905,0.06914792209863663,0.09059721231460571,0.1465723959967784,-0.6746673996299657,0.19927195545467202,0.6954360259589941,0.0794701817516661,1.560534586448808,2.6474867741811368
1773063462110927872,3.125518798828125,-0.4208512306213379,-0.5153337121009827,1.2226184606552124,0.9955439567565918,-0.09308793395757675,-0.015069223940372467,0.15171873569488525,-0.22289106249809265,0.23389554023742676,0.14160641325982157,-0.6717829086242992,0.2029115863136836,0.6981993432455688,0.09322290334092984,1.55566080902868,2.6495635288216266
1773063462120965120,3.1355559825897217,-0.8106335997581482,-0.5295432806015015,1.0287028551101685,0.9943420886993408,-0.10411883890628815,-0.021048404276371002,0.1645018458366394,-0.41725870966911316,0.2159336805343628,0.13608316647823196,-0.6692078896896044,0.20405047957125136,0.7014310870629473,0.10430788652746795,1.549631316101843,2.65621089951183
1773063462131001088,3.145591974258423,-0.733608603477478,-0.3971487581729889,0.8419461250305176,0.9931992888450623,-0.11333049833774567,-0.026666540652513504,0.13598144054412842,-0.3006709814071655,0.06670559197664261,0.13057743235965338,-0.6670950645605852,0.20408553301769636,0.7044733101516703,0.11357451271706634,1.5439536417271504,2.664470875404263
1773063462141037824,3.1556289196014404,-0.48943838477134705,-0.319342702627182,0.633795976638794,0.9922426342964172,-0.12045467644929886,-0.030742496252059937,0.08258640766143799,0.0007036998867988586,-0.05485934019088745,0.12629103384773196,-0.6655429595259854,0.20416003764009646,0.7066977919871266,0.12074788332822935,1.5398233939133679,2.670841112002372
1773063462151074048,3.1656649112701416,-0.27685821056365967,-0.45068418979644775,0.5812348127365112,0.9913783073425293,-0.12626813352108002,-0.035006750375032425,0.1101994514465332,0.2406632900238037,-0.08402705192565918,0.12330579065740008,-0.6638126035847793,0.20457138835509261,0.7087306271957872,0.1266061003155453,1.535499801513332,2.674853269081275
1773063462161110784,3.175701856613159,-0.3764704167842865,-0.6601141691207886,0.5894938707351685,0.9904047250747681,-0.13199132680892944,-0.040949802845716476,0.23721063137054443,0.27844518423080444,0.013407707214355469,0.12079065914111439,-0.6614032127446996,0.20511189111926276,0.7112556552185584,0.13237761354235916,1.5294733289432114,2.6781159538313974
1773063462171146752,3.1857378482818604,-0.9192282557487488,-0.6688381433486938,0.5073609352111816,0.9893573522567749,-0.1371544599533081,-0.04858771339058876,0.3049541711807251,0.0448998361825943,0.14061349630355835,0.11745460136704465,-0.6587699621197884,0.20427501180035398,0.7144916563131896,0.13758814779488565,1.5217253746583603,2.68471282125451
1773063462181183744,3.195774793624878,-1.3337712287902832,-0.5490900874137878,0.34061822295188904,0.9884306788444519,-0.14084701240062714,-0.05627484619617462,0.21406865119934082,-0.17587965726852417,0.19274944067001343,0.11268360710532718,-0.6568026871032339,0.20117854594084164,0.7179413592304302,0.1413168968181569,1.513924194567239,2.696701329603733
1773063462191219712,3.205810785293579,-1.2785316705703735,-0.3232226073741913,0.05945339798927307,0.987883448600769,-0.14197766780853271,-0.0626797080039978,0.03843796253204346,-0.14879381656646729,0.1258968710899353,0.10802854947030248,-0.6557092501692801,0.19673719894667255,0.7208812101802794,0.14245903065990506,1.5074327774871252,2.710360378736121
1773063462201256960,3.215847969055176,-0.9302855730056763,-0.20190691947937012,-0.0495501384139061,0.9877449870109558,-0.14110592007637024,-0.06670118123292923,-0.07542198896408081,0.030433937907218933,-0.024210691452026367,0.10470119259248113,-0.6554158273932869,0.19256038523561622,0.7227643458816032,0.14157842738635612,1.5033699453880274,2.721501738746808
1773063462211292928,3.225883960723877,-0.49778321385383606,-0.29837432503700256,0.08902771025896072,0.9875712394714355,-0.14069366455078125,-0.07006096839904785,-0.026465773582458496,0.24658966064453125,-0.12615180015563965,0.10252293472286507,-0.6549266452933197,0.18984363111222557,0.7242372713217927,0.14116201229979758,1.4999722828844642,2.728810497021793
1773063462221329920,3.2359209060668945,-0.2129354178905487,-0.4797385036945343,0.21664004027843475,0.9870642423629761,-0.14199894666671753,-0.07443583011627197,0.11620736122131348,0.34991520643234253,-0.06393087655305862,0.101228466701235,-0.6535175330505691,0.18893628090503004,0.7259275642680729,0.14248053952464879,1.4955274581898106,2.732313843540666
1773063462231365888,3.2459568977355957,-0.2924334406852722,-0.5163792967796326,0.23493675887584686,0.9863423705101013,-0.14406731724739075,-0.07983313500881195,0.18774515390396118,0.19992974400520325,-0.009720683097839355,0.10011594048882404,-0.6515566047932886,0.1885667582245017,0.7279377514340337,0.14457039470493332,1.4900338141947291,2.73486376706492
1773063462241401856,3.255992889404297,-0.5212904214859009,-0.37460771203041077,0.125184565782547,0.9856908917427063,-0.14555875957012177,-0.08500546962022781,0.09257131814956665,-0.06626375019550323,0.043654151260852814,0.09855554554811041,-0.6498900070990867,0.18745730848360767,0.7299242834529216,0.14607771884527815,1.4847696917904547,2.7391127685251435
1773063462251438848,3.2660298347473145,-0.7101966738700867,-0.08831897377967834,-0.08671411126852036,0.9854653477668762,-0.14517873525619507,-0.08821044862270355,-0.086478590965271,-0.18265634775161743,0.03257692605257034,0.09668666569222054,-0.6493276857760604,0.1851170721855399,0.7312707315444951,0.14569361985312523,1.4815227800468274,2.7454094627807275
1773063462261474816,3.2760658264160156,-0.6451645493507385,0.06753607839345932,-0.24604330956935883,0.9857256412506104,-0.1428169161081314,-0.08915329724550247,-0.21527886390686035,-0.06541977822780609,-0.06616592407226562,0.09503577719723819,-0.6498538505904888,0.18197066483357366,0.7318092993824562,0.1433069272871281,1.4805974043171903,2.7523422912312663
1773063462271512064,3.2861030101776123,-0.18587657809257507,0.028695469722151756,-0.2461322546005249,0.9861419200897217,-0.13988979160785675,-0.08918949216604233,-0.23185431957244873,0.16259486973285675,-0.12743955850601196,0.09450730365650291,-0.6505084490995857,0.17956617910444916,0.7318900457466435,0.1403501184945876,1.4805988765890579,2.756494247012217
1773063462281548032,3.2961390018463135,0.19640560448169708,-0.08228800445795059,-0.20282557606697083,0.9864249229431152,-0.13770312070846558,-0.08946412801742554,-0.17842626571655273,0.2683030962944031,-0.09269529581069946,0.09544745128098421,-0.6505798209067145,0.17892410136846085,0.7318619550969357,0.1381420608225761,1.480348462641005,2.7560085882398844
1773063462291585024,3.306175947189331,0.2679298520088196,-0.09801717102527618,-0.24228748679161072,0.9866285920143127,-0.13581077754497528,-0.09010761976242065,-0.13856041431427002,0.18592064082622528,-0.03345804661512375,0.09711463596716666,-0.6502909954665026,0.1790748766283818,0.73186236796463,0.13623177886428103,1.4797201728451366,2.7533546964517472
1773063462301620992,3.3162119388580322,0.2218073159456253,-0.04317659139633179,-0.4374896287918091,0.9870038032531738,-0.1327681988477707,-0.09053263068199158,-0.14253664016723633,0.02842859923839569,0.04713660478591919,0.0992140093095785,-0.650181214201671,0.17888005373732363,0.7317259791096049,0.13316138132708816,1.4793275714627236,2.750522107083059
1773063462311657984,3.32624888420105,0.04221304506063461,0.06852011382579803,-0.6615988612174988,0.9877557158470154,-0.12732312083244324,-0.09015287458896637,-0.16268247365951538,-0.12263108789920807,0.08670437335968018,0.10171821980006449,-0.6506862418696228,0.1775696454164624,0.7312522749168346,0.1276696656575273,1.4797780925468509,2.748589426744353
1773063462321693952,3.336284875869751,-0.07035011798143387,0.013369443826377392,-0.6518366932868958,0.9886419773101807,-0.12060550600290298,-0.08967448025941849,-0.18020081520080566,-0.14039605855941772,0.07874917984008789,0.10406080755941863,-0.6514868315990827,0.1752930924272797,0.7307589644133055,0.12089981797506319,1.480339151837577,2.7482404477847395
1773063462331730944,3.3463218212127686,-0.016599005088210106,-0.18035873770713806,-0.546904981136322,0.9892690181732178,-0.11465349048376083,-0.09056096524000168,-0.16770535707473755,0.005461603403091431,0.05319220572710037,0.10615925292536064,-0.6517261359853609,0.17312584942196826,0.7307603376422784,0.11490618135896843,1.4795074499593817,2.7481793570385076
1773063462341766912,3.3563578128814697,-0.1897263079881668,-0.23267440497875214,-0.5935227274894714,0.9896913766860962,-0.10903213918209076,-0.09286041557788849,-0.1668764352798462,0.11133622378110886,0.047740161418914795,0.10814189815578236,-0.6514344473517085,0.17088871927626487,0.7312561476843571,0.10924933081197434,1.477242573442298,2.7484552782396614
1773063462351802880,3.366393804550171,-0.5763429999351501,-0.1021057516336441,-0.7421532273292542,0.9902324676513672,-0.10202870517969131,-0.09502479434013367,-0.22970396280288696,0.08934865146875381,0.042626090347766876,0.10950595487888591,-0.651558184627192,0.1672110490756471,0.7317928723728488,0.10220655722670254,1.475127166987212,2.751633464238591
1773063462361840128,3.3764309883117676,-0.8533498644828796,0.08252771198749542,-0.8576411008834839,0.9910160303115845,-0.09333879500627518,-0.09578718990087509,-0.303866982460022,0.014420345425605774,0.0593949556350708,0.11007863103057636,-0.6526055491456321,0.16190244724801464,0.7319674628244197,0.09347486024801215,1.4744401079888638,2.7581687708229965
1773063462371876096,3.3864669799804688,-0.8647652864456177,0.09262668341398239,-0.9530147910118103,0.9919186234474182,-0.08342505246400833,-0.09559030830860138,-0.32504862546920776,-0.07430506497621536,0.09659738838672638,0.11047493060784144,-0.6541768935874698,0.15574799702291428,0.7318403721049018,0.08352212410477723,1.4747239002477384,2.766077249252363
