time,seconds_elapsed,rotationRateX,rotationRateY,rotationRateZ,gravityX,gravityY,gravityZ,accelerationX,accelerationY,accelerationZ,quaternionW,quaternionX,quaternionY,quaternionZ,pitch,roll,yaw
1773062134890815488,0.11037945747375488,-0.08165783435106277,-0.029566273093223572,-0.13983586430549622,-0.00169929931871593,-0.34910574555397034,-0.9370818138122559,-0.011804730631411076,-0.014740079641342163,0.00884389877319336,-0.9829719927468945,-0.1771958180019331,-0.007793860488872396,-0.04803045781768343,0.3566166302390694,-0.0018133929368739626,0.09797412477167312
1773062134900851456,0.12041544914245605,-0.06016698479652405,-0.013344192877411842,-0.12275519967079163,-0.0014102696441113949,-0.3484134376049042,-0.9373399019241333,-0.010689952410757542,-0.031469374895095825,0.0202714204788208,-0.9830703287024107,-0.17683097814742657,-0.007801074844396643,-0.047356747776203995,0.355877955107711,-0.0015045434211932386,0.09654073353908527
1773062134910887424,0.13045144081115723,0.008120455779135227,-0.006607993505895138,-0.10079370439052582,-0.0011232768883928657,-0.34814131259918213,-0.9374414086341858,0.0075472267344594,-0.02501237392425537,0.009295046329498291,-0.9831234108183949,-0.17668582120354875,-0.00783735427149407,-0.04678770956146454,0.35558765526372305,-0.0011982363022582632,0.09532531733700828
1773062134920923392,0.1404874324798584,0.11592688411474228,0.032870739698410034,-0.036513034254312515,-0.0007538843783549964,-0.34872618317604065,-0.9372243881225586,0.016287341713905334,-0.00839051604270935,0.0015707015991210938,-0.9830841864164606,-0.17698628672675176,-0.007979481289703076,-0.04645243550570792,0.3562116104035069,-0.0008043796787314015,0.09457805028450315
1773062134930959360,0.15052342414855957,0.21607504785060883,0.045685335993766785,-0.026918727904558182,-0.00026353163411840796,-0.3502926826477051,-0.9366402626037598,0.013477634638547897,0.010860919952392578,-0.009908199310302734,-0.9829397142798015,-0.17779701314381485,-0.008252229482124554,-0.04636303931335322,0.3578835719278966,-0.00028135843614959935,0.09431648300979006
1773062134940995328,0.16055941581726074,0.2855609953403473,0.05493692681193352,-0.08049030601978302,0.0004189266765024513,-0.3526840806007385,-0.9357423782348633,0.0007865205407142639,0.029975950717926025,-0.01703166961669922,-0.9827226637172796,-0.17903792434949822,-0.008616188267718868,-0.04612352485064559,0.36043794390952943,0.0004476944215451243,0.09371845338778811
1773062134951030528,0.1705944538116455,0.2845814824104309,0.06771024316549301,-0.0537676103413105,0.0012514732079580426,-0.3553987145423889,-0.9347139596939087,-0.00202967319637537,0.035208314657211304,-0.006814360618591309,-0.9824762749523588,-0.1804470900184916,-0.0090481555470161,-0.045796590702906904,0.3633406002538448,0.0013388828811518108,0.09291348072042654
1773062134961066496,0.18063044548034668,0.21629509329795837,0.05649367719888687,-0.0022618963848799467,0.0019539911299943924,-0.35779905319213867,-0.9337965846061707,0.014281366020441055,0.025187969207763672,-0.0035660862922668457,-0.9822463182548777,-0.18169306349650927,-0.009452240197914576,-0.04572234290686179,0.36590983218171264,0.0020925203290546174,0.09264319698694481
1773062134971102464,0.19066643714904785,0.11616689711809158,0.027172541245818138,-0.002076274249702692,0.0023521739058196545,-0.3593604564666748,-0.9331958889961243,0.026547972112894058,0.0022895336151123047,0.0005939602851867676,-0.9820923234032949,-0.18250480973729236,-0.009698375936932404,-0.04574462267467602,0.3675824638262598,0.002520552103226494,0.09262164950635497
1773062134981138432,0.20070242881774902,0.03658339008688927,0.0034781305585056543,-0.03486546874046326,0.0025422838516533375,-0.3600369989871979,-0.932934582233429,0.0289213377982378,-0.018274158239364624,0.005627453327178955,-0.9820292671392155,-0.1828570791572947,-0.009798378903249968,-0.04567038369336017,0.3683075509874639,0.002725033018211024,0.09243771891120028
1773062134991174400,0.2107384204864502,-0.018802903592586517,0.0075636859983205795,-0.031599368900060654,0.0027232496067881584,-0.36010801792144775,-0.9329066276550293,0.031914208084344864,-0.021315932273864746,0.006484568119049072,-0.9820309721127211,-0.18289208466400983,-0.009856991090584433,-0.04548171547694965,0.3683836673402383,0.0029190936034705272,0.09201789181080085
1773062135001210368,0.22077441215515137,-0.1065414771437645,0.027793090790510178,0.06189218908548355,0.002829834586009383,-0.35952889919281006,-0.9331296682357788,0.03809424489736557,-0.007582306861877441,0.005380034446716309,-0.9820839354108718,-0.18258400618707823,-0.009911876237195905,-0.04556465425790896,0.3677629876393458,0.003032618111129674,0.09216127903667087
1773062135011245568,0.23080945014953613,-0.16764424741268158,0.028010137379169464,0.08897733688354492,0.002807983662933111,-0.3582186698913574,-0.9336335062980652,0.04000817611813545,0.004352092742919922,0.0048157572746276855,-0.9821906036647202,-0.1818906110256177,-0.009952867775185167,-0.04602558281563071,0.3663592490390743,0.0030075776110753353,0.09309458375351433
1773062135021281536,0.2408454418182373,-0.18229416012763977,0.00722636329010129,-0.010076187551021576,0.0028544832020998,-0.3565521240234375,-0.9342710375785828,0.0296009574085474,-0.0063934326171875,0.004049539566040039,-0.9823424906399285,-0.18101099590447778,-0.009974338353877834,-0.046245670049867744,0.36457485589646405,0.0030552956271585447,0.09352119483069046
1773062135031317504,0.2508814334869385,-0.2147493064403534,-0.0014390302821993828,-0.043352652341127396,0.0029741269536316395,-0.3547152280807495,-0.9349696636199951,0.025773433968424797,-0.02083408832550049,0.0011317729949951172,-0.9825280185053812,-0.18004446932056942,-0.009957881113725002,-0.04608213579542934,0.36260947686220396,0.0031809770171652425,0.09315138242623029
1773062135041353472,0.26091742515563965,-0.21142880618572235,0.008543463423848152,-0.008518194779753685,0.003122292459011078,-0.3526579439640045,-0.9357470870018005,0.04010585695505142,-0.0029023587703704834,0.008684098720550537,-0.982730889588492,-0.17896155896234842,-0.009960596135679881,-0.04597322101751898,0.3604100257592196,0.003336671658472177,0.09288613369968819
1773062135051389440,0.2709534168243408,-0.11859607696533203,-0.018695879727602005,0.043171897530555725,0.002981009893119335,-0.3510792553424835,-0.9363409876823425,0.05985467880964279,0.02234390377998352,0.004135787487030029,-0.9828778906696114,-0.17813534725577526,-0.009864083136260766,-0.04605871015215668,0.35872346617057654,0.003183668919909856,0.09307638122213688
1773062135061424384,0.2809884548187256,-0.031214699149131775,-0.00015808292664587498,0.06441211700439453,0.002702934667468071,-0.35040098428726196,-0.9365958571434021,0.05824066698551178,0.026823103427886963,-0.002292633056640625,-0.9829301251417745,-0.1777833431888223,-0.009754159269230919,-0.046327116318677405,0.357999183591588,0.002885905545470725,0.0936714137400098
1773062135071460608,0.29102444648742676,0.036770209670066833,0.027743056416511536,0.07608608156442642,0.0025918125174939632,-0.3504415452480316,-0.936581015586853,0.0381644144654274,0.032158464193344116,-0.013049721717834473,-0.9829097583174277,-0.17780378093323518,-0.009762454413746076,-0.04667901563403093,0.35804250504470453,0.002767305556762152,0.09440920860745947
1773062135081496576,0.30106043815612793,0.030884556472301483,0.030526427552103996,0.09576200693845749,0.0025824750773608685,-0.35081660747528076,-0.936440646648407,0.0052300309762358665,0.04797542095184326,-0.022604763507843018,-0.982853458236726,-0.17799647528492887,-0.00984583985705923,-0.047112057626178004,0.35844300279320634,0.0027577493741369878,0.09529500211311841
1773062135091532544,0.3110964298248291,-0.0023319851607084274,0.02012704871594906,0.1076093465089798,0.002469838596880436,-0.3509644865989685,-0.9363855123519897,-0.01341038104146719,0.04678049683570862,-0.022034287452697754,-0.9828138524915184,-0.17807148254205618,-0.009888625511440966,-0.0476424340901405,0.3586009002767078,0.002637623859923894,0.09639719939676468
1773062135101568512,0.3211324214935303,0.027941297739744186,-0.03372163325548172,0.10168660432100296,0.002046409994363785,-0.3510082960128784,-0.9363701343536377,-0.0030840064864605665,0.03277099132537842,-0.012284040451049805,-0.9827867275456111,-0.1781001523177264,-0.00976111859903708,-0.048118391351550716,0.3586477129343836,0.0021854677617669602,0.09744805832857606
1773062135111604480,0.33116841316223145,0.11202981323003769,-0.03125501424074173,0.17100203037261963,0.0012440637219697237,-0.3516687750816345,-0.9361236691474915,0.019126422703266144,0.010756909847259521,0.005047619342803955,-0.9826942073486393,-0.17846083247941832,-0.00948130348851949,-0.04872324093569235,0.35935314737457597,0.0013289515691362534,0.09884004888624087
1773062135121639424,0.3412034511566162,0.11637742072343826,0.008436869829893112,0.2109825611114502,0.00045834973570890725,-0.35277697443962097,-0.9357073307037354,0.03236330300569534,-0.0019593536853790283,0.013191461563110352,-0.9825405063684727,-0.17905336717084144,-0.009286081357047525,-0.049676676602571156,0.3605372312284914,0.000489843009158555,0.10094353003823556
1773062135131675392,0.3512394428253174,0.08098960667848587,0.012949596159160137,0.13922980427742004,-5.7355875469511375e-05,-0.3537066578865051,-0.9353563785552979,0.017925389111042023,0.008964836597442627,0.01570916175842285,-0.9824060685652968,-0.1795465319517904,-0.009211367884311875,-0.05056060703791947,0.36153099141334305,-6.131980934510495e-05,0.10285265138709847
1773062135141711360,0.36127543449401855,0.02895030379295349,-0.006611887831240892,0.06214367598295212,-0.0003711542231030762,-0.3542183041572571,-0.9351627230644226,-0.006296931765973568,0.011444926261901855,0.030163943767547607,-0.9823325194928542,-0.17981902122705049,-0.009152720173809364,-0.051032375290990965,0.36207805298610257,-0.00039688729776451683,0.10387975290707517
1773062135151747584,0.3713114261627197,-0.03231678158044815,0.010294923558831215,0.10277446359395981,-0.0006578508764505386,-0.3542124032974243,-0.935164749622345,-0.001966651761904359,-0.0035604238510131836,0.029067397117614746,-0.9823142174917191,-0.17982016062524306,-0.00907312288573866,-0.05139347561519362,0.362071727823179,-0.000703459724949196,0.10467100635932995
1773062135161783552,0.3813474178314209,-0.08036540448665619,0.040286846458911896,0.13164977729320526,-0.0008506921003572643,-0.353655070066452,-0.9353755116462708,0.014888773672282696,-0.016156941652297974,0.020656883716583252,-0.9823333617129747,-0.1795266478611639,-0.009078840937551664,-0.052046838129861266,0.3614758377049931,-0.0009094655967003181,0.10603292889740351
1773062135171819520,0.39138340950012207,-0.10158706456422806,0.050990622490644455,0.059308212250471115,-0.0007405054639093578,-0.35278844833374023,-0.9357028007507324,0.014717552810907364,-0.018076390027999878,0.013217508792877197,-0.9823888510924275,-0.17906384632671024,-0.009205053416222152,-0.052568928770347176,0.3605494965327998,-0.00079138942642271,0.10706489944604979
1773062135181854464,0.40141844749450684,-0.10345201194286346,0.059466034173965454,0.02310364693403244,-0.0003699076478369534,-0.35177889466285706,-0.9360830187797546,0.002384068677201867,-0.010266393423080444,0.00030732154846191406,-0.9824736446289727,-0.17852179778849014,-0.009404518455868578,-0.05279268677304734,0.3594707945097603,-0.0003951654092113573,0.10743745665688438
1773062135191890432,0.411454439163208,-0.04684891924262047,0.07673050463199615,0.031012704595923424,0.0001752261450747028,-0.35103803873062134,-0.9363611936569214,6.891573139000684e-05,0.00753214955329895,-0.0012151002883911133,-0.9825337924128452,-0.17811627430654792,-0.00969532984778351,-0.0529899705694878,0.3586794494976244,0.0001871352012376953,0.10772559148771128
1773062135201926400,0.4214904308319092,0.028924470767378807,0.08829984813928604,0.022708745673298836,0.0008659308077767491,-0.3509548008441925,-0.9363920092582703,-0.0003166130045428872,0.020083218812942505,-0.0036562085151672363,-0.9825310706086808,-0.17805172208521428,-0.0100788954396431,-0.053186020423939454,0.35859057872398936,0.0009247521892220634,0.10799012750288872
1773062135211962368,0.43152642250061035,0.04133107513189316,0.08266060054302216,0.014400748535990715,0.0016175470082089305,-0.3513253331184387,-0.9362520575523376,0.00010668928734958172,0.01718837022781372,-0.0073056817054748535,-0.9824859919558603,-0.17822366886920996,-0.01050262668834782,-0.05335941151241437,0.35898631102875994,0.0017276815955846318,0.10820111784617419
1773062135221998336,0.4415624141693115,-0.0071223462000489235,0.0769195556640625,0.03534730523824692,0.002307486953213811,-0.3515278995037079,-0.9361745715141296,0.0022701523266732693,0.013438910245895386,0.006563365459442139,-0.9824569286704382,-0.17830906545419514,-0.010890064720004545,-0.05353219725519284,0.35920265827432624,0.002464799146206405,0.1084210145944718
1773062135232033536,0.4515974521636963,-0.07877842336893082,0.0649595633149147,0.08775459229946136,0.002755496185272932,-0.3511302173137665,-0.9363225698471069,0.008368169888854027,0.0035655200481414795,0.022687315940856934,-0.9824751031882589,-0.17808404491334212,-0.011170390472128743,-0.053889625404506904,0.3587779065525665,0.0029428833550730394,0.10905830086928633
1773062135242069504,0.46163344383239746,-0.14311885833740234,0.032156046479940414,0.12321923673152924,0.0028562392108142376,-0.3500770032405853,-0.9367165565490723,0.016156209632754326,-0.017385125160217285,0.02831512689590454,-0.9825434869400028,-0.1775222754774679,-0.011294186419977155,-0.05446589571257869,0.35765331157844016,0.00304919372634759,0.11020262287253291
1773062135252105472,0.47166943550109863,-0.16463667154312134,0.016277216374874115,0.12244851887226105,0.002648883266374469,-0.3485866189002991,-0.937272846698761,0.02207035757601261,-0.03231850266456604,0.026399433612823486,-0.9826499413622354,-0.17673951078171674,-0.011257459057562594,-0.055096338162466375,0.3560627252376706,0.0028261527736644786,0.11151247540118318
1773062135262141440,0.4817054271697998,-0.14523433148860931,0.03917727246880531,0.12528328597545624,0.0024608003441244364,-0.34714174270629883,-0.9378094673156738,0.02144971676170826,-0.023616313934326172,0.024113178253173828,-0.9827505249673741,-0.17598046339184062,-0.011231901212949522,-0.05573207659298879,0.35452158349915397,0.0026239815255851115,0.11282917346287938
1773062135272177408,0.491741418838501,-0.15343821048736572,0.04894228279590607,0.14937902987003326,0.0024337100330740213,-0.3457518219947815,-0.9383228421211243,0.02262122929096222,-0.0050325095653533936,0.013182461261749268,-0.9828407254008255,-0.1752450909513502,-0.011301860892927118,-0.056441376428381276,0.3530398914600056,0.002593675047824255,0.11426491042579545
1773062135282213376,0.5017774105072021,-0.11698466539382935,0.01394698303192854,0.2205493003129959,0.0020825567189604044,-0.3444618880748749,-0.9387980103492737,0.02735164761543274,0.008387058973312378,0.013138830661773682,-0.9829074188653971,-0.17456932094488423,-0.011249645624593475,-0.05737595655274362,0.35166552479564656,0.0022183188869511665,0.11622096937955365
1773062135292248576,0.5118124485015869,-0.09778887033462524,0.01885572262108326,0.2592993378639221,0.0013838476734235883,-0.34350845217704773,-0.9391485452651978,0.03993694856762886,0.006060361862182617,0.04014652967453003,-0.9829243912239372,-0.17407731521004355,-0.011081881899669731,-0.058598836779497815,0.350650129581174,0.0014735120026941693,0.1188316665770952
1773062135302284544,0.5218484401702881,-0.17367836833000183,0.01724301092326641,0.27381905913352966,0.0006360413390211761,-0.3422556519508362,-0.9396066665649414,0.054951731115579605,-0.008757561445236206,0.028870582580566406,-0.9829613488637755,-0.1734299739779437,-0.010895551412666089,-0.05991977622843004,0.34931647249334424,0.0006769228984356587,0.12164673623237783
1773062135312320512,0.5318844318389893,-0.25512558221817017,0.003917085938155651,0.3235064446926117,-0.00027506606420502067,-0.3402041494846344,-0.9403515458106995,0.05230754613876343,-0.0134030282497406,0.02494633197784424,-0.9830588721720137,-0.1723695583664399,-0.010627716838282553,-0.061409940726916995,0.34713398036681414,-0.00029251406279793575,0.12482561826782854
1773062135322356480,0.5419204235076904,-0.2832059860229492,-0.03722705692052841,0.3687715232372284,-0.0016292186919599771,-0.3376300632953644,-0.9412775039672852,0.05257831886410713,-0.017686069011688232,0.053551673889160156,-0.983185380306476,-0.17105012667450853,-0.010154524704970087,-0.06312997127452985,0.34439798812267974,-0.0017308573800160622,0.12854426638175925
1773062135332392448,0.5519564151763916,-0.30358371138572693,-0.03805849328637123,0.3734632134437561,-0.003261500271037221,-0.33488306403160095,-0.9422540664672852,0.0668448731303215,-0.02699434757232666,0.07015323638916016,-0.9833159934187902,-0.16965219937834206,-0.009545019023072214,-0.06493591011343754,0.3414811330504564,-0.0034613671286361117,0.13248068074909722
1773062135342428416,0.5619924068450928,-0.32904738187789917,0.01277585793286562,0.3792322278022766,-0.004661019425839186,-0.3318764567375183,-0.943311333656311,0.07549231499433517,-0.029451638460159302,0.08494347333908081,-0.9834601060193907,-0.16811440318772836,-0.00904863714269801,-0.06679667556989094,0.33829207823805446,-0.004941084754998518,0.13647564187155886
1773062135352461824,0.5720257759094238,-0.08969072252511978,0.36931002140045166,-0.27776506543159485,-0.003955804277211428,-0.3292507231235504,-0.9442342519760132,0.07115551084280014,-0.030704110860824585,0.09129846096038818,-0.9836255509667723,-0.1667122437360424,-0.009481742129816626,-0.06780777346501078,0.33550993697151155,-0.004189406731961315,0.13836482339410203
1773062135362498048,0.5820620059967041,0.010306444950401783,0.09702575951814651,-0.5698611736297607,-0.0010846416698768735,-0.3293122351169586,-0.9442204833030701,0.06219609081745148,-0.06878957152366638,0.08855336904525757,-0.9837686671203923,-0.16666744803229228,-0.010570361773089546,-0.06564636152921403,0.3355750916784283,-0.001148716049946575,0.13345594787546444
1773062135372534016,0.5920979976654053,-0.3283640146255493,0.033003631979227066,0.028426196426153183,0.0005796197801828384,-0.32792916893959045,-0.9447021484375,0.09201072156429291,-0.18581900000572205,0.0701141357421875,-0.9839914903122899,-0.16590833754288867,-0.011106388292288862,-0.06412445467216493,0.3341106903899818,0.0006135475882827907,0.13004790615140205
1773062135382569984,0.6021339893341064,-0.47940173745155334,0.04548107460141182,0.7295960187911987,-0.0002454127825330943,-0.32382115721702576,-0.9461182951927185,0.16652043163776398,-0.11790552735328674,0.141232430934906,-0.9842149101507511,-0.16377517598107055,-0.010888167889354705,-0.06618221292652665,0.32976547226540415,-0.0002593891015409593,0.1343283156929981
1773062135392605952,0.6121699810028076,-0.4443734288215637,0.08535125851631165,0.855850338935852,-0.0023357500322163105,-0.3193989098072052,-0.9476174712181091,0.16029472649097443,0.0012074112892150879,0.1363687515258789,-0.984307621637963,-0.16150558312076174,-0.010354271901436932,-0.07033604395003107,0.3250951040688526,-0.0024648610090339854,0.14307646585998196
1773062135402640896,0.6222047805786133,-0.45272958278656006,0.13797414302825928,0.735471248626709,-0.0037912374828010798,-0.31513720750808716,-0.949038565158844,0.04405917227268219,-0.05212658643722534,0.094851553440094,-0.9843729337503406,-0.15930648977993656,-0.010108027543277241,-0.07435784605518447,0.3206012333659877,-0.003994798001296658,0.15143610062797883
1773062135412676864,0.6322407722473145,-0.5370771884918213,0.15871192514896393,0.8934552669525146,-0.004792109131813049,-0.3104745149612427,-0.9505696296691895,-0.0287314485758543,-0.09420385956764221,0.07825517654418945,-0.9844518835136185,-0.15688888340167506,-0.010053085952161795,-0.07835376061567621,0.31569216792371774,-0.005041259988383827,0.15965007475678655
1773062135422713088,0.6422770023345947,-0.5898605585098267,0.09292452782392502,1.0937556028366089,-0.006866016425192356,-0.30495625734329224,-0.952341616153717,0.05075029283761978,-0.06267377734184265,0.07085663080215454,-0.9844746861316744,-0.15406902134257486,-0.00958812288245485,-0.08354873917163348,0.3098924949506656,-0.007209490168901671,0.17045300842365008
1773062135432749056,0.6523129940032959,-0.5329567790031433,0.06151946261525154,0.9104548096656799,-0.009111199527978897,-0.29953622817993164,-0.9540414214134216,0.1866624802350998,-0.04413747787475586,0.08461087942123413,-0.9844684272861217,-0.1513226939525294,-0.008984953241807203,-0.08855910736969314,0.3042065259314456,-0.009549818909532774,0.1808934822963813
1773062135442785024,0.6623489856719971,-0.5918339490890503,0.08747303485870361,0.9500650763511658,-0.01110368873924017,-0.29412075877189636,-0.9557037949562073,0.19306474924087524,-0.10550692677497864,0.08282470703125,-0.9844658629994563,-0.1485839875034869,-0.008421141179276243,-0.09316057927130018,0.2985354621128038,-0.011617814512002419,0.19044643064513975
1773062135452820992,0.6723849773406982,-0.6256832480430603,0.06235116720199585,1.1007133722305298,-0.01335914060473442,-0.28811538219451904,-0.9575024843215942,0.14179237186908722,-0.11857709288597107,0.09309214353561401,-0.9844224240922498,-0.1455632916044813,-0.007750678491188195,-0.09830440046568954,0.292258187344471,-0.013951163502898285,0.20111336895404378
1773062135462855936,0.6824197769165039,-0.626269519329071,0.04703742638230324,1.2159134149551392,-0.016164526343345642,-0.28193992376327515,-0.9592958688735962,0.14421628415584564,-0.09092384576797485,0.10526144504547119,-0.984280137851349,-0.14249552501238621,-0.006861942335914338,-0.10411791154139087,0.2858154691684919,-0.016848812310963728,0.2132021088549221
1773062135472892160,0.6924560070037842,-0.6481748223304749,0.023410392925143242,1.2490767240524292,-0.019263293594121933,-0.27558472752571106,-0.9610837697982788,0.16025449335575104,-0.07379576563835144,0.10329568386077881,-0.9840645063711291,-0.13937053021808818,-0.005829218778548968,-0.11026702454326014,0.2791979292139821,-0.02004061954063392,0.22599037482710338
1773062135482928128,0.7024919986724854,-0.6622644066810608,-0.009049512445926666,1.290207028388977,-0.022668063640594482,-0.2690048813819885,-0.9628720283508301,0.17093771696090698,-0.06345361471176147,0.07827425003051758,-0.9837943367764846,-0.13617164620823663,-0.00461198844828663,-0.11655348182950608,0.2723596721785441,-0.023537786718126175,0.23907297678864964
1773062135492964096,0.7125279903411865,-0.7675474286079407,-0.05102705582976341,1.3850525617599487,-0.026491953060030937,-0.26184117794036865,-0.9647473096847534,0.1665981560945511,-0.08572351932525635,0.06037414073944092,-0.9834693033365544,-0.13272688436589722,-0.0031491963164920157,-0.12313341332053351,0.2649294451966249,-0.027453092314586588,0.25276817082614306
1773062135503000064,0.7225639820098877,-0.9295995235443115,-0.10090876370668411,1.4856576919555664,-0.030907021835446358,-0.2531965672969818,-0.9669210314750671,0.1555713266134262,-0.1225816011428833,0.010698497295379639,-0.9831141546423842,-0.12859928517159736,-0.0013098128158609093,-0.1301811809194492,0.25598308412792753,-0.031953491942470595,0.26741512164847625
1773062135513036032,0.7325999736785889,-1.030575156211853,-0.16777727007865906,1.5449572801589966,-0.036010485142469406,-0.2431093454360962,-0.9693302512168884,0.1471249759197235,-0.1405118703842163,-0.024047434329986572,-0.9827183795144209,-0.12383019218714626,0.000985074645388952,-0.13758512191503114,0.24557008736223526,-0.03713278782871742,0.28278387420745255
1773062135523070720,0.7426347732543945,-1.0344538688659668,-0.2065766453742981,1.5613800287246704,-0.041566673666238785,-0.23241132497787476,-0.9717289805412292,0.149553120136261,-0.14206987619400024,-0.04139357805252075,-0.982245081948913,-0.11883830246438817,0.0036017314264091614,-0.14511781034526414,0.23455616380673586,-0.04274993416891955,0.29839726323249616
1773062135533106944,0.7526710033416748,-0.9867635369300842,-0.20595532655715942,1.6092429161071777,-0.04718396067619324,-0.22180841863155365,-0.9739480018615723,0.15503308176994324,-0.13291266560554504,-0.033696651458740234,-0.9816496869664519,-0.11395757430528651,0.006298519544908313,-0.15276773037244623,0.2236686916000598,-0.04840822858992954,0.3142076306838877
1773062135543142912,0.762706995010376,-0.9137976765632629,-0.20396509766578674,1.6922426223754883,-0.05276326835155487,-0.2116546481847763,-0.975919246673584,0.13993673026561737,-0.1169128566980362,-0.023226261138916016,-0.9808808612064163,-0.10936091216803527,0.0089762244862412,-0.16072495491284353,0.2132676509296162,-0.054012614103857756,0.3306118669038154
1773062135553179136,0.7727429866790771,-0.8510721921920776,-0.1873541623353958,1.7712900638580322,-0.05828827992081642,-0.20206141471862793,-0.9776367545127869,0.10400360822677612,-0.10892798006534576,-0.008218348026275635,-0.9799101731687339,-0.10510449586277579,0.011604190367595333,-0.16909909232923642,0.20346229552149275,-0.05955111345748041,0.3478468583987666
1773062135563215104,0.7827789783477783,-0.7795091867446899,-0.17552021145820618,1.8360403776168823,-0.0636637955904007,-0.19293594360351562,-0.9791438579559326,0.0645640641450882,-0.12237168848514557,0.003130674362182617,-0.978748404149044,-0.10113315818650216,0.014148044503320011,-0.17783011898509063,0.1941534273366342,-0.06492846615310102,0.36578659141986003
1773062135573251072,0.7928149700164795,-0.7329915165901184,-0.1807921975851059,1.8404079675674438,-0.0688575729727745,-0.18430545926094055,-0.9804540276527405,0.039301298558712006,-0.15488216280937195,-0.0003809332847595215,-0.9774238925012856,-0.09745371439374134,0.016605729909393855,-0.18673426456418807,0.18536517011432085,-0.07011516268332525,0.38406508106743315
1773062135583286016,0.8028500080108643,-0.7542405724525452,-0.1923082172870636,1.7637076377868652,-0.07391668856143951,-0.17573997378349304,-0.9816576838493347,0.030032411217689514,-0.18600013852119446,-0.006699860095977783,-0.9760288980815262,-0.09384743857857361,0.01907407069977141,-0.19543952426642694,0.1766573858231372,-0.07515599820374821,0.4019105755890266
1773062135593321984,0.8128859996795654,-0.8432024121284485,-0.21140015125274658,1.676534652709961,-0.07885588705539703,-0.16656149923801422,-0.9828728437423706,0.038969412446022034,-0.19034157693386078,-0.034018635749816895,-0.9746561285748873,-0.08997089585818567,0.021652234108254124,-0.20367100120011505,0.16734142747952394,-0.08005852139884137,0.4187231102491785
1773062135603357952,0.8229219913482666,-0.9212249517440796,-0.2383744716644287,1.6185215711593628,-0.08371980488300323,-0.15650968253612518,-0.9841217994689941,0.045847490429878235,-0.17234773933887482,-0.07132863998413086,-0.9733057191286476,-0.08570009739338603,0.024384292165397194,-0.21151120223470435,0.15715579370426627,-0.08486623880069784,0.43465669030362375
1773062135613393920,0.8329579830169678,-0.9615744948387146,-0.2511240839958191,1.6027904748916626,-0.08859386295080185,-0.1457855999469757,-0.9853414297103882,0.02798595279455185,-0.14623712003231049,-0.10218298435211182,-0.9719314716065607,-0.081148552793608,0.027280174216748082,-0.2191347861038738,0.14630700428614712,-0.08967072403041282,0.4500864653294316
1773062135623429888,0.842993974685669,-0.9177781343460083,-0.27187925577163696,1.6035319566726685,-0.09339944273233414,-0.13494184613227844,-0.9864417314529419,-0.004653535783290863,-0.11769792437553406,-0.1361321210861206,-0.9704753839224817,-0.07658544902105288,0.030229370133105404,-0.22671227241536296,0.13535477312324845,-0.09440175407864164,0.46539105693994853
1773062135633464832,0.8530287742614746,-0.8326414227485657,-0.27245235443115234,1.61081862449646,-0.09817559272050858,-0.12469359487295151,-0.9873262047767639,-0.035079412162303925,-0.08039978891611099,-0.15119308233261108,-0.9689037375363044,-0.07236708090150831,0.03316468667815248,-0.2342834315672122,0.12501901209248725,-0.09911002900997445,0.48070588788712154
1773062135643501056,0.8630650043487549,-0.6771925687789917,-0.2802187204360962,1.6230144500732422,-0.10281050950288773,-0.11553832143545151,-0.9879680871963501,-0.043307654559612274,-0.03834656625986099,-0.1270526647567749,-0.967190183348826,-0.06872336538347505,0.03595923762219422,-0.24192402781207883,0.11579693357221188,-0.10368937419997547,0.4962190495994323
1773062135653537024,0.873100996017456,-0.4531978368759155,-0.2860339879989624,1.593388557434082,-0.10745113343000412,-0.10822743922472,-0.9883021116256714,-0.03355533629655838,0.0026366189122200012,-0.11986744403839111,-0.9653363855384987,-0.06603153419634766,0.038584684330353516,-0.2495529767213937,0.10843984214203946,-0.10829757942719488,0.5118346747149095
1773062135663572992,0.8831369876861572,-0.2418033629655838,-0.2580941319465637,1.5160900354385376,-0.111797995865345,-0.10310937464237213,-0.9883671998977661,-0.025180146098136902,0.02020837366580963,-0.12412059307098389,-0.963418097097119,-0.06440503073929875,0.04084613736956933,-0.2569223444953528,0.10329295517200293,-0.11263508212891286,0.5270543139255937
1773062135673608960,0.8931729793548584,-0.11488136649131775,-0.24292106926441193,1.4570339918136597,-0.11575333774089813,-0.0997084379196167,-0.988260805606842,-0.04824812710285187,0.0114363431930542,-0.10870879888534546,-0.9614845385857271,-0.06358472997591928,0.042738585222484214,-0.2639656037364396,0.09987439325162802,-0.11659707161721843,0.5417102562984015
1773062135683644928,0.9032089710235596,-0.07159248739480972,-0.23227694630622864,1.4391348361968994,-0.11951525509357452,-0.09712788462638855,-0.9880699515342712,-0.09380260854959488,-0.010843299329280853,-0.09185552597045898,-0.959526178585026,-0.0631587916761863,0.04445198661855089,-0.2708218718938389,0.09728125417017071,-0.12037350457329422,0.5560460594960583
1773062135693680128,0.9132440090179443,-0.07507563382387161,-0.2513403594493866,1.3968502283096313,-0.1232490986585617,-0.09471425414085388,-0.9878455400466919,-0.1255301982164383,-0.04375925660133362,-0.061394572257995605,-0.9575369705853892,-0.06283324183666872,0.04614324655010678,-0.2775709649580106,0.09485643814492316,-0.12412414524065103,0.570192654090357
1773062135703716096,0.9232800006866455,-0.16016815602779388,-0.28033608198165894,1.2884825468063354,-0.12712746858596802,-0.0918988510966301,-0.9876199960708618,-0.13138693571090698,-0.0771837830543518,-0.033025145530700684,-0.9556155028946411,-0.062342721794470646,0.04799375221201409,-0.2839170565417024,0.09202870099377503,-0.12801709608543352,0.5834981244055948
1773062135713752064,0.9333159923553467,-0.21589933335781097,-0.33441877365112305,1.1800940036773682,-0.1312793642282486,-0.08840169757604599,-0.9873960018157959,-0.1182323545217514,-0.07999429106712341,-0.0294191837310791,-0.9538277394334558,-0.06156202488261979,0.05012100663329266,-0.28967329582296636,0.0885172476623172,-0.13217991493318662,0.5955500363554846
1773062135723788032,0.9433519840240479,-0.17568306624889374,-0.388575941324234,1.134187936782837,-0.13585148751735687,-0.08487147092819214,-0.9870872497558594,-0.09650935232639313,-0.04060155153274536,-0.058063507080078125,-0.9521091012285637,-0.060835111132441916,0.052492594197520094,-0.295011649903921,0.08497369457882505,-0.13676942610921453,0.6067623302375892
1773062135733824000,0.953387975692749,-0.09317779541015625,-0.40895551443099976,1.1634362936019897,-0.14078190922737122,-0.08195865899324417,-0.9866424202919006,-0.08687922358512878,0.004001505672931671,-0.07671207189559937,-0.9503297060885498,-0.06048796871305646,0.054954564701655426,-0.3003241670717098,0.0820506935343963,-0.14173116859986007,0.6180063724113757
1773062135743859968,0.9634239673614502,-0.023501385003328323,-0.421326607465744,1.1947680711746216,-0.14584359526634216,-0.07967917621135712,-0.9860937595367432,-0.09579458832740784,0.027784042060375214,-0.07648253440856934,-0.9484341027570263,-0.06050612619481867,0.05737714284901771,-0.3058096767991214,0.07976372859100613,-0.14683585634573798,0.6296926197287037
1773062135753895168,0.973459005355835,0.07068262994289398,-0.44504180550575256,1.1908985376358032,-0.15105479955673218,-0.07812107354402542,-0.9854336977005005,-0.12299305200576782,0.032741427421569824,-0.07287013530731201,-0.9464485730294061,-0.060929595839942875,0.05975568933894671,-0.3113710851387564,0.07820075029861161,-0.15210368120665174,0.6416328146939592
1773062135763931136,0.9834949970245361,0.11756005883216858,-0.477169930934906,1.1688917875289917,-0.15653641521930695,-0.07730403542518616,-0.9846422672271729,-0.14397014677524567,0.026614345610141754,-0.04021424055099487,-0.944415463812092,-0.06177805590072274,0.06214762306346281,-0.3168606150449582,0.07738123599393922,-0.15765857036247705,0.6535317840312039
1773062135773967104,0.9935309886932373,0.08850417286157608,-0.497348427772522,1.1495732069015503,-0.16223709285259247,-0.07652198523283005,-0.9837802052497864,-0.13454635441303253,0.022566907107830048,-0.03283661603927612,-0.9423696955510589,-0.06270300647761441,0.06463919383904546,-0.32222586122890146,0.07659686445594176,-0.16344088313358185,0.6652142156799081
1773062135784003072,1.0035669803619385,0.03375597670674324,-0.5378262400627136,1.1192774772644043,-0.16817891597747803,-0.07527664303779602,-0.9828780889511108,-0.09929239749908447,0.03563431650400162,-0.01410067081451416,-0.9403278787842931,-0.06347070330015038,0.06732340042078674,-0.32744853798644225,0.07534792085637751,-0.16946745038015634,0.6765935993680274
1773062135794039040,1.0136029720306396,-0.019992472603917122,-0.6017082333564758,1.0533599853515625,-0.17463216185569763,-0.07346281409263611,-0.9818894267082214,-0.06935587525367737,0.04323514550924301,-0.0057967305183410645,-0.9383266689547233,-0.06406984542387414,0.07035869892180108,-0.3323972519305035,0.0735290510877343,-0.17601272958424655,0.6873933369138521
1773062135804073984,1.0236380100250244,-0.0650961622595787,-0.638580858707428,0.990835964679718,-0.1814827173948288,-0.0712311863899231,-0.9808109402656555,-0.0652824193239212,0.026568710803985596,0.010657131671905518,-0.9364046391487516,-0.06454743568773263,0.07367597137499769,-0.3369745027103567,0.07129156321042529,-0.1829639979149272,0.6974060285727808
1773062135814109952,1.0336740016937256,-0.0763339027762413,-0.6512660384178162,0.9755792617797852,-0.1885332465171814,-0.06871120631694794,-0.979660153388977,-0.0843396782875061,0.004029199481010437,0.02046215534210205,-0.9345142554844212,-0.06494327277643369,0.07715116296533499,-0.3413404176653997,0.06876539013078631,-0.19012321082912106,0.7069673891085696
1773062135824145920,1.0437099933624268,-0.08260205388069153,-0.6472688317298889,0.9628685116767883,-0.19557613134384155,-0.06607411801815033,-0.9784601330757141,-0.11011844873428345,-0.0030024200677871704,0.02069646120071411,-0.9326148790351866,-0.06531266971731209,0.08064862107222753,-0.34562908849103435,0.06612228866370953,-0.1972816645351765,0.7163648394081173
1773062135834182144,1.053745985031128,-0.05357493460178375,-0.6321300864219666,0.965073823928833,-0.20249982178211212,-0.06343834847211838,-0.9772253632545471,-0.12315325438976288,0.013603150844573975,0.02774721384048462,-0.9306904504625495,-0.06569588000841199,0.08409146056382205,-0.3498970409476507,0.0634809775923611,-0.2043273345437009,0.7257242967359133
1773062135844218112,1.063781976699829,0.04108286648988724,-0.6179953813552856,0.9703771471977234,-0.2092227339744568,-0.06139552965760231,-0.9759387373924255,-0.1264706254005432,0.03629482537508011,0.04979127645492554,-0.928711323347827,-0.06636211473137989,0.08733096232816188,-0.3542098086701861,0.06143416427062525,-0.211184440654379,0.7352514532370314
1773062135854254080,1.0738179683685303,0.13012699782848358,-0.5864193439483643,0.9835842847824097,-0.21571649610996246,-0.060184676200151443,-0.9745994806289673,-0.12447819113731384,0.02933141216635704,0.06316155195236206,-0.9266696998026165,-0.0674182045751596,0.09030522269691298,-0.35858466999487154,0.0602210706260202,-0.21782675485804845,0.7450173294099176
1773062135864289024,1.083853006362915,0.19244928658008575,-0.5377673506736755,1.0108895301818848,-0.22180750966072083,-0.059595562517642975,-0.9732676148414612,-0.12851901352405548,-0.00012733042240142822,0.08036905527114868,-0.924553044353213,-0.06873658905673935,0.09295960791325307,-0.36309147803892655,0.0596308958801937,-0.22407282149729194,0.7551423564959019
1773062135874324992,1.0938889980316162,0.23273731768131256,-0.5176210999488831,1.0195645093917847,-0.22751274704933167,-0.059384822845458984,-0.9719626307487488,-0.13883550465106964,-0.015154354274272919,0.07636332511901855,-0.9223666381548861,-0.07020240353757169,0.09534305978062013,-0.3677241290895951,0.05941978214026907,-0.22993576895848902,0.7655900654221859
1773062135884360960,1.1039249897003174,0.21873421967029572,-0.5206857919692993,0.9909650683403015,-0.2331644594669342,-0.05928334593772888,-0.970628559589386,-0.1431325227022171,-0.012677103281021118,0.05175960063934326,-0.9201624204341491,-0.071733442231996,0.0976730675647043,-0.37231088051435246,0.05931812448573905,-0.23575304639573272,0.7759825794888902
1773062135894396928,1.1139609813690186,0.21719038486480713,-0.5008566975593567,0.9684882164001465,-0.23877213895320892,-0.059053558856248856,-0.9692783355712891,-0.14419294893741608,-0.001783229410648346,0.04464155435562134,-0.9179899208086262,-0.07320741891736765,0.10000746572323647,-0.37674080271172766,0.05908793667525593,-0.24153110213860837,0.7860477234449058
1773062135904432896,1.1239969730377197,0.22986476123332977,-0.44910928606987,0.9693310260772705,-0.24394802749156952,-0.0589112751185894,-0.9679973125457764,-0.1543216109275818,0.0071687251329422,0.025812864303588867,-0.9158283277307832,-0.07465842691756623,0.10211492193595692,-0.38112613268513296,0.058945402941423225,-0.2468724704849402,0.7960246338685782
1773062135914469120,1.134032964706421,0.21302106976509094,-0.4316940903663635,0.9846556782722473,-0.2487754076719284,-0.05866817757487297,-0.9667827486991882,-0.1763649731874466,-0.005815468728542328,0.013367831707000732,-0.9136365258351791,-0.07602275340238618,0.10406333524128741,-0.38556400367167043,0.058701884035460304,-0.25185890639985087,0.8061048844218903
1773062135924504064,1.1440680027008057,0.17010590434074402,-0.4447026550769806,1.0067936182022095,-0.2536289393901825,-0.058024127036333084,-0.965559720993042,-0.1859462559223175,-0.02168779820203781,0.002440214157104492,-0.9113957503809128,-0.0772352442538362,0.10608891868789151,-0.3900483752102005,0.05805673475301309,-0.25687256896835703,0.8162640588917703
1773062135934540032,1.1541039943695068,0.1761811077594757,-0.4329349398612976,1.0138113498687744,-0.25846701860427856,-0.05710868909955025,-0.9643305540084839,-0.17524883151054382,-0.03833504766225815,-0.008249402046203613,-0.9090984999255808,-0.07835097693152403,0.10814735104898389,-0.39459506063493993,0.05713977815435139,-0.2618723513658484,0.8265504414781808
1773062135944576000,1.164139986038208,0.15937529504299164,-0.4284901022911072,0.9906874299049377,-0.2631736993789673,-0.05615551397204399,-0.9631127715110779,-0.15381848812103271,-0.058056529611349106,0.00806516408920288,-0.9067940912888232,-0.07944227501533957,0.1101478581143287,-0.39910017471619513,0.05618506814364264,-0.2667415634693051,0.8367586483243015
1773062135954611968,1.1741759777069092,0.09445754438638687,-0.4410673975944519,0.964509904384613,-0.2679348587989807,-0.05481677129864693,-0.9618763327598572,-0.1289309859275818,-0.07105298340320587,0.005821645259857178,-0.9045344353745562,-0.08037030518336079,0.11226066805856601,-0.4034300205658665,0.05484426013441817,-0.27166768503338384,0.8465570622932126
1773062135964647936,1.1842119693756104,0.02605518139898777,-0.43592116236686707,0.9570149779319763,-0.27271875739097595,-0.052791960537433624,-0.9606443047523499,-0.10429540276527405,-0.05791055038571358,0.033047258853912354,-0.9023062530954693,-0.08099581809102088,0.11453175994172242,-0.4076341135861912,0.05281651398715244,-0.27661364158000523,0.8560018194593483
1773062135974683904,1.1942479610443115,-0.03893260657787323,-0.4165589213371277,0.9188005328178406,-0.2772945165634155,-0.05012159422039986,-0.9594767093658447,-0.07593116164207458,-0.03416794538497925,0.0407755970954895,-0.9001358612311309,-0.08128565159885354,0.11685155035468889,-0.4116961395349902,0.05014260511318339,-0.2813402810523701,0.8650354849518694
1773062135984719104,1.2042829990386963,-0.07807761430740356,-0.41287124156951904,0.8565880060195923,-0.2817111909389496,-0.0470275804400444,-0.9583460688591003,-0.06406819820404053,-0.0285797119140625,0.03781390190124512,-0.8980709974172236,-0.08133675868568833,0.11921112540471841,-0.41550144025689156,0.04704493098527274,-0.28590228306397236,0.8734362517515578
1773062135994755072,1.2143189907073975,-0.10606130957603455,-0.40875959396362305,0.7786335349082947,-0.28605422377586365,-0.04382222145795822,-0.9572108387947083,-0.06601181626319885,-0.02623087540268898,0.04412490129470825,-0.8961469512149157,-0.0812972975294931,0.12159493537751155,-0.4189583606686427,0.04383625913582117,-0.29039351818202963,0.881051220022879
1773062136004791040,1.2243549823760986,-0.13107357919216156,-0.3954119086265564,0.7352885007858276,-0.2902680039405823,-0.040487583726644516,-0.9560884833335876,-0.06163012981414795,-0.02889411896467209,0.04724454879760742,-0.8943454821939426,-0.08115152872268235,0.1239765183661062,-0.4221259981895627,0.04049865271256975,-0.2947558330561361,0.8879992143072521
1773062136014827008,1.2343909740447998,-0.13651016354560852,-0.39360734820365906,0.6586979031562805,-0.2943275570869446,-0.03714143484830856,-0.9549826383590698,-0.04598921537399292,-0.028288260102272034,0.057933688163757324,-0.8926626003513441,-0.0809474385948091,0.12631785320255334,-0.4250233214552611,0.037149979655937804,-0.29896446637017055,0.89433524788251
1773062136024862976,1.244426965713501,-0.10892380774021149,-0.3598436415195465,0.5671355724334717,-0.29819273948669434,-0.03414958342909813,-0.9538946151733398,-0.022836923599243164,-0.01135212555527687,0.06592464447021484,-0.8911635557903359,-0.08082152871687807,0.12853242073985635,-0.4275217759046638,0.03415622527245049,-0.30298102566297114,0.8998229380388736
1773062136034898944,1.2544629573822021,-0.0579967126250267,-0.29083341360092163,0.5228645205497742,-0.3014868199825287,-0.03172525763511658,-0.9529423713684082,-0.0045739710330963135,0.010744422674179077,0.0638127326965332,-0.8898131391062961,-0.08080119982348162,0.1303839290063136,-0.42977183566730826,0.031730581777139194,-0.30641090375842883,0.9047964243943927
1773062136044934144,1.264497995376587,-0.02435053512454033,-0.21760684251785278,0.5053761601448059,-0.3040939271450043,-0.029763126745820045,-0.9521769881248474,0.0034805238246917725,0.03348627686500549,0.05908006429672241,-0.8885502039587152,-0.08083004878990688,0.13182565336415214,-0.4319340823529191,0.029767523443056314,-0.30912865268203654,0.9095880349830241
1773062136054970112,1.274533987045288,-0.031541869044303894,-0.14913484454154968,0.4866211414337158,-0.30599936842918396,-0.028030820190906525,-0.9516189694404602,0.018157601356506348,0.06413310021162033,0.056721508502960205,-0.8873617643339704,-0.0808007377571434,0.1328975304720967,-0.4340492597115503,0.028034493053821705,-0.3111143285792174,0.9142500760933048
1773062136065006080,1.2845699787139893,-0.09526585042476654,-0.08964881300926208,0.4895438551902771,-0.3072536587715149,-0.025961382314562798,-0.9512734413146973,0.03839379549026489,0.09764716774225235,0.056040287017822266,-0.8862507628088196,-0.08046346756362478,0.13374939657254026,-0.43611500376429807,0.02596429901822958,-0.31241460729512355,0.9186883105056787
1773062136075042048,1.2946059703826904,-0.21099218726158142,-0.04794131964445114,0.506047248840332,-0.30804187059402466,-0.023036692291498184,-0.951093852519989,0.061368316411972046,0.11420796811580658,0.017606914043426514,-0.8851709079198925,-0.0796350186310837,0.13457838681570486,-0.4382000469564649,0.023038730684624725,-0.31322009576921567,0.9229905928322141
1773062136085078016,1.3046419620513916,-0.42096778750419617,-0.027179846540093422,0.4873301088809967,-0.3084997236728668,-0.018504980951547623,-0.9510443806648254,0.09083309769630432,0.08408726006746292,-0.021276116371154785,-0.8841705913986947,-0.07798853806970366,0.1356303169046522,-0.4401868474492506,0.018506036707330052,-0.3136709774013428,0.9267832571150512
1773062136095112960,1.3146770000457764,-0.607222318649292,-0.016715487465262413,0.45144400000572205,-0.308786541223526,-0.012090918608009815,-0.9510545134544373,0.1056157648563385,0.03366685286164284,-0.011881887912750244,-0.8833169244849325,-0.07541248513400713,0.13706095606322696,-0.44190312624771255,0.012091213546260665,-0.31394070617414466,0.9296519992367577
1773062136105148928,1.3247129917144775,-0.6977961659431458,0.0005596387200057507,0.40651893615722656,-0.30891722440719604,-0.004484629258513451,-0.9510783553123474,0.09547728300094604,0.013487318530678749,0.005765855312347412,-0.8826006764368727,-0.0722242650244299,0.13872447407021934,-0.443345495005715,0.004484644111834316,-0.3140576394249849,0.9317093609155682
1773062136115184896,1.3347489833831787,-0.6977394819259644,0.05036075413227081,0.36024224758148193,-0.308704137802124,0.00340483570471406,-0.9511520266532898,0.07793024182319641,0.02276398241519928,0.015971362590789795,-0.8820128022952736,-0.06879678744642759,0.14032459112775184,-0.44455547394050987,-0.0034048422382310546,-0.31383221646160026,0.9331843941377539
1773062136125221120,1.3447849750518799,-0.618842601776123,0.10403487086296082,0.3128161132335663,-0.30794042348861694,0.010789616033434868,-0.9513444304466248,0.06314370036125183,0.06609942018985748,0.054264962673187256,-0.8815391901182069,-0.06544581077338289,0.14157901588613328,-0.44560173349014975,-0.010789825115727077,-0.3130463536493803,0.9343435547261862
1773062136135257088,1.354820966720581,-0.45444193482398987,0.1481032520532608,0.2556726634502411,-0.3066806495189667,0.01684977114200592,-0.9516633152961731,0.059350937604904175,0.12498066574335098,0.0827515721321106,-0.8811672679826114,-0.0625569762511883,0.1423199293320626,-0.44651543394778,-0.016850567715517295,-0.31174939924189776,0.9353889752278682
1773062136145293056,1.3648569583892822,-0.2616384029388428,0.1884480118751526,0.20217375457286835,-0.3050096333026886,0.020963424816727638,-0.9521185159683228,0.06920027732849121,0.14702057838439941,0.08934080600738525,-0.8808832040393438,-0.06043363922742235,0.14243776128868132,-0.44733004434110474,-0.02096496039030757,-0.310018935066336,0.9364918634689253
1773062136155328000,1.374891996383667,-0.13942459225654602,0.21915452182292938,0.13959026336669922,-0.30303317308425903,0.02333972044289112,-0.9526941776275635,0.07392245531082153,0.11922314763069153,0.09568428993225098,-0.8807028569568306,-0.05899817905026519,0.14202864633214488,-0.4480062772113036,-0.023341840054383726,-0.307960531038792,0.9375306476217345
1773062136165363968,1.3849279880523682,-0.1126054972410202,0.23635748028755188,0.08732421696186066,-0.3008207082748413,0.024827629327774048,-0.953357458114624,0.0656065046787262,0.08480677008628845,0.0927465558052063,-0.8806479604138401,-0.05787413849850521,0.14132177196865292,-0.44848402356049866,-0.02483018113885262,-0.3056503760528644,0.9382410467419111
1773062136175399936,1.3949639797210693,-0.12207169830799103,0.2476215958595276,0.04035485163331032,-0.29849502444267273,0.026118610054254532,-0.9540537595748901,0.06311294436454773,0.07440628111362457,0.07142436504364014,-0.8807119741967991,-0.05677715469372529,0.1405328423878494,-0.44874652918250274,-0.026121581035064012,-0.30322212438090484,0.9384892140866431
1773062136185435904,1.4049999713897705,-0.15046632289886475,0.2406303882598877,0.026337388902902603,-0.2961556613445282,0.02750806324183941,-0.954743504524231,0.0772225558757782,0.07402392476797104,0.03674423694610596,-0.8808600773268417,-0.055606120939271454,0.13977200815872692,-0.44883982207399653,-0.027511532942171523,-0.30078259847043937,0.9383430977425556
1773062136195472128,1.4150359630584717,-0.164289191365242,0.21894054114818573,0.039877165108919144,-0.29393014311790466,0.02913799323141575,-0.9553826451301575,0.10093697905540466,0.0529542937874794,0.01995784044265747,-0.8809867667237316,-0.054357105395243084,0.13911855026075787,-0.44894722413551874,-0.029142117581382104,-0.29846665923536514,0.9382077302308817
1773062136205508096,1.4250719547271729,-0.16844213008880615,0.18465767800807953,0.0038300398737192154,-0.2920010983943939,0.030783824622631073,-0.9559224247932434,0.12398660182952881,0.026589220389723778,0.042149901390075684,-0.8811155951680665,-0.05316310988261147,0.13860902928981936,-0.4489949733970501,-0.030788688518233312,-0.2964632178626856,0.9379593904780587
1773062136215543040,1.4351069927215576,-0.21250039339065552,0.17150592803955078,-0.04689306020736694,-0.2903234660625458,0.032523754984140396,-0.9563757181167603,0.13854429125785828,0.022285811603069305,0.044022202491760254,-0.8813402892105457,-0.051950410805972055,0.13825086663643577,-0.4488063555447187,-0.032529491683386216,-0.29472544036160075,0.9371821685189125
1773062136225579008,1.4451429843902588,-0.26017865538597107,0.17972740530967712,-0.0698692575097084,-0.28864970803260803,0.03464960679411888,-0.9568076133728027,0.13394084572792053,0.04347538948059082,0.059560298919677734,-0.8816561784595311,-0.050535947773146225,0.13799392966527377,-0.4484264971941913,-0.03465654495879476,-0.29299736981057534,0.9359228088065514
1773062136235614976,1.45517897605896,-0.24516400694847107,0.16295428574085236,-0.084990955889225,-0.2870175838470459,0.03687871992588043,-0.9572151899337769,0.1211850643157959,0.07982049882411957,0.08258140087127686,-0.8820146389176295,-0.049070499427626056,0.13778426840604877,-0.44794851564614974,-0.03688708389757633,-0.29131594549430195,0.9344353432849478
1773062136245650944,1.4652149677276611,-0.16142496466636658,0.16017697751522064,-0.06263615936040878,-0.2855239808559418,0.03868401423096657,-0.9575905203819275,0.10965114831924438,0.10136114805936813,0.05022662878036499,-0.8823594792277922,-0.047830547403193306,0.13753900224056434,-0.44747848878360375,-0.038693670585851436,-0.2897762843117521,0.9330377050757293
1773062136255686912,1.4752509593963623,-0.05185879021883011,0.1389494389295578,-0.03012322261929512,-0.2840622067451477,0.03952144458889961,-0.9579910039901733,0.0860183835029602,0.08935429155826569,0.05146634578704834,-0.8825758170426518,-0.047075513745913566,0.13707080353113557,-0.44727564900569833,-0.03953174082727567,-0.28825986432943357,0.9323826105461132
1773062136265722880,1.4852869510650635,-0.04457690939307213,0.13150496780872345,-0.031995780766010284,-0.2827862501144409,0.039816200733184814,-0.9583562016487122,0.07366454601287842,0.06400459259748459,0.007855713367462158,-0.8827557173590223,-0.04661702478997205,0.1365604229742104,-0.4471247508383636,-0.039826727687657326,-0.28693165407643656,0.9319303786515318
1773062136275758080,1.4953219890594482,-0.11160893738269806,0.11161728203296661,0.011928003281354904,-0.2815677225589752,0.040503982454538345,-0.958686113357544,0.07134735584259033,0.046471111476421356,-0.053887128829956055,-0.8828796562142762,-0.04600981297653302,0.1361618191645714,-0.44706452423217125,-0.04051506521817014,-0.28566853913795526,0.9316352836625622
1773062136285794048,1.5053579807281494,-0.22961972653865814,0.029799915850162506,-0.008881228044629097,-0.28087878227233887,0.04217947646975517,-0.9588159322738647,0.06414294242858887,0.029674161225557327,-0.06704771518707275,-0.8829487641700549,-0.04508368819451039,0.13623322184952708,-0.44700054330789757,-0.04219199181337518,-0.2849703178008074,0.9312305378569311
1773062136295830016,1.5153939723968506,-0.3555281162261963,-0.01674867793917656,-0.05414271354675293,-0.280862033367157,0.044895634055137634,-0.958697497844696,0.06256979703903198,-0.0031018108129501343,-0.07668763399124146,-0.8830885017907104,-0.04380588912207334,0.1368659672294537,-0.446658114891414,-0.04491073161462317,-0.2849875664442657,0.9300949457291281
1773062136305865984,1.5254299640655518,-0.4232722222805023,-0.02121090516448021,-0.04972466453909874,-0.28110527992248535,0.0485348105430603,-0.9584488272666931,0.04566216468811035,-0.006466332823038101,-0.06027364730834961,-0.8832853686227233,-0.04214520636610841,0.1378381533202665,-0.44612937096440364,-0.04855388420701518,-0.28529126199729826,0.9284312875518131
1773062136315901952,1.535465955734253,-0.3454541265964508,-0.0262160487473011,-0.00016110646538436413,-0.2813574969768524,0.05222029611468315,-0.9581810832023621,0.029770612716674805,0.03910355269908905,-0.07334351539611816,-0.8834049818917853,-0.040487198693932865,0.1388172995928996,-0.4457422878276295,-0.052244058304442384,-0.2856090830547824,0.9270851095488121
1773062136325937920,1.545501947402954,-0.18850578367710114,-0.020885998383164406,0.08604266494512558,-0.28156721591949463,0.054913491010665894,-0.9579688906669617,0.02813398838043213,0.0910673439502716,-0.07679063081741333,-0.8833492258825982,-0.039324535207923166,0.13953184003563263,-0.44573370596263545,-0.0549411288975739,-0.2858704919520248,0.9267249452449854
1773062136335973120,1.5555369853973389,-0.08552694320678711,0.00708784582093358,0.14523833990097046,-0.28157341480255127,0.056491341441869736,-0.9578753113746643,0.022311359643936157,0.10876134783029556,-0.0647839903831482,-0.8831063570257238,-0.0386845730167341,0.13987795935787212,-0.4461622354724767,-0.056521431148251186,-0.28590287304695833,0.9274908996288075
1773062136346009088,1.56557297706604,-0.10575437545776367,0.022402387112379074,0.14987076818943024,-0.2813425660133362,0.05776955932378769,-0.957866907119751,0.011612951755523682,0.07612632215023041,-0.03453421592712402,-0.8827916670557401,-0.03815361417725463,0.14003872141285284,-0.4467798065586188,-0.05780174135747456,-0.2856833878574553,0.9287139863960021
1773062136356045568,1.5756094455718994,-0.18425852060317993,0.027840828523039818,0.10192589461803436,-0.2810036838054657,0.059542614966630936,-0.9578578472137451,0.002256155014038086,0.019360583275556564,0.002962827682495117,-0.8825496826336366,-0.037352233583768886,0.14027080896111585,-0.44725278208998087,-0.05957785453484746,-0.28536024726433423,0.9295422660062731
1773062136366081536,1.5856454372406006,-0.22663046419620514,0.038236476480960846,0.04274468123912811,-0.2806566655635834,0.061763253062963486,-0.9578189253807068,0.000673145055770874,-0.021388500928878784,0.022851884365081787,-0.882450435354347,-0.03630075331103193,0.14061572190607077,-0.4474268011256302,-0.06180258975946401,-0.28503758115005606,0.9296369887249516
1773062136376117504,1.5956814289093018,-0.15927912294864655,0.03816217556595802,0.070163793861866,-0.2802613079547882,0.06382421404123306,-0.9577996134757996,0.010119706392288208,-0.028820544481277466,0.01801079511642456,-0.8824001799501537,-0.03529607225369049,0.140905611578777,-0.44751494567943356,-0.0638676244739416,-0.2846628560417188,0.9295573549651176
1773062136386153472,1.605717420578003,0.03133196756243706,0.015191278420388699,0.15631048381328583,-0.27991268038749695,0.06479491293430328,-0.957836389541626,0.040059804916381836,-0.0011657550930976868,0.03500008583068848,-0.8821623227568982,-0.034856043647959994,0.14094990416792308,-0.4480041604961402,-0.06484033494310618,-0.2843172143315722,0.9305287093627027
1773062136396188416,1.6157524585723877,0.16154590249061584,-0.07116145640611649,0.08606187999248505,-0.2800586521625519,0.06416675448417664,-0.9578359723091125,0.08833196759223938,0.025951653718948364,0.04507046937942505,-0.8818227374427351,-0.035279165321846905,0.14084525166612136,-0.4486721858154911,-0.06421086843026402,-0.28445770442449136,0.9321292440122393
1773062136406224384,1.6257884502410889,0.16092358529567719,-0.10452630370855331,-0.1217803955078125,-0.28095242381095886,0.06247483566403389,-0.9576860666275024,0.14121246337890625,0.04009474068880081,-0.0003217458724975586,-0.8817625015937965,-0.036255749989086615,0.14086333475555796,-0.4487071041824425,-0.06251554895656641,-0.28535940485982186,0.9324616501017511
1773062136416260608,1.63582444190979,0.09714433550834656,-0.07906035333871841,-0.2292298972606659,-0.28195077180862427,0.06067540496587753,-0.957508385181427,0.16937142610549927,0.08153650909662247,-0.012920081615447998,-0.8820928855607818,-0.03718027823902286,0.1409377492481413,-0.44795777883459004,-0.060712695655725346,-0.2863692481792437,0.9310363607037546
1773062136426296576,1.6458604335784912,-0.11272287368774414,-0.08578590303659439,-0.12135206907987595,-0.2828443944454193,0.060189709067344666,-0.9572754502296448,0.1642683744430542,0.13117076456546783,-0.007568299770355225,-0.8824590719101713,-0.03747376275555966,0.14127279402447618,-0.4471060200684732,-0.06022611148991422,-0.28729397241726123,0.9292077523446787
1773062136436332544,1.6558964252471924,-0.1203208714723587,-0.03504868596792221,0.03831056132912636,-0.2834877073764801,0.0613940991461277,-0.9570086002349854,0.1276191771030426,0.1545787900686264,-0.011115789413452148,-0.8825109682739091,-0.037044672927015,0.14185691079740007,-0.4468543668312894,-0.06143273346290292,-0.28798781823111413,0.9285100299488639
1773062136446368512,1.6659324169158936,-0.06951814889907837,0.00978163257241249,-0.015803182497620583,-0.2835369110107422,0.06229396164417267,-0.9569358825683594,0.07114982604980469,0.10202793776988983,0.000988006591796875,-0.8824796592727427,-0.036655530220038264,0.14208599054075222,-0.44687545318020583,-0.06233432271980018,-0.2880557807345913,0.9284436082270354
1773062136456403456,1.6759674549102783,-0.05611205846071243,-0.014555131085216999,-0.036951079964637756,-0.28352996706962585,0.06291278451681137,-0.9568974375724792,0.023718595504760742,0.004210613667964935,-0.06402230262756348,-0.8825815373055974,-0.036340056386830126,0.1422345634872426,-0.44665272600980876,-0.06295436112108929,-0.2880600555425571,0.9278586598765101
1773062136466439424,1.6860034465789795,0.31828758120536804,-0.06476693600416183,0.05140900984406471,-0.28392356634140015,0.06182687357068062,-0.9568515419960022,0.039187848567962646,0.0010851025581359863,-0.0325130820274353,-0.8825187952657941,-0.03693676473574968,0.14216155449123627,-0.4467510705198864,-0.06186633250632195,-0.2884512289162556,0.9282390187483472
1773062136476475392,1.6960394382476807,0.51715087890625,-0.18185681104660034,0.1270318627357483,-0.2849741578102112,0.05774562060832977,-0.9567942023277283,0.11238199472427368,-0.001623794436454773,0.015113294124603271,-0.8821516524417965,-0.0391300176599746,0.1416747470864899,-0.4474433276778491,-0.05777776201857782,-0.28947643025042935,0.9303870132685074
1773062136486511360,1.7060754299163818,0.5333122611045837,-0.3288583755493164,0.23753102123737335,-0.28735265135765076,0.0533386766910553,-0.9563385248184204,0.18160927295684814,-0.02059331163764,-0.10030204057693481,-0.8814543007529687,-0.0418535739253984,0.14170039692396702,-0.4485615565004212,-0.05336399970909076,-0.2918894778067058,0.9336195872763707
1773062136496547584,1.716111421585083,0.608513593673706,-0.4304068386554718,0.19443228840827942,-0.29090651869773865,0.048471078276634216,-0.9555228352546692,0.24163588881492615,0.060003653168678284,-0.13880693912506104,-0.8805341404808715,-0.04510404304299343,0.14214145386818855,-0.4499123024465177,-0.04849007813971299,-0.2955320453941947,0.9375253042085663
1773062136506583552,1.7261474132537842,0.49670717120170593,-0.4946978986263275,0.07801420986652374,-0.2953256070613861,0.04342815279960632,-0.954409122467041,0.2674630582332611,0.04676654934883118,-0.20271062850952148,-0.8797680941367971,-0.048568879117728385,0.1429563005659286,-0.4507910943665793,-0.04344181647384979,-0.3000882442702637,0.9404643168203666
1773062136516618496,1.736182451248169,0.34825751185417175,-0.49401959776878357,-0.007906289771199226,-0.3000613749027252,0.039520494639873505,-0.953100860118866,0.2261020541191101,-0.022293325513601303,-0.27762722969055176,-0.8792180117440482,-0.05151918610695951,0.14420586677264224,-0.4511386794447695,-0.03953079073750307,-0.30500295060221344,0.9420901972669941
1773062136526654464,1.7462184429168701,0.16294752061367035,-0.51728355884552,-0.033038582652807236,-0.304889440536499,0.03701375797390938,-0.9516682028770447,0.1841466724872589,-0.022517915815114975,-0.26529645919799805,-0.878853126794497,-0.053796279981492515,0.1458487055850045,-0.45105581637883263,-0.03702221298858993,-0.3100418569436552,0.9425684185481125
1773062136536690432,1.7562544345855713,0.07213026285171509,-0.5377299785614014,0.0449206605553627,-0.3099241554737091,0.03592272847890854,-0.9500824213027954,0.2015562355518341,0.018352780491113663,-0.2730773687362671,-0.878413161169417,-0.05550087877379185,0.14791364790468484,-0.45103388144435735,-0.03593045924891614,-0.31532378270429,0.9430091839382655
1773062136546726400,1.7662904262542725,-0.13752909004688263,-0.573686420917511,-0.039859648793935776,-0.3152340054512024,0.03614857792854309,-0.9483252763748169,0.2567775845527649,0.05186411365866661,-0.1779259443283081,-0.8779633373375693,-0.056670807733164935,0.1504187090681287,-0.450935797279005,-0.03615645533397008,-0.32092047775244426,0.9431090262532298
1773062136556762368,1.7763264179229736,-0.3364885151386261,-0.5400410890579224,-0.18726587295532227,-0.3206363916397095,0.03817101567983627,-0.9464329481124878,0.2562748193740845,0.04480627924203873,-0.08426773548126221,-0.8778711195787914,-0.05692366143235487,0.1534380492093621,-0.45006532878621675,-0.038180290792934106,-0.32664816857251394,0.9411846833764144
1773062136566798336,1.7863624095916748,-0.24997186660766602,-0.45431482791900635,-0.21863818168640137,-0.3254282474517822,0.04046870395541191,-0.9447003602981567,0.13409826159477234,0.09225224703550339,0.007703900337219238,-0.8780496671122529,-0.05682277081262041,0.1562721940934451,-0.44875268121472617,-0.04047975639244289,-0.3317467625571531,0.9381651640139458
1773062136576833536,1.7963974475860596,0.22006486356258392,-0.3415965437889099,-0.11093436181545258,-0.3292568325996399,0.04025508090853691,-0.9433819055557251,-0.017285466194152832,0.15490484237670898,0.027244269847869873,-0.8781395712363099,-0.05768563521732602,0.1580550754310573,-0.4478412257394383,-0.040265959448295675,-0.33579931439075905,0.9363872780264483
1773062136586869504,1.8064334392547607,0.7078225016593933,-0.2811651825904846,0.08906632661819458,-0.3321448862552643,0.035684507340192795,-0.9425531029701233,-0.10659104585647583,0.1387692242860794,-0.009458005428314209,-0.877776934878666,-0.06049131448148448,0.1583169057217259,-0.4480894473029817,-0.03569208603325058,-0.3388010883064419,0.937890782903952
1773062136596905472,1.816469430923462,0.5972512364387512,-0.2546273171901703,0.098251573741436,-0.3346249461174011,0.029381416738033295,-0.9418932199478149,-0.14219695329666138,-0.015450147911906242,-0.05809152126312256,-0.8771048789314165,-0.06410660450959188,0.1579358142912302,-0.44903636575356937,-0.02938564595005089,-0.34136057223923516,0.9412630646843201
1773062136606941440,1.826505422592163,0.006668367423117161,-0.3381009101867676,0.0983891636133194,-0.3373737335205078,0.026679938659071922,-0.9409926533699036,-0.1713542938232422,-0.22632594406604767,-0.08528298139572144,-0.876578404187352,-0.06609175039885741,0.15854197266469477,-0.4495627847413471,-0.026683105499526384,-0.3442532752990596,0.9431276355658588
1773062136616977408,1.8365414142608643,-0.0366751104593277,-0.34676283597946167,0.4856434166431427,-0.34046855568885803,0.028485991060733795,-0.9398242831230164,-0.18154984712600708,-0.3018929958343506,-0.08263659477233887,-0.8756697174281077,-0.06624254907131306,0.16031149546509213,-0.45068252478239484,-0.028489844509872193,-0.3475621941521749,0.9456303641026601
1773062136627013376,1.8465774059295654,-0.12824538350105286,-0.2620753049850464,0.6288042068481445,-0.34332728385925293,0.030752066522836685,-0.9387122392654419,-0.10818025469779968,-0.3879145383834839,-0.06679612398147583,-0.8741643537171375,-0.06635268424183027,0.16199135252040314,-0.4529821118364208,-0.03075691630162991,-0.350630214954804,0.9507364576136726
1773062136637048576,1.8566124439239502,-0.42976313829421997,-0.22137635946273804,0.6240203976631165,-0.34529396891593933,0.03581971302628517,-0.9378107786178589,-0.03689292073249817,-0.5177533030509949,-0.05637562274932861,-0.8726236543830004,-0.06502518109239416,0.16390957308751353,-0.45544849068394416,-0.03582737722324691,-0.35278828618081165,0.955687864855684
1773062136647084544,1.8666484355926514,-0.2900717556476593,-0.1521049588918686,0.5085131525993347,-0.34687525033950806,0.041255757212638855,-0.937003493309021,-0.08767980337142944,-0.34919339418411255,0.072562575340271,-0.8712677046853404,-0.06338863913969864,0.16577134410964361,-0.45759629568334215,-0.04126746985146968,-0.3545525960289485,0.959824900427674
1773062136657120512,1.8766844272613525,-0.3425232470035553,-0.030734868720173836,0.29813969135284424,-0.347576767206192,0.04546744003891945,-0.9365485310554504,-0.0801270604133606,-0.19497305154800415,0.13666754961013794,-0.8703424467895875,-0.06196711725070157,0.16699049504895286,-0.4591059669836616,-0.04548312082437971,-0.3553692922115836,0.9626410597583667
1773062136667156480,1.8867204189300537,-0.5859604477882385,0.03224273398518562,-0.013034826144576073,-0.3474208414554596,0.05016431212425232,-0.9363665580749512,-0.0807102620601654,-0.10039623826742172,0.15751218795776367,-0.8701414312511195,-0.05988061080027009,0.16802096910096886,-0.4593876395019251,-0.050185375252281755,-0.3552863042026383,0.9624952023512586
1773062136677192448,1.8967564105987549,-0.9452962279319763,0.05263429135084152,-0.5783964991569519,-0.3472221791744232,0.05630466341972351,-0.9360911250114441,-0.06734386086463928,0.1616213619709015,0.1975352168083191,-0.8710552554171181,-0.056717609684487476,0.16952156807934918,-0.4575022780351141,-0.05633445533388614,-0.3551957175949674,0.9571368799489938
1773062136687228416,1.906792402267456,-1.2720584869384766,0.12519976496696472,-0.9741984009742737,-0.3468809127807617,0.06396882981061935,-0.935725212097168,-0.02094745635986328,0.48447781801223755,0.18572521209716797,-0.8732950977781311,-0.052319891299226436,0.17146438493810004,-0.4530102350273174,-0.06401254086309043,-0.3550026093843894,0.9455618126247581
1773062136697263360,1.9168274402618408,-1.0364941358566284,0.28040239214897156,-0.6470977663993835,-0.3455235958099365,0.07233783602714539,-0.9356178045272827,-0.05173897743225098,0.793751060962677,0.18035352230072021,-0.8756971757025473,-0.04729678802306685,0.17307256101422283,-0.44828931923375354,-0.07240107052707195,-0.3537640132653923,0.9333333135988512
1773062136707299584,1.926863431930542,-0.10939372330904007,0.3675662577152252,-0.23792612552642822,-0.3427291512489319,0.07643502205610275,-0.9363195896148682,-0.03388825058937073,0.9381065964698792,0.10790467262268066,-0.8770513438438043,-0.04432597440807099,0.17284503470078716,-0.44602765856459475,-0.07650964396680678,-0.35089108949165904,0.927364983140334
1773062136717335552,1.9368994235992432,0.17315301299095154,0.3470655083656311,-0.5146636962890625,-0.3395679295063019,0.07422114908695221,-0.9376485347747803,0.006438076496124268,0.6327948570251465,0.013728916645050049,-0.8780868375359127,-0.04430347130647249,0.17091788046558734,-0.444733284589011,-0.07428946486482645,-0.3474562011423446,0.9245925860147702
1773062136727371520,1.9469354152679443,-0.2551937997341156,0.27588707208633423,-0.7758838534355164,-0.3372800648212433,0.07222579419612885,-0.9386296272277832,-0.07928484678268433,0.11063552647829056,-0.05360358953475952,-0.8798678939917126,-0.04407544349467729,0.16953622452442912,-0.4417549335781172,-0.07228873487679777,-0.3449644556867661,0.918004968349352
1773062136737407488,1.9569714069366455,-0.1864112764596939,0.5503042340278625,-0.3019903600215912,-0.33400097489356995,0.07283074408769608,-0.9397547841072083,-0.20107898116111755,-0.18707330524921417,-0.03921860456466675,-0.8815279217362227,-0.042504768048728186,0.16827345964346818,-0.4390740638129062,-0.07289528423295324,-0.3414888577376443,0.9116515053221848
1773062136747443456,1.9670073986053467,0.2321130633354187,0.8212037086486816,0.2821441888809204,-0.3275516629219055,0.0723109021782875,-0.9420621395111084,-0.22081869840621948,-0.3879389762878418,0.0343625545501709,-0.8820677345383016,-0.0412507549073943,0.16512815904597097,-0.43930370000727137,-0.07237406871698697,-0.33462118843710903,0.9119261031052692
1773062136757478400,1.9770424365997314,-0.6381333470344543,1.0632340908050537,0.3970382809638977,-0.31819072365760803,0.07458649575710297,-0.9450880885124207,-0.16006550192832947,-0.6750656366348267,0.25563496351242065,-0.8820295275524256,-0.038335536352783306,0.16120277505165775,-0.4410986345223301,-0.07465582750444895,-0.32475805852109696,0.9152116347391906
1773062136767514368,1.9870784282684326,-1.4571613073349,0.718996524810791,-0.480259507894516,-0.3094785511493683,0.08536119759082794,-0.9470673203468323,-0.059814661741256714,-0.7222020030021667,0.5418549180030823,-0.882906815419301,-0.03130267904630899,0.1596448717207244,-0.44046479605998007,-0.08546520031250515,-0.31583708372641917,0.9118849339692514
1773062136777550336,1.9971144199371338,-1.4549847841262817,0.31508737802505493,-1.4788538217544556,-0.30569276213645935,0.09629060328006744,-0.9472486972808838,0.13126954436302185,-0.41643524169921875,0.4392378330230713,-0.8857831159629399,-0.024449426146255202,0.1605549363228667,-0.4347557963717349,-0.09644002408937824,-0.3121651534208832,0.8973580441003143
1773062136787586560,2.007150411605835,-1.3700250387191772,0.42923808097839355,-1.0451160669326782,-0.3038806915283203,0.10549812018871307,-0.9468509554862976,0.3004321753978729,-0.08866767585277557,0.09394568204879761,-0.8891531599309618,-0.018559194643234526,0.16195706390431158,-0.4275887984143848,-0.10569480268026668,-0.3105538071417348,0.8799331767201725
1773062136797622528,2.017186403274536,-0.8948377370834351,0.5636321306228638,0.2767457664012909,-0.29942911863327026,0.11554402858018875,-0.9470965266227722,0.5052549242973328,0.34984904527664185,-0.2516797184944153,-0.8904877065632528,-0.012506292376441191,0.1621583861532636,-0.4249469571977739,-0.11580267683873037,-0.30621105013530014,0.872605619355199
1773062136807658752,2.0272226333618164,0.09849569201469421,0.4542838931083679,0.9513970017433167,-0.2936643362045288,0.12153182178735733,-0.9481515288352966,0.6027005910873413,0.6955457925796509,-0.22795015573501587,-0.889465987899468,-0.008983595709196716,0.160759257312718,-0.4276986303185241,-0.12183299926760915,-0.3003529317749449,0.8779616908562821
1773062136817693440,2.037257432937622,0.8869516849517822,0.4819927513599396,0.5436699986457825,-0.2884441912174225,0.11877121031284332,-0.9501017332077026,0.3185192346572876,0.5418275594711304,-0.12491047382354736,-0.8880815140134612,-0.009764574132208083,0.15765079177460536,-0.4316968101709431,-0.1190522429716323,-0.29474979321256056,0.887238640640216
1773062136827729408,2.0472934246063232,1.1173595190048218,0.8156794905662537,-0.1842854917049408,-0.2821354568004608,0.10951858013868332,-0.9531029462814331,-0.18666031956672668,0.14257186651229858,-0.0828467607498169,-0.8881521297698689,-0.01278804255907175,0.1525941803740641,-0.4332866264643986,-0.10973870445869204,-0.2877994323974824,0.8918469298301643
1773062136837765376,2.0573294162750244,1.1044028997421265,1.0532691478729248,-0.43585753440856934,-0.2734108865261078,0.09765961766242981,-0.9569268822669983,-0.5271567106246948,-0.09172394871711731,0.03927856683731079,-0.8895459377540689,-0.01605268127089904,0.1458727646587631,-0.4326332342963073,-0.09781552365193875,-0.278302762979918,0.8916304810355766
1773062136847801344,2.0673654079437256,0.9799448251724243,0.9709872603416443,-0.18369941413402557,-0.2637704610824585,0.0869050845503807,-0.9606626033782959,-0.503639817237854,-0.1581636369228363,0.1829221248626709,-0.8909076260557572,-0.018627207481030184,0.13900258990080208,-0.4319895297833155,-0.08701484965092988,-0.26796767515267755,0.891232470590218
1773062136857837312,2.0774013996124268,0.8389596939086914,0.5758572220802307,0.04671141505241394,-0.2561894655227661,0.07775460183620453,-0.9634942412376404,-0.189565509557724,-0.15119516849517822,0.24567508697509766,-0.8914646233983502,-0.02112613071070112,0.13344121706261355,-0.43247880274920497,-0.07783316103002959,-0.25988293325029077,0.8931905202309695
1773062136867873792,2.087437629699707,0.4358596205711365,0.21896576881408691,0.0659443661570549,-0.2524931728839874,0.07170920073986053,-0.9649378061294556,0.13367298245429993,-0.11402182281017303,-0.024350523948669434,-0.8915072397910602,-0.02313408438171959,0.13036834924660565,-0.4332248185665863,-0.07177080141294645,-0.2559296361919002,0.8954449555087741
1773062136877908480,2.0974724292755127,0.16472077369689941,-0.009219454601407051,0.10818183422088623,-0.25147658586502075,0.06919433921575546,-0.9653868079185486,0.25857192277908325,-0.03905823081731796,-0.3010926842689514,-0.8913583873214308,-0.02412299994488665,0.1293239422033439,-0.43378980295594133,-0.06924967288519908,-0.25482986492393134,0.8969649355172475
1773062136887944448,2.107508420944214,0.11407558619976044,-0.14173534512519836,0.17515572905540466,-0.2521454393863678,0.06827018409967422,-0.965278148651123,0.1888519823551178,0.05799630284309387,-0.34209489822387695,-0.8909848435164193,-0.024794435692271747,0.12940701361464116,-0.43449389312985276,-0.06832332549306455,-0.25550609146343706,0.8986673111416125
1773062136897980416,2.117544412612915,0.208867609500885,-0.177493616938591,0.16623173654079437,-0.25360924005508423,0.06719333678483963,-0.9649701714515686,0.03394371271133423,0.07668177783489227,-0.1523546576499939,-0.890461459058757,-0.025743694992182587,0.12981594805053445,-0.435389015014391,-0.0672440044766427,-0.2570035902516901,0.900841381782566
1773062136908016384,2.127580404281616,0.1586376577615738,-0.16324014961719513,0.10619853436946869,-0.2551967203617096,0.06561069190502167,-0.9646605253219604,-0.0884312093257904,0.06367702037096024,0.02961719036102295,-0.8900356439869698,-0.026921025723266673,0.1301729988319753,-0.43608136706051226,-0.06565785814125569,-0.25862114076551584,0.9026251074985508
1773062136918052608,2.1376166343688965,0.16545695066452026,-0.3216279149055481,0.32416707277297974,-0.25675633549690247,0.06506963819265366,-0.9642832279205322,-0.11049219965934753,0.11426691710948944,0.08462929725646973,-0.8894963244630124,-0.027650875018478297,0.13074334191243622,-0.43696428539695864,-0.06511564435662386,-0.2602287715093772,0.9047211878248402
1773062136928088576,2.1476526260375977,0.3827802240848541,-0.27609893679618835,0.44839856028556824,-0.2593857944011688,0.06427457928657532,-0.9636325836181641,0.012498617172241211,0.18647310137748718,0.10569196939468384,-0.8883711786109688,-0.028894781953794912,0.1317148105706056,-0.438876841627313,-0.06431891501004951,-0.2629427106910471,0.9092029765812942
1773062136938124544,2.157688617706299,0.0030097165144979954,-0.3642386496067047,0.43002888560295105,-0.26211827993392944,0.06292783468961716,-0.9629818797111511,0.19795504212379456,0.11709535866975784,0.03390473127365112,-0.8871570224199751,-0.030441495933372982,0.13259854637494567,-0.44095734606165243,-0.06296943805148142,-0.2657559910654335,0.9141427628180813
1773062136948159488,2.1677234172821045,-0.49770230054855347,-0.5157613158226013,0.5056745409965515,-0.266103059053421,0.06699666380882263,-0.9616135358810425,0.22516372799873352,0.017537035048007965,0.02931678295135498,-0.8858816820926033,-0.029803962543482675,0.13529579746617193,-0.4427418778269409,-0.06704688310262986,-0.2699697570062348,0.9178267618546753
1773062136958195456,2.1777594089508057,-0.33674299716949463,-0.54844069480896,0.5240298509597778,-0.2710142731666565,0.0725518986582756,-0.9598371982574463,0.12456047534942627,0.0758856013417244,0.11173850297927856,-0.8844182430059575,-0.02874887033845012,0.13876201491306236,-0.4446604060836426,-0.07261569776518188,-0.27519062306991116,0.9216653818258597
1773062136968231424,2.187795400619507,-0.13639864325523376,-0.4545944333076477,0.5487492084503174,-0.27545982599258423,0.07620985060930252,-0.9582870006561279,-0.02039283514022827,0.03430955857038498,-0.04038548469543457,-0.8829064569904403,-0.028487163932397253,0.14158033066554312,-0.44678823800784895,-0.07628381485957861,-0.2799038730129016,0.9261885271309989
1773062136978267648,2.197831630706787,-0.06310045719146729,-0.4517642855644226,0.6141740679740906,-0.2790791392326355,0.07886314392089844,-0.9570242762565613,-0.1280863881111145,-0.02998923510313034,-0.09519129991531372,-0.8813161077580318,-0.028544954769650584,0.14378127609721839,-0.4492149527863316,-0.07894511791637916,-0.2837431418003764,0.9314880346429429
1773062136988303616,2.2078676223754883,-0.08757025003433228,-0.5707536935806274,0.6057254076004028,-0.2835242748260498,0.08103254437446594,-0.9555352926254272,-0.05223008990287781,0.03148576617240906,0.005202651023864746,-0.8795591178612944,-0.02906093586570591,0.14624572774688802,-0.45182231019145397,-0.08112148626716091,-0.28844284349316307,0.9372943317527851
1773062136998339584,2.2179036140441895,-0.16962917149066925,-0.610303521156311,0.4206346869468689,-0.28895410895347595,0.08375342935323715,-0.9536722898483276,0.11927640438079834,0.04826560616493225,-0.027803480625152588,-0.8779463544888884,-0.029499306915640382,0.1493105301939557,-0.453923273047505,-0.08385165823448759,-0.294198555207674,0.941923417024288
1773062137008374528,2.227938413619995,-0.08760567009449005,-0.669442355632782,0.3219134211540222,-0.2945769727230072,0.08643116801977158,-0.951711118221283,0.1604979932308197,0.03888927400112152,-0.09681183099746704,-0.8766755040970209,-0.029895811848558197,0.1524817442386353,-0.4552971967191924,-0.08653914473639583,-0.3001709103915809,0.9449126872053618
1773062137018410496,2.2379744052886963,0.22716931998729706,-0.7059977054595947,0.2236345261335373,-0.30088213086128235,0.08639900386333466,-0.9497395157814026,0.09478169679641724,0.028942182660102844,-0.2018565535545349,-0.8754946341752893,-0.031648539455900807,0.15533388029367007,-0.45648528252648374,-0.08650686193087724,-0.30680196034245905,0.947862086903082
1773062137028446464,2.2480103969573975,0.1298067420721054,-0.709784209728241,0.13759422302246094,-0.3075662851333618,0.08489802479743958,-0.9477316737174988,0.050013214349746704,-0.056654006242752075,-0.3303597569465637,-0.8744866713565768,-0.03409768755122934,0.15802378298812497,-0.45731715153103497,-0.08500034448661101,-0.3138057313880027,0.9502298285650908
1773062137038482688,2.2580466270446777,-0.05429571866989136,-0.7989689707756042,0.14248698949813843,-0.31459474563598633,0.08524882793426514,-0.9453902840614319,0.010685443878173828,-0.07337749749422073,-0.3054794669151306,-0.8735758747045274,-0.0357476532399554,0.16132873299888845,-0.4577777278276214,-0.08535242158931414,-0.3212408118974477,0.9515320019807817
1773062137048518656,2.268082618713379,0.04944339394569397,-0.7556454539299011,0.13668151199817657,-0.3218669295310974,0.08574868738651276,-0.9428938627243042,0.04136461019515991,0.047903046011924744,-0.1712113618850708,-0.8725996629245442,-0.03740789623894465,0.1647838461093664,-0.45827588369368955,-0.08585412201781396,-0.32895772215108937,0.9529249491732307
1773062137058554624,2.27811861038208,-0.015674620866775513,-0.6803757548332214,0.05154692009091377,-0.3285810947418213,0.08576921373605728,-0.9405732750892639,0.12620380520820618,0.06480450928211212,-0.1641324758529663,-0.871772138655069,-0.03911785283906851,0.16787839131487214,-0.45858470552656544,-0.08587472466151044,-0.33608789760182,0.9539428720181072
1773062137068590592,2.2881546020507812,-0.06148245558142662,-0.7172065377235413,-0.04828868806362152,-0.33513447642326355,0.08618026971817017,-0.9382205605506897,0.11859700083732605,0.029267720878124237,-0.1421779990196228,-0.8712016969524038,-0.04052202764409966,0.17101952769241888,-0.4583862256304176,-0.08628730862070959,-0.3430765989596226,0.9537449398526375
1773062137078625536,2.298189401626587,0.0184808187186718,-0.6605361104011536,-0.023692531511187553,-0.3416450321674347,0.08632837980985641,-0.9358558058738708,0.04667738080024719,0.08164037019014359,-0.16381460428237915,-0.8707063170375796,-0.042007071271914054,0.17409050241894994,-0.45803768905744935,-0.08643596772607451,-0.35002923711716505,0.9532512204091208
1773062137088661760,2.308225631713867,0.4507618546485901,-0.6336485743522644,-0.003291697008535266,-0.3477380573749542,0.084377221763134,-0.9337872862815857,0.02741032838821411,0.1063423827290535,-0.23950672149658203,-0.8701045949260136,-0.04440254749349404,0.17645045714227198,-0.4580519249883221,-0.08447766487273069,-0.35648519157322817,0.9539118331181374
1773062137098697728,2.3182616233825684,0.6203831434249878,-0.5692785978317261,-0.06876125186681747,-0.35389116406440735,0.07905203849077225,-0.9319398403167725,0.06669023633003235,0.032794877886772156,-0.21021103858947754,-0.8694834550944766,-0.04835900780056613,0.17802104870219668,-0.4582232103726842,-0.07913460659086649,-0.3629163491430079,0.9555103206655696
1773062137108733696,2.3282976150512695,0.09487698972225189,-0.7518836855888367,-0.18006406724452972,-0.36000731587409973,0.07572010904550552,-0.9298716187477112,0.06613829731941223,-0.08464650064706802,-0.08242696523666382,-0.8691050556963826,-0.0513024366278634,0.18008957725722952,-0.45781250624651765,-0.07579265197835003,-0.3693869842425397,0.955490092887005
1773062137118769664,2.3383336067199707,0.3223985433578491,-0.6246229410171509,-0.17395184934139252,-0.36656397581100464,0.07303513586521149,-0.927521824836731,0.005006968975067139,-0.012503519654273987,-0.10580337047576904,-0.8688569558371216,-0.05398768661574637,0.18254977444900997,-0.4569994375783702,-0.07310022059414284,-0.3763684582676997,0.954499363007168
1773062137128805632,2.348369598388672,0.36408722400665283,-0.6536089181900024,-0.0714360848069191,-0.3725617527961731,0.06945319473743439,-0.9254047870635986,0.0643494725227356,0.08681206405162811,-0.14301562309265137,-0.868450099431374,-0.0570272077337717,0.18451425827102616,-0.4566144760406565,-0.06950915325647292,-0.38273996829425166,0.9546459417362088
1773062137138840320,2.3584043979644775,0.22056414186954498,-0.6826605796813965,-0.06969863921403885,-0.3787469267845154,0.06624577194452286,-0.9231263399124146,0.16002744436264038,0.054451242089271545,-0.15812671184539795,-0.8678990669400082,-0.05999141428157424,0.18664900639894685,-0.4564148450567383,-0.066294318932057,-0.38934308744566576,0.9552049362605631
1773062137148876544,2.368440628051758,0.02563253790140152,-0.6495499610900879,-0.0514025017619133,-0.3849742114543915,0.06499157845973969,-0.9206361770629883,0.17251083254814148,0.11312425881624222,-0.08403301239013672,-0.8673761275044173,-0.06205929767186379,0.18928961056401755,-0.4560447918659798,-0.06503741574722234,-0.3960637910061278,0.9550540500972845
1773062137158912768,2.378476619720459,-0.022361885756254196,-0.6379888653755188,-0.0136127769947052,-0.39087674021720886,0.06496504694223404,-0.9181475639343262,0.12360379099845886,0.16083450615406036,-0.015430927276611328,-0.8668516384216796,-0.06349809773375992,0.1920786672510706,-0.4556776319300081,-0.06501082839609992,-0.4024830683850116,0.9546768923107685
1773062137168948736,2.38851261138916,0.19870710372924805,-0.6582387089729309,0.02438218519091606,-0.3968471586704254,0.06426012516021729,-0.9156325459480286,0.1243404746055603,0.14768444001674652,-0.038285911083221436,-0.8661858290407769,-0.0653194281522596,0.19472312416284232,-0.4555639078059066,-0.06430443667622832,-0.40897500664400716,0.9550308981191967
1773062137178984704,2.3985486030578613,0.32868456840515137,-0.5866222977638245,-0.06159823387861252,-0.4025977849960327,0.061552323400974274,-0.9133051633834839,0.15262830257415771,0.04608317092061043,-0.10958302021026611,-0.8654872201278796,-0.0680271047854185,0.19677328117057472,-0.4556144597301913,-0.06159125826566459,-0.41518871085144393,0.9561507751742899
1773062137189020672,2.4085845947265625,-0.015384403988718987,-0.5647150874137878,-0.14214828610420227,-0.40784940123558044,0.0595104917883873,-0.9111077785491943,0.13467130064964294,-0.0771649181842804,-0.005594491958618164,-0.865133467653403,-0.0701790392702611,0.19879892980107794,-0.45508032322889697,-0.059545673413004645,-0.4208906490589099,0.9557747343683001
1773062137199056640,2.4186205863952637,-0.17592400312423706,-0.563949465751648,-0.00033150450326502323,-0.41303831338882446,0.06033273786306381,-0.9087130427360535,0.10838130116462708,-0.02825877070426941,-0.024209320545196533,-0.8647847584605458,-0.07100120833457924,0.20150017689627195,-0.4544270566862626,-0.06036940136061921,-0.426615576341497,0.9545664826651102
1773062137209091584,2.4286556243896484,-0.08755873888731003,-0.4824787974357605,0.02902141399681568,-0.4178159236907959,0.06165866181254387,-0.9064370393753052,0.1678312122821808,0.09587308019399643,-0.009258151054382324,-0.8642271480550584,-0.0715994058014476,0.20409561519282934,-0.45423553648241904,-0.061697797842992855,-0.4319168965719198,0.9542910604208379
1773062137219127552,2.4386916160583496,-0.08400261402130127,-0.4020873010158539,-0.08835901319980621,-0.42178210616111755,0.06226925179362297,-0.9045564532279968,0.21649035811424255,0.07454106211662292,0.005203425884246826,-0.8638758231560066,-0.07226919680718584,0.2061527071005482,-0.4538685845667651,-0.06230956245319087,-0.43631461994737814,0.9536822334641616
1773062137229163520,2.448727607727051,-0.05909593030810356,-0.3374878168106079,-0.1768656075000763,-0.42524397373199463,0.06243186071515083,-0.9029229283332825,0.17686140537261963,0.009482815861701965,-0.0036169886589050293,-0.8638190831345256,-0.0729078872833043,0.20790135749200073,-0.4530761863435398,-0.062472488148220595,-0.44014997604314476,0.9521361776243613
1773062137239199744,2.458763599395752,-0.059114571660757065,-0.23256433010101318,-0.24318552017211914,-0.42793962359428406,0.06199311092495918,-0.901678740978241,0.15520402789115906,-0.004864197224378586,0.03574246168136597,-0.8640356754946216,-0.07354232979742464,0.20917017553587625,-0.4519752934388888,-0.06203288664604331,-0.44312454331473544,0.9499316796205642
1773062137249235712,2.468799591064453,-0.021927058696746826,-0.11148826777935028,-0.22660285234451294,-0.42963144183158875,0.0614144429564476,-0.9009134769439697,0.17474865913391113,-0.019452780485153198,0.012043237686157227,-0.8643983751117478,-0.0739727979078472,0.20993162101641463,-0.45085722792209415,-0.06145311694667076,-0.4449845890640752,0.9476251162043858
1773062137259271680,2.4788355827331543,0.04786640405654907,-0.02984427474439144,-0.2975345551967621,-0.4304031431674957,0.06021562218666077,-0.900626003742218,0.19694367051124573,-0.030720394104719162,0.09497720003128052,-0.8649017102921265,-0.07444132266774077,0.21010825212366624,-0.4497312070676133,-0.06025207011978255,-0.44580636329853873,0.9453452514215654
1773062137269306624,2.488870620727539,0.13646012544631958,0.06847560405731201,-0.35124239325523376,-0.430414617061615,0.05792200192809105,-0.9007709622383118,0.183527410030365,-0.05622827261686325,0.24674874544143677,-0.8656382728790016,-0.0751564295676521,0.20968080522368007,-0.44839241498787663,-0.05795443813234327,-0.4457541298348902,0.9427339411523612
1773062137279342592,2.4989066123962402,0.17162716388702393,0.14806337654590607,-0.24858631193637848,-0.4295673966407776,0.05516538396477699,-0.9013482332229614,0.13763627409934998,-0.038472261279821396,0.19482052326202393,-0.86637876837223,-0.0759166425150756,0.20871645428881352,-0.44728270262898495,-0.055193403483836063,-0.44473928995438206,0.9406697747961533
1773062137289378560,2.5089426040649414,-0.028048200532794,0.12623700499534607,-0.11958488076925278,-0.42836931347846985,0.05362999811768532,-0.9020108580589294,0.13976457715034485,0.035801757127046585,0.13324254751205444,-0.8669104432024465,-0.07614416169159079,0.20783801578919114,-0.4466226644640755,-0.05365574041564341,-0.4433706827908332,0.9393534472125017
1773062137299414528,2.5189785957336426,-0.12213262170553207,0.10782577842473984,-0.029390010982751846,-0.4273637533187866,0.05417444556951523,-0.9024551510810852,0.185573011636734,0.13208958506584167,0.10368812084197998,-0.8672212710082143,-0.07555363146978365,0.2075188214190743,-0.44626765823300474,-0.054200978543726616,-0.4422701306661636,0.938322641260349
1773062137309450752,2.5290145874023438,-0.09556718915700912,0.08673187345266342,-0.032351888716220856,-0.42644602060317993,0.05511520430445671,-0.9028322696685791,0.22126108407974243,0.1617579609155655,0.1705782413482666,-0.8674331767774172,-0.07484358036243421,0.20732172880525726,-0.4460671202920761,-0.055143145723872654,-0.44127778381351357,0.9375750672497255
1773062137319486720,2.539050579071045,-0.03543993830680847,0.0873342826962471,-0.04838278517127037,-0.42571327090263367,0.05537007749080658,-0.90316241979599,0.22206950187683105,0.05899455025792122,0.13057941198349,-0.8676348102464086,-0.07449045629334575,0.2070506421972655,-0.44585977082148603,-0.05539840972369535,-0.44047301570528896,0.9369739440894239
1773062137329522688,2.549086570739746,-0.32607176899909973,0.13609541952610016,0.01431681402027607,-0.4247336983680725,0.05678292363882065,-0.9035358428955078,0.2045798897743225,-0.04561348631978035,0.015810012817382812,-0.8678617198905733,-0.07354383465419327,0.20693814590643797,-0.44562755733919535,-0.05681348185997106,-0.4394260414926973,0.9360521912958888
1773062137339557632,2.559121608734131,-0.5031269788742065,0.18301180005073547,0.14158262312412262,-0.4232233464717865,0.061132822185754776,-0.9039605855941772,0.178884357213974,-0.03310242295265198,0.15621888637542725,-0.8680158159945351,-0.07117244792659591,0.2072539111549009,-0.4455656437463245,-0.061170965762629904,-0.4378755528564835,0.9348708289657348
1773062137349593600,2.569157600402832,-0.24278859794139862,0.2648051977157593,0.18511812388896942,-0.42113199830055237,0.06535311043262482,-0.9046418070793152,0.15674296021461487,0.052826203405857086,0.34496474266052246,-0.8680007959362719,-0.06882588032936066,0.20722472887038978,-0.44597704604138877,-0.0653997175538051,-0.4356879792710025,0.9347683336686511
1773062137359630848,2.5791947841644287,-0.15066932141780853,0.3831701874732971,0.18232712149620056,-0.41801780462265015,0.06770676374435425,-0.9059121608734131,0.14192527532577515,0.03785354644060135,0.36623936891555786,-0.867996929601756,-0.06713720737980633,0.20624378921767297,-0.44669597380360415,-0.0677585980854885,-0.4323208421403568,0.9356789099276445
1773062137369666816,2.58923077583313,-0.1401471644639969,0.405670166015625,0.27167031168937683,-0.4142266809940338,0.07004989683628082,-0.9074741005897522,0.1179925799369812,0.033221594989299774,0.3337284326553345,-0.8679652388010238,-0.06533233168599384,0.20492592964835118,-0.4476307112907549,-0.07010730942042154,-0.42821402324847235,0.9370452545724514
1773062137379702784,2.599266767501831,-0.012233417481184006,0.39592301845550537,0.400209903717041,-0.4103401303291321,0.0721672922372818,-0.9090725183486938,0.13763508200645447,0.1641150712966919,0.19921839237213135,-0.8676326482545293,-0.06374612894207478,0.20347032640640306,-0.4491655968843666,-0.07223008578584397,-0.4240036663267787,0.939846977692628
1773062137389738752,2.6093027591705322,-0.0840337723493576,0.3854822516441345,0.41852203011512756,-0.40640267729759216,0.07411348819732666,-0.910683274269104,0.20932015776634216,0.22263944149017334,0.0009237527847290039,-0.8671019263707394,-0.062311448129223346,0.2019297795036527,-0.4510831490956965,-0.07418150505074021,-0.41974045480878025,0.9435757928583223
1773062137399774720,2.6193387508392334,-0.2313937395811081,0.32781198620796204,0.4001692533493042,-0.4028351902961731,0.07726148515939713,-0.9120057225227356,0.2488892674446106,0.17206712067127228,-0.1231963038444519,-0.8665836460631844,-0.06038356428723123,0.2008754628839688,-0.45280867720881235,-0.0773385605216941,-0.41593230621303434,0.946676763387314
1773062137409809920,2.629373788833618,-0.31176432967185974,0.3083269000053406,0.42645493149757385,-0.39961522817611694,0.08147881180047989,-0.9130547046661377,0.24832433462142944,0.10776069760322571,-0.1597449779510498,-0.8660417829385467,-0.05803791103106585,0.20026046862303754,-0.45442148934741605,-0.08156923285842142,-0.4125518048414009,0.9493628750883314
1773062137419845888,2.6394097805023193,-0.3202459514141083,0.4109230637550354,0.36493322253227234,-0.3960541784763336,0.08596779406070709,-0.9141939878463745,0.22698679566383362,-0.011642225086688995,-0.007970929145812988,-0.8655564776865777,-0.05546927237273673,0.19956496874751808,-0.4559702292282894,-0.08607403705571129,-0.4088189170009201,0.9518509402942039
1773062137429881856,2.6494457721710205,-0.4099142551422119,0.6141687631607056,0.21731115877628326,-0.39107760787010193,0.09048746526241302,-0.9158986210823059,0.15723669528961182,-0.13337992131710052,0.2947743535041809,-0.8655105208315379,-0.05240419273477548,0.1982535804219009,-0.45699105433158466,-0.09061140735665896,-0.40355319096141634,0.9530467943631776
1773062137439917824,2.6594817638397217,-0.3764828145503998,0.7771286368370056,0.2590583562850952,-0.384438693523407,0.09516899287700653,-0.9182318449020386,0.04831808805465698,-0.12487785518169403,0.3841131925582886,-0.8657962574724787,-0.04877953977529666,0.19622596055731725,-0.45772557447734136,-0.09531324356269419,-0.39649925772355027,0.9534871954390108
1773062137449953792,2.669517755508423,0.03121139481663704,0.9026317000389099,0.3823922276496887,-0.3763212263584137,0.0981280580163002,-0.9212780594825745,0.011865049600601196,0.005234971642494202,0.28721433877944946,-0.8659044892396293,-0.04571465612274275,0.1930573685264086,-0.45918245410055436,-0.09828622800573576,-0.3877930128460979,0.9558587445027691
1773062137459989760,2.679553747177124,0.1937611699104309,1.0016871690750122,0.3196481466293335,-0.36714968085289,0.09813018143177032,-0.9249711036682129,0.058433860540390015,0.06201080232858658,0.2355790138244629,-0.8659502436049327,-0.043802172997509305,0.18866850425568565,-0.4611028894831373,-0.09828835786050669,-0.37785786820835604,0.959780396680834
1773062137470025728,2.689589738845825,0.03595728054642677,1.0618582963943481,0.21869879961013794,-0.35719338059425354,0.09795287251472473,-0.9288800358772278,0.09202614426612854,0.04958435893058777,0.07740908861160278,-0.866283295930315,-0.04167216314520209,0.1839114287994079,-0.46259406311868667,-0.09811019186466238,-0.3671099060678398,0.9627224948656639
1773062137480060928,2.69962477684021,-0.14643943309783936,1.0352283716201782,0.2669060230255127,-0.3471953570842743,0.09936889261007309,-0.9325133562088013,0.09721064567565918,0.08387391269207001,-0.10775458812713623,-0.8667077295764015,-0.038753625218102924,0.17955910362525113,-0.4637610144398229,-0.09953315297188983,-0.3564208871196812,0.9646953828902773
1773062137490096896,2.709660768508911,-0.2901293635368347,1.0326505899429321,0.32683512568473816,-0.3372116684913635,0.10238037258386612,-0.9358453750610352,0.11753088235855103,0.09670104831457138,-0.11373043060302734,-0.8669554029747476,-0.03516572500844275,0.17561516738766245,-0.4650925142793722,-0.1025600718846379,-0.34584627507435045,0.9668577748057023
1773062137500132864,2.7196967601776123,-0.4965115487575531,1.0915887355804443,0.34722161293029785,-0.32690027356147766,0.10724060237407684,-0.9389545321464539,0.12110501527786255,0.05473143607378006,0.013676881790161133,-0.8671642496147123,-0.030667095249785982,0.17199492380435524,-0.466372547751438,-0.10744722975573993,-0.33502885351948064,0.9686912407036732
1773062137510168832,2.7297327518463135,-0.3789328634738922,1.1473418474197388,0.4182758927345276,-0.3158668577671051,0.112900011241436,-0.942062497138977,0.0926918089389801,0.05200172960758209,0.10479748249053955,-0.867298622771647,-0.025663555555260086,0.16825618969739067,-0.46778648666372924,-0.11314124216937195,-0.3235131202889373,0.9707938213602247
1773062137520204800,2.7397687435150146,0.10925226658582687,1.210598349571228,0.4622438848018646,-0.3042261302471161,0.11559735238552094,-0.9455599784851074,0.07531380653381348,0.030795469880104065,0.19432401657104492,-0.8672461301440917,-0.021926108022783844,0.1635214043250077,-0.4697489580599967,-0.11585636419642899,-0.3112821224035987,0.9746298643528176
1773062137530240768,2.749804735183716,0.20647449791431427,1.323594331741333,0.44263899326324463,-0.291606068611145,0.11507698893547058,-0.9495910406112671,0.03837123513221741,-0.06911752372980118,0.25777286291122437,-0.8671836787663308,-0.019412482966160455,0.1575678406216944,-0.4720042127760857,-0.11533250659118133,-0.29794491492302777,0.979577683672269
1773062137540276736,2.759840726852417,0.03747135400772095,1.3552340269088745,0.45207858085632324,-0.2782302796840668,0.11524472385644913,-0.9535756707191467,-0.021376043558120728,-0.08985409885644913,0.31110435724258423,-0.8671510481881884,-0.01637702533801908,0.15147262589742871,-0.47416961344610703,-0.11550136121043765,-0.28389464802278563,0.9842622504191549
1773062137550311680,2.7698757648468018,-0.11570381373167038,1.349457025527954,0.41703760623931885,-0.26476818323135376,0.11667000502347946,-0.9572282433509827,-0.03251880407333374,0.05270255357027054,0.26133590936660767,-0.8671189257279623,-0.012723406537136748,0.14568455392361554,-0.4761500626640401,-0.11693632349894979,-0.2698519783768304,0.9884386424988452
1773062137560347904,2.779911756515503,-0.3974737226963043,1.3349287509918213,0.5608911514282227,-0.2513008713722229,0.12052255123853683,-0.9603760838508606,0.012119382619857788,0.17748159170150757,-0.0820891261100769,-0.866971061221901,-0.00798284282607858,0.14052845127933158,-0.4780680986740748,-0.12081625425550026,-0.2559309790469392,0.9923067287874597
1773062137570383872,2.789947748184204,-0.2607361078262329,1.3406049013137817,0.7179827094078064,-0.23758579790592194,0.12541835010051727,-0.9632357954978943,0.06729772686958313,0.24500399827957153,-0.23325157165527344,-0.8663260503036446,-0.00283226649756526,0.13555098899921927,-0.4807256546884104,-0.12574949285858536,-0.24182684491707093,0.9978980500764487
1773062137580419840,2.7999837398529053,-0.281088262796402,1.4489638805389404,0.5804850459098816,-0.2233019322156906,0.12937358021736145,-0.9661256074905396,0.0844011902809143,0.14832109212875366,0.09594744443893433,-0.8656572659012908,0.0020564783479991616,0.13012669495433982,-0.4834256905245984,-0.12973723014906405,-0.22714263872877122,1.003795532102479
1773062137590455808,2.8100197315216064,-0.3317837119102478,1.5532987117767334,0.5512913465499878,-0.20789097249507904,0.13373199105262756,-0.9689670205116272,-0.0065255314111709595,-0.047901302576065063,0.1432681679725647,-0.8652821971707939,0.007502399454533051,0.1243390483335121,-0.48556186197789086,-0.13413384351994123,-0.21134511003568232,1.008493778437688
1773062137600491776,2.8200557231903076,-0.1103285551071167,1.5569701194763184,0.6140758991241455,-0.19193555414676666,0.13707685470581055,-0.9717873334884644,-0.06676194071769714,-0.11273910105228424,0.11283963918685913,-0.8647818465921119,0.01262625228554576,0.11809697929643734,-0.48789963580410933,-0.1375098053016606,-0.19499804532930792,1.0138710633059846
1773062137610527744,2.830091714859009,-0.13831858336925507,1.6239198446273804,0.5884337425231934,-0.1756296157836914,0.1391863077878952,-0.9745672941207886,-0.025053992867469788,-0.1478685587644577,0.13864505290985107,-0.864209692768062,0.017304751965626215,0.11143114391344401,-0.49033170327471026,-0.13963968300870008,-0.1782991634473784,1.0196691665413575
1773062137620562688,2.8401267528533936,-0.2220851182937622,1.6829205751419067,0.5476674437522888,-0.1585685759782791,0.1420513540506363,-0.9770759344100952,-0.025284573435783386,-0.1329876333475113,0.11707532405853271,-0.8636707395295193,0.02254935302787783,0.1046592068991642,-0.49255542194523555,-0.14253347584553314,-0.16088622386008294,1.0250868636881594
1773062137630598656,2.8501627445220947,-0.3748151361942291,1.6827268600463867,0.402694433927536,-0.1413571834564209,0.14551417529582977,-0.9792056679725647,-0.0838930606842041,-0.05663172900676727,0.1850162148475647,-0.8633193363885162,0.028172660706089647,0.09799724106131513,-0.49424949600920565,-0.14603266388593603,-0.1433685903666466,1.0294006338456603
1773062137640634880,2.860198736190796,-0.5317901372909546,1.6921989917755127,0.46929529309272766,-0.12412848323583603,0.15088115632534027,-0.9807277917861938,-0.11459527909755707,-0.011782035231590271,-0.05078160762786865,-0.8629942486879114,0.034680836523294796,0.09183323910463018,-0.4955854083675125,-0.1514595681177081,-0.125898297567199,1.0329949896619748
1773062137650670848,2.870234727859497,-0.09793353825807571,1.7483699321746826,0.4351760745048523,-0.10650945454835892,0.15461447834968567,-0.9822169542312622,-0.08366084098815918,0.03345009684562683,-0.029547572135925293,-0.8625251921567288,0.04056450616232275,0.08512376822874942,-0.4971505950000745,-0.15523723007253182,-0.10801575192932432,1.0373469478510924
1773062137660706816,2.8802707195281982,-0.06005700305104256,1.8786773681640625,0.2682696282863617,-0.08810721337795258,0.15534855425357819,-0.9839227199554443,-0.04987800866365433,-0.045271649956703186,0.056890249252319336,-0.8623936174784107,0.045401697836491645,0.07731312260848848,-0.4982354684923237,-0.15598027564402675,-0.08930868046013207,1.0407914100766251
1773062137670742784,2.8903067111968994,-0.20263952016830444,1.9655262231826782,0.27920064330101013,-0.06867147982120514,0.15703749656677246,-0.9852022528648376,-0.10710977017879486,-0.15032364428043365,0.025714337825775146,-0.8624055051808471,0.05096346448726322,0.06929362093114101,-0.4988565871600664,-0.15769021732046926,-0.0695903717647229,1.0433426621133792
1773062137680778752,2.9003427028656006,-0.09758926182985306,2.066927433013916,0.32637107372283936,-0.048245854675769806,0.15858881175518036,-0.9861652851104736,-0.1708398461341858,-0.09611934423446655,0.22357678413391113,-0.86226269017699,0.05671345262700291,0.06083546016500711,-0.49958552244107074,-0.15926121932258266,-0.04888371287729002,1.0463513040631194
1773062137690814720,2.9103786945343018,-0.27987992763519287,2.155907392501831,0.4105578064918518,-0.026648232713341713,0.16052129864692688,-0.986672580242157,-0.16846589744091034,-0.05120733380317688,0.04036825895309448,-0.8618940042284476,0.06292711458888495,0.05199891162095405,-0.5004747842612213,-0.16121877273431057,-0.027001617314778074,1.049986445932353
1773062137700849664,2.9204137325286865,-0.18173415958881378,2.1765947341918945,0.4160018265247345,-0.004544312600046396,0.16318796575069427,-0.9865845441818237,-0.12016577273607254,-0.012949928641319275,0.0010956525802612305,-0.8612481101071813,0.06959993428899788,0.043169238183715375,-0.5015416885483448,-0.16392107985752105,-0.00460607295552509,1.0542919787507485
1773062137710885888,2.9304497241973877,-0.14766114950180054,2.277134656906128,0.3131825029850006,0.018075864762067795,0.1644410938024521,-0.9862212538719177,-0.1168002337217331,-0.03139972686767578,0.1673126220703125,-0.8607147671829566,0.07583040038788036,0.03375080896545653,-0.5022755008457507,-0.1651913709350385,0.018326355605141825,1.057998672802834
1773062137720921856,2.940485715866089,-0.4261828064918518,2.2592201232910156,0.30431896448135376,0.04117269441485405,0.1672494113445282,-0.9850545525550842,-0.18527668714523315,-0.1658150851726532,-0.02916663885116577,-0.8601631053265337,0.08289788673462423,0.024508624683850996,-0.5026396164690573,-0.16803912729205006,0.041773060948167635,1.0611894968042233
1773062137730957824,2.95052170753479,-0.3653946816921234,2.2286765575408936,0.287265419960022,0.06375062465667725,0.171189546585083,-0.9831734299659729,-0.18656861782073975,-0.18916438519954681,0.0237312912940979,-0.8594576353753248,0.09035571019608747,0.015783845430109963,-0.5029107512222034,-0.17203690695805174,0.06475104044563143,1.0644415441371649
1773062137740993792,2.960557699203491,-0.2279670387506485,2.2535369396209717,0.2755512595176697,0.08636318892240524,0.1738709956407547,-0.9809741377830505,-0.10877835005521774,-0.1337251365184784,0.026323258876800537,-0.8587408305422315,0.09730285544111852,0.006714282692182291,-0.5030419941423065,-0.17475919157484604,0.08781178800103336,1.0675086819797068
1773062137751029760,2.9705936908721924,-0.20875579118728638,2.214406967163086,0.2738615572452545,0.10883249342441559,0.17571064829826355,-0.9784075021743774,-0.06070627272129059,-0.12735554575920105,0.03074514865875244,-0.8579568476229616,0.10387457560967778,-0.0025135533441386503,-0.5031041102726835,-0.1766276016775615,0.11077892437901403,1.0705345955993002
1773062137761065728,2.9806296825408936,-0.18629708886146545,2.229428768157959,0.2882881760597229,0.1311015486717224,0.17728669941425323,-0.9753880500793457,-0.06150621175765991,-0.10283906757831573,0.1658482551574707,-0.8570727806516506,0.11031057029963781,-0.011728708561838335,-0.5031105817985769,-0.17822878994093946,0.13360887931888987,1.073582779540299
1773062137771100672,2.9906647205352783,-0.2804374396800995,2.253110647201538,0.3788914680480957,0.15361009538173676,0.17899887263774872,-0.9717835783958435,-0.09559619426727295,-0.07282823324203491,0.09263324737548828,-0.8559245264545785,0.11690813193116126,-0.020992734214222576,-0.5032742452768205,-0.17996879245040945,0.1567731376272211,1.0772563171130018
1773062137781136640,3.0007007122039795,-0.38801291584968567,2.2527353763580322,0.49852731823921204,0.17633411288261414,0.1817035973072052,-0.967414140701294,-0.12124988436698914,-0.0543079674243927,0.027121782302856445,-0.8543194739929824,0.12405901018797076,-0.03003833649827592,-0.5038305494182203,-0.18271860760919423,0.18029436499238427,1.0822517082782157
1773062137791172864,3.0107367038726807,-0.3155149519443512,2.283406972885132,0.5320262312889099,0.19933125376701355,0.18402452766895294,-0.9624977707862854,-0.09271810948848724,-0.021854132413864136,-0.020351290702819824,-0.8523619070622436,0.13118953769232977,-0.03924801238657602,-0.5047057950153809,-0.185079351565813,0.2042110436481687,1.0882368092253099
1773062137801208832,3.020772695541382,-0.4155169129371643,2.2244818210601807,0.410493940114975,0.2218978852033615,0.18658117949962616,-0.9570521116256714,-0.08260039985179901,-0.08501869440078735,0.04518693685531616,-0.8504244724742807,0.1383677882406227,-0.04825234242519617,-0.50527632043434,-0.18768105415137862,0.22783002576736114,1.0937429425955552
1773062137811244800,3.030808687210083,-0.2822794020175934,2.2508773803710938,0.4259936809539795,0.24404536187648773,0.1890479326248169,-0.9511586427688599,-0.16164790093898773,-0.1670447736978531,0.10763752460479736,-0.8485473655842548,0.14544436327431653,-0.057154384832732476,-0.5055161676226769,-0.1901925042085493,0.25115907098637397,1.098649012850014
1773062137821280768,3.040844678878784,-0.34341681003570557,2.2073287963867188,0.5439295768737793,0.2663002610206604,0.19058406352996826,-0.9448607563972473,-0.1911202371120453,-0.11197078227996826,-0.2161194086074829,-0.8464049195309267,0.15222550254221462,-0.06630995822321023,-0.505993154447729,-0.19175707596502659,0.27471481845518225,1.104208062581092
1773062137831316736,3.0508806705474854,-0.4251541495323181,2.08206844329834,0.562832772731781,0.28760606050491333,0.19282324612140656,-0.9381374716758728,-0.06885606050491333,-0.035077884793281555,-0.2449374794960022,-0.8438936957031415,0.15917332220001942,-0.07480046157806694,-0.506865064667293,-0.1940385779233328,0.2974745913707143,1.110925347728429
1773062137841351680,3.06091570854187,-0.4106452465057373,2.166321277618408,0.469075083732605,0.30847418308258057,0.19503995776176453,-0.931022584438324,0.007169097661972046,0.012021809816360474,0.030479371547698975,-0.8414145331489963,0.16605347095452108,-0.08315614235463735,-0.5074769607724544,-0.19629818703996293,0.3199449974576823,1.117198563381643
1773062137851387648,3.0709517002105713,-0.6551029086112976,2.162963628768921,0.514322817325592,0.32971569895744324,0.19847887754440308,-0.9229808449745178,-0.06685253977775574,-0.05208607017993927,-0.06107372045516968,-0.8387705307592381,0.1736565658815906,-0.09139454937134245,-0.5078921003892035,-0.1998056800734965,0.34310050297701067,1.1236655467151055
1773062137861423616,3.0809876918792725,-0.6498911380767822,2.084543466567993,0.5094649791717529,0.35026368498802185,0.2028355449438095,-0.9144250154495239,-0.11280640959739685,-0.12544295191764832,-0.06631839275360107,-0.8358332151780625,0.18159694119095215,-0.09904567140931206,-0.5085227763214034,-0.20425280209378333,0.3658029597038936,1.1310571933427094
1773062137871459840,3.0910236835479736,-0.6697051525115967,2.200357675552368,0.39273789525032043,0.3707234263420105,0.20714083313941956,-0.9053490161895752,-0.0516621470451355,-0.13521088659763336,-0.035034894943237305,-0.8329764276639862,0.18954444793015504,-0.1067632676099441,-0.5087483700558184,-0.2086515014963208,0.38865303640052196,1.1377955354779563
1773062137881495808,3.101059675216675,-0.501717209815979,2.2394402027130127,0.3918233811855316,0.39160752296447754,0.2112981081008911,-0.8955426812171936,-0.07173752784729004,-0.1681157499551773,-0.034205853939056396,-0.8301478305372835,0.19760133567041557,-0.11481455826283062,-0.5085527762065453,-0.21290287140993613,0.41223011557573114,1.143948994486505
1773062137891531776,3.111095666885376,-0.07372774183750153,2.425499200820923,0.3923848867416382,0.4132063388824463,0.21208371222019196,-0.8855963945388794,-0.17272785305976868,-0.16578856110572815,0.09560316801071167,-0.8274813549129834,0.20439566083183627,-0.12419423537030118,-0.5080086385169155,-0.21370668078835325,0.4365604196944743,1.1487616324056187
1773062137901567744,3.121131658554077,0.021765228360891342,2.3830301761627197,0.36425232887268066,0.4353928565979004,0.21063706278800964,-0.8752514123916626,-0.2426590919494629,-0.17564865946769714,-0.1112293004989624,-0.8249145929462206,0.21039394403517003,-0.1345684782849329,-0.5070912663741047,-0.21222660443275304,0.46160465349412855,1.1523937631739118
1773062137911603712,3.1311676502227783,-0.09323006123304367,2.336946964263916,0.2731878161430359,0.45654821395874023,0.2093004584312439,-0.8647294640541077,-0.2811179459095001,-0.1213945746421814,-0.18647903203964233,-0.8224624279257438,0.21617235209203925,-0.1445848623274539,-0.505885671877262,-0.21085951467044306,0.48576972147100345,1.1553061723386262
1773062137921638656,3.141202688217163,-0.44718441367149353,2.3742849826812744,0.40155404806137085,0.47760018706321716,0.21012195944786072,-0.8530807495117188,-0.18405160307884216,0.05210033059120178,-0.5333480834960938,-0.819573718648723,0.22303976912406728,-0.15398986686205154,-0.5048160169877024,-0.21169970655671316,0.5103767354301324,1.1595494810642488
1773062137931674624,3.1512386798858643,-0.39556384086608887,2.2755496501922607,0.5066601037979126,0.4983671009540558,0.21172229945659637,-0.8407163023948669,0.008255153894424438,0.18999581038951874,-0.43166834115982056,-0.8159916566183435,0.23044704098529809,-0.16289880612722799,-0.504495476249776,-0.21333687887895114,0.53510020221464,1.1661629298248628
1773062137941710592,3.1612746715545654,-0.21737916767597198,2.3393301963806152,0.3668142855167389,0.5184974670410156,0.2119429111480713,-0.8283963799476624,0.10566335916519165,0.09411786496639252,0.17203962802886963,-0.8126132312033937,0.23707605532234932,-0.17203702936638463,-0.5038431821629159,-0.21356260772189237,0.5592498254623484,1.1715711654273788
1773062137951746816,3.1713106632232666,-0.07728791981935501,2.3143177032470703,0.4161660671234131,0.5387426018714905,0.21123291552066803,-0.8155593872070312,0.0037989020347595215,-0.13423706591129303,0.20180511474609375,-0.8093887045153078,0.2433273446963931,-0.18169236313272977,-0.5026625499490182,-0.2128361657241602,0.5837772245521224,1.1756643751716536
1773062137961782784,3.1813466548919678,-0.0800541490316391,2.177196741104126,0.5197606086730957,0.5577514171600342,0.20891763269901276,-0.8032850027084351,-0.16149592399597168,-0.22455790638923645,0.07794320583343506,-0.8060683560964499,0.24862030883100358,-0.1911686368940064,-0.5018927272253176,-0.2104680355169611,0.606915961277775,1.1799289814110332
1773062137971819008,3.191382884979248,-0.5754304528236389,2.2981455326080322,0.7133721113204956,0.5769103765487671,0.2082119584083557,-0.7898241877555847,-0.1529144048690796,-0.11469084024429321,-0.13668948411941528,-0.8019310176327996,0.2550385465696012,-0.20010806674553014,-0.5018155660637174,-0.20974649435920564,0.6308574410596332,1.186960278154494
1773062137981854976,3.201418876647949,-0.3867394030094147,2.145461320877075,0.8220956325531006,0.5962581634521484,0.20761947333812714,-0.7754806876182556,-0.021261274814605713,0.14685744047164917,-0.4939436912536621,-0.7969290634725362,0.2619908362478953,-0.20885508632964675,-0.5026373784760915,-0.2091407780702774,0.6554805198494564,1.1967391785894703
1773062137991890944,3.2114548683166504,-0.04183545336127281,2.0411157608032227,0.4413211941719055,0.6134847402572632,0.2051878124475479,-0.7625839710235596,0.10094696283340454,0.1708039790391922,-0.09987324476242065,-0.7928562355331737,0.2672559544553953,-0.21744484248539725,-0.5026637537935618,-0.20665560497871102,0.6774676352567207,1.20311241942784
1773062138001925632,3.221489667892456,-0.2013809084892273,2.1804518699645996,0.37571632862091064,0.6303356289863586,0.2036350518465042,-0.7491393089294434,0.07416260242462158,-0.05037577450275421,0.029016077518463135,-0.7894350703215652,0.2725807794349061,-0.22611956062078967,-0.5013600072416107,-0.20506933689327989,0.6994877411357627,1.2066647478567925
1773062138011961600,3.2315256595611572,-0.27878430485725403,2.0147557258605957,0.7497469782829285,0.6470609903335571,0.202050119638443,-0.7351787686347961,-0.036114394664764404,-0.018090173602104187,-0.28017157316207886,-0.7852387470984765,0.27825819680707176,-0.2344845470503796,-0.5009884922141169,-0.20345076054744496,0.721734351666765,1.2128060822104385
1773062138021997568,3.2415616512298584,-0.1698378175497055,1.9786072969436646,0.8143238425254822,0.663189172744751,0.19820626080036163,-0.72173011302948,0.04285019636154175,0.12228931486606598,-0.18236833810806274,-0.7805278072205036,0.2830796994061105,-0.24290083804312476,-0.5016386552253761,-0.19952752797181514,0.7431529957287522,1.220411528072038
1773062138032034048,3.2515978813171387,-0.5509606599807739,1.9469631910324097,0.7321937680244446,0.6788798570632935,0.1954220086336136,-0.7077658176422119,0.13065993785858154,0.06254309415817261,-0.2542703151702881,-0.7756659718283524,0.2884057279610727,-0.25087691986286076,-0.5022203887048209,-0.19668773846732815,0.7645696385725309,1.2284847033834358
1773062138042070016,3.26163387298584,-0.8740319013595581,1.7725889682769775,0.81704181432724,0.6933969855308533,0.19540953636169434,-0.6935529708862305,0.04274803400039673,-0.03249146044254303,-0.16388416290283203,-0.7702805433887158,0.2950003976297441,-0.2572902864709903,-0.5034325253261857,-0.19667501899601555,0.7852857194500098,1.2394326950718393
1773062138052105984,3.271669864654541,-0.7696011066436768,1.9236209392547607,0.929978609085083,0.7077550292015076,0.1949193924665451,-0.6790355443954468,0.04143625497817993,0.016643717885017395,0.15556752681732178,-0.7644204309299939,0.3016759628635625,-0.26357893001863697,-0.505152577605706,-0.1961752603072627,0.8061045291837355,1.2517713930229328
1773062138062141952,3.281705856323242,-0.6046430468559265,1.8925464153289795,0.9527289271354675,0.7225762605667114,0.19283080101013184,-0.6638522744178772,0.062030673027038574,0.033273905515670776,-0.006725668907165527,-0.7583760144428058,0.30796074604680984,-0.27061789725706265,-0.5067463852493911,-0.19404628178184566,0.8277291519982675,1.263573951440172
1773062138072177920,3.2917418479919434,-0.37031540274620056,1.8996998071670532,0.9413657784461975,0.7368054389953613,0.1890849769115448,-0.6491260528564453,-0.006931781768798828,0.032091155648231506,-0.2086162567138672,-0.7526187849984342,0.31328864371744714,-0.2780057607321366,-0.5080629580116697,-0.19023023171994272,0.8485778290182725,1.2737208284666395
1773062138082212608,3.301776647567749,-0.41933751106262207,1.9847580194473267,0.9624231457710266,0.7511736750602722,0.18437424302101135,-0.6338329315185547,0.005265474319458008,0.08871227502822876,-0.45182985067367554,-0.7468260477759057,0.3183352294175081,-0.2859129259484695,-0.5090847700665107,-0.18543515953143508,0.8699184560178187,1.2829819542591887
1773062138092248832,3.3118128776550293,-0.49978941679000854,1.7411154508590698,0.7770481705665588,0.7646036148071289,0.18057052791118622,-0.6186885833740234,0.049727439880371094,0.08047683537006378,-0.44622230529785156,-0.7410629375502322,0.32360420481787444,-0.29314847163891,-0.5100685614359967,-0.18156648225010244,0.890493390754927,1.2924802722271775
1773062138102284800,3.3218488693237305,-0.3267761170864105,1.6447101831436157,0.4622470736503601,0.7759770154953003,0.17843903601169586,-0.6049951314926147,0.03884226083755493,-0.02554599940776825,0.07815498113632202,-0.736318558125613,0.32854499417481103,-0.29926680384192345,-0.5102278423292009,-0.17939980339475323,0.9085839440615232,1.2997407765782338
1773062138112321024,3.3318848609924316,-0.27060937881469727,1.6980416774749756,0.41583356261253357,0.7868232131004333,0.1768718808889389,-0.5912913680076599,-0.014469146728515625,-0.1354900747537613,0.10426139831542969,-0.7322146118138895,0.33327061263940533,-0.30542594281231905,-0.5094186557801345,-0.17780730747936727,0.926340992651113,1.3046731624744803
1773062138122356992,3.341920852661133,-0.12217862904071808,1.5756433010101318,0.4972674548625946,0.7971707582473755,0.17443689703941345,-0.5780055522918701,-0.04385972023010254,-0.11685025691986084,-0.1361514925956726,-0.7281626479198053,0.3374792198020304,-0.31161676155741785,-0.5087059831994266,-0.17533387400718772,0.9434414880120109,1.309206051365722
1773062138132392960,3.351956844329834,0.008428051136434078,1.6854668855667114,0.40245142579078674,0.8073000907897949,0.1709894835948944,-0.5648266673088074,0.0355953574180603,0.02430775761604309,-0.10042595863342285,-0.7243521461205998,0.34105850327220494,-0.31822280491150473,-0.5076685645945896,-0.17183386036892895,0.9603059913297545,1.3122569868437264
1773062138142428928,3.361992835998535,0.028285378590226173,1.611436367034912,0.3007791340351105,0.8172017335891724,0.16804783046245575,-0.5513087511062622,0.09681499004364014,0.09928615391254425,-0.2334965467453003,-0.7208046844188939,0.344664709603719,-0.3248874635924687,-0.5060583720319319,-0.16884900349956777,0.9773009393087835,1.3141562694655806
1773062138152464896,3.3720288276672363,-0.07992924749851227,1.4890028238296509,0.2449212670326233,0.8260687589645386,0.16592469811439514,-0.5385903120040894,0.05457711219787598,0.10125672817230225,-0.2500755190849304,-0.7175716326297774,0.34817893672139216,-0.33087199122142164,-0.5043671975425218,-0.16669563365735252,0.9930219683222272,1.315773906625983
1773062138162499840,3.382063865661621,-0.2147642821073532,1.4392421245574951,0.35893678665161133,0.8344433903694153,0.16427253186702728,-0.5260406732559204,0.04704159498214722,0.09228874742984772,-0.2281554937362671,-0.7140951504149424,0.35195467013396176,-0.3363147032040504,-0.5030789743976634,-0.16502048150814666,1.0083168109343952,1.3186655480724985
1773062138172535808,3.3920998573303223,-0.19819636642932892,1.27422297000885,0.4104654788970947,0.842172384262085,0.16207103431224823,-0.5142748355865479,0.01912522315979004,0.08060473203659058,-0.17534613609313965,-0.7103921703145517,0.35548628663555487,-0.341309366846752,-0.5024742163614444,-0.16278907678056623,1.0225807671142344,1.3227148184154123
1773062138182571776,3.4021358489990234,-0.1554744690656662,1.2351487874984741,0.4373929798603058,0.84919673204422,0.15947888791561127,-0.5034196376800537,-0.028853774070739746,0.03807663917541504,0.00026112794876098633,-0.7069005689422277,0.35853613897190245,-0.3460375887616718,-0.5019973566802285,-0.16016276597093254,1.0356739707529699,1.3263715415746882
1773062138192608000,3.4121718406677246,0.04824930056929588,1.2796200513839722,0.636295735836029,0.8563745021820068,0.15520396828651428,-0.4924778342247009,-0.0010278820991516113,0.062264278531074524,-0.09887650609016418,-0.7031934292472574,0.3610294485585689,-0.3513101517344045,-0.5017547993817902,-0.15583391441435188,1.0489072069331982,1.3297775413638349
