time,seconds_elapsed,rotationRateX,rotationRateY,rotationRateZ,gravityX,gravityY,gravityZ,accelerationX,accelerationY,accelerationZ,quaternionW,quaternionX,quaternionY,quaternionZ,pitch,roll,yaw
1773063443086587648,0.030852556228637695,-0.1297696828842163,-0.05427543818950653,-0.01755744032561779,0.01596466638147831,0.36722031235694885,-0.9299969673156738,-0.009647523984313011,-0.00033801794052124023,0.017735064029693604,-0.0435269459826352,0.00016404042256181088,-0.18708684792186248,0.9813784927724831,-0.3760187548657417,0.01716467837646018,-3.049679243430216
1773063443096624640,0.04088950157165527,-0.2485852837562561,-0.02214679680764675,-0.0314631350338459,0.015469263307750225,0.36890366673469543,-0.9293388724327087,0.01811533421278,0.0020985305309295654,0.0032219290733337402,-0.043417320799568886,0.00043441005897805354,-0.187963736949879,0.9812157481471184,-0.377829229635665,0.016643912638076387,-3.0499710515191985
1773063443106662656,0.05092763900756836,-0.30360016226768494,-0.02610745094716549,-0.0011148182675242424,0.015274245291948318,0.37158486247062683,-0.9282733201980591,0.012939251028001308,-0.03552529215812683,0.016713261604309082,-0.04333219212719,0.0005799724527410251,-0.1893752728073186,0.9809480436277208,-0.38071553849705003,0.016452985131461897,-3.0501320717741667
1773063443116699648,0.06096458435058594,-0.2577000558376312,-0.10018248111009598,0.04922771453857422,0.014764118008315563,0.37417855858802795,-0.9272391200065613,-0.017998985946178436,-0.024264007806777954,0.060631513595581055,-0.04352251804133166,0.0009372873979562601,-0.19073423633447953,0.9806760225913597,-0.3835108411346132,0.01592131919153036,-3.0497995916822047
1773063443126737920,0.07100272178649902,-0.3297528028488159,-0.10406603664159775,0.0812893807888031,0.014064975082874298,0.37682074308395386,-0.9261794090270996,0.026508141309022903,-0.04561346769332886,0.02475118637084961,-0.04393750650920761,0.001436751465555028,-0.19211514126245327,0.9803872955648576,-0.38636162714461747,0.015184848068262124,-3.049049118369867
1773063443136774656,0.0810396671295166,-0.44091659784317017,-0.14777356386184692,0.13005690276622772,0.013302795588970184,0.3804130256175995,-0.9247210025787354,0.03761577606201172,-0.040203094482421875,0.027244865894317627,-0.04456767188366621,0.002035389906134221,-0.1939983145382358,0.9799868907198942,-0.3902428686440346,0.014384747107485607,-3.047856649632922
1773063443146811648,0.09107661247253418,-0.519067645072937,-0.19746868312358856,0.2226473093032837,0.012400508858263493,0.3848531246185303,-0.9228945374488831,0.016896361485123634,-0.023998022079467773,0.06348901987075806,-0.04558220730907301,0.002806433981219301,-0.19632844305904318,0.9794741378775875,-0.39504867143884176,0.013435730683883854,-3.0458959237907117
1773063443156849664,0.10111451148986816,-0.5691481232643127,-0.25766679644584656,0.3380623161792755,0.01141719426959753,0.3898022770881653,-0.9208278059959412,0.005474287085235119,-0.04052859544754028,0.06297868490219116,-0.047165318730109006,0.003753164653653843,-0.19892716134319283,0.9788714278793369,-0.4004168658658173,0.012398202670020132,-3.0427844291122814
1773063443166886912,0.11115169525146484,-0.6681707501411438,-0.42848846316337585,0.4911952614784241,0.00988987646996975,0.3954242765903473,-0.918445348739624,0.006116602569818497,-0.07006111741065979,0.05214285850524902,-0.04950939298009733,0.005162234852864084,-0.20186800306307234,0.9781469090527571,-0.40652973803216363,0.010767646158648269,-3.038228607028343
1773063443176924672,0.12118959426879883,-0.7732705473899841,-0.5700328350067139,0.6317750215530396,0.007543991319835186,0.4020234942436218,-0.9155982732772827,0.04261165112257004,-0.07972735166549683,0.062128424644470215,-0.052755995199677636,0.007223221648753535,-0.20530146505693525,0.977249165642878,-0.4137257401271067,0.0082392257766222,-3.0319998585476897
1773063443186961664,0.1312265396118164,-0.8823191523551941,-0.7342422604560852,0.8145909309387207,0.004520030226558447,0.40963810682296753,-0.9122369289398193,0.08961144834756851,-0.06175297498703003,0.057225942611694336,-0.05692860523995828,0.009887833417096275,-0.2092457356555965,0.97615446904274,-0.4220573377257501,0.004954845819105964,-3.024024676225663
1773063443196999680,0.1412646770477295,-0.9862415790557861,-0.9299252033233643,0.996436595916748,0.0007832985138520598,0.4181288480758667,-0.9083873629570007,0.1164957582950592,-0.07102194428443909,0.04573178291320801,-0.062202157024186265,0.013228405971290954,-0.21361488320513908,0.9748458952250431,-0.43138448822478365,0.0008622954415263793,-3.013962142693846
1773063443207036672,0.15130162239074707,-1.0564395189285278,-1.1434485912322998,1.1158028841018677,-0.004195337183773518,0.42749279737472534,-0.9040090441703796,0.15310586988925934,-0.07542678713798523,0.04808253049850464,-0.07038429704049211,0.017947151034569352,-0.21834237433538503,0.9731652164654268,-0.4417175620804653,-0.0046407801174844455,-2.9982357836097866
1773063443217074688,0.16133952140808105,-0.8553991317749023,-1.4176737070083618,0.5342235565185547,-0.011650611646473408,0.4362824261188507,-0.899734377861023,0.16404013335704803,-0.04428413510322571,0.04594409465789795,-0.07578661395724037,0.02336368871392166,-0.22268129403123876,0.9716602330719224,-0.45146300397185546,-0.01294822265051012,-2.988887317101056
1773063443227111936,0.17137670516967773,-1.2044166326522827,-1.5559649467468262,1.2584868669509888,-0.025073135271668434,0.44838327169418335,-0.89348965883255,0.043963514268398285,0.11149221658706665,-0.0007364153861999512,-0.08272128350426501,0.03242630853127979,-0.22848129618464705,0.9694854300933723,-0.4649557698238788,-0.02805466902309517,-2.9779977015736545
1773063443237149696,0.18141460418701172,0.5680451989173889,-0.012862218543887138,0.7427383065223694,-0.026215432211756706,0.45117148756980896,-0.892052173614502,-0.032012104988098145,0.5108188390731812,0.15653276443481445,-0.08822546837790314,0.03445880030469668,-0.22975316084010092,0.968629096268207,-0.46807757981066805,-0.029379324593449763,-2.966933004242364
1773063443247186688,0.1914515495300293,0.9975056052207947,-0.117992103099823,0.48902425169944763,-0.023794369772076607,0.4435019791126251,-0.8959574699401855,-0.13115863502025604,0.2987160384654999,-0.36379289627075195,-0.0912983199283986,0.03352190522629652,-0.22560482676104582,0.9693520144792175,-0.4595021741212876,-0.026551234908026366,-2.9599870729260926
1773063443257223680,0.20148849487304688,0.6525218486785889,-0.12994515895843506,0.05054011940956116,-0.023982658982276917,0.4359929859638214,-0.8996304273605347,-0.3950694799423218,0.008846491575241089,-0.41296112537384033,-0.09303882166653535,0.033601617370602306,-0.22148522459722042,0.9701334797735608,-0.4511413468980229,-0.02665203301019672,-2.9564875803100144
1773063443267261696,0.21152663230895996,0.3545997142791748,0.02590395137667656,-0.43840491771698,-0.02501891739666462,0.43148723244667053,-0.9017720818519592,-0.37723326683044434,0.05296406149864197,0.09839683771133423,-0.0921901521661544,0.03368773373018932,-0.2190413407483549,0.9707662090204024,-0.44614071168688696,-0.02773705564483337,-2.958520216923681
1773063443277298688,0.22156357765197754,0.11705132573843002,-0.02204892598092556,-0.5548593401908875,-0.027393126860260963,0.42920511960983276,-0.9027915596961975,-0.3929865062236786,-0.07016581296920776,0.09985882043838501,-0.08967060131926495,0.034209242367839746,-0.21779337394108658,0.9712646083433008,-0.44361252733999706,-0.03033338660833861,-2.9643086811616617
1773063443287336704,0.23160171508789062,-0.2115994393825531,-0.07905735075473785,-0.23505954444408417,-0.029388723894953728,0.42944076657295227,-0.9026167392730713,-0.22375458478927612,-0.15342453122138977,0.04945206642150879,-0.08775659152312686,0.03481221359137524,-0.21789849350247753,0.9713944382614044,-0.4438734505352024,-0.032547973202196316,-2.9687453138505773
1773063443297373696,0.2416386604309082,-0.4692317545413971,-0.20109565556049347,-0.06630674004554749,-0.031429849565029144,0.4326286017894745,-0.9010242223739624,0.05086955428123474,-0.08814617991447449,0.0626758337020874,-0.08718361927003958,0.03589520367662069,-0.21954368127368534,0.9710360723312984,-0.44740633490166937,-0.034868220934525705,-2.9704382587323215
1773063443307411712,0.2516765594482422,-0.4844367206096649,-0.1799410879611969,0.045809414237737656,-0.03313140943646431,0.4370034635066986,-0.8988494277000427,0.1287277191877365,-0.0033791959285736084,0.036758363246917725,-0.08721616323581981,0.037004991459742356,-0.2218240757202047,0.9704731103490601,-0.45226448731580454,-0.036843119214973276,-2.9708120447583144
1773063443317448704,0.26171350479125977,-0.37638935446739197,-0.2659478783607483,0.14626997709274292,-0.03474561125040054,0.4409707188606262,-0.8968486785888672,0.07737866044044495,0.03539341688156128,-0.029191970825195312,-0.08787148479539933,0.038194118192738144,-0.2238679621760077,0.9698984436730566,-0.4566799470802406,-0.0387225220175477,-2.9698886135975022
1773063443327486720,0.27175164222717285,-0.21319742500782013,-0.18579338490962982,0.11032023280858994,-0.03626471757888794,0.44368118047714233,-0.8954506516456604,0.001642528921365738,0.06706100702285767,-0.0577506422996521,-0.08874097560874697,0.0393203862508629,-0.22523006399351317,0.9694587963158864,-0.459702143640036,-0.040476725618364004,-2.9685004104144292
1773063443337523712,0.28178858757019043,-0.051782965660095215,-0.08040331304073334,0.011621084064245224,-0.03714863955974579,0.4448748826980591,-0.8948219418525696,-0.09580118954181671,0.07151305675506592,-0.06400984525680542,-0.08915486793876842,0.039934833503126495,-0.2258190220124568,0.9692587215072122,-0.461034552697431,-0.041491294399530705,-2.967882695460036
1773063443347560704,0.291825532913208,0.07592408359050751,-0.04522601515054703,-0.09351611882448196,-0.03787677362561226,0.44470706582069397,-0.8948748707771301,-0.12850506603717804,0.05443844199180603,-0.05449646711349487,-0.0890271893218657,0.04026881800019044,-0.22570112789296468,0.9692840755187851,-0.46084717133458747,-0.04230108760200352,-2.9683346481970325
1773063443357598720,0.3018636703491211,0.10578504204750061,-0.007898885756731033,-0.17968349158763885,-0.038735900074243546,0.4437691569328308,-0.8953035473823547,-0.10605475306510925,0.01605445146560669,-0.037695109844207764,-0.08839893781583662,0.040511357200543135,-0.22518225359660063,0.9694521217631158,-0.45980029166052433,-0.043238692220915025,-2.96984772116634
1773063443367635712,0.31190061569213867,0.02268163673579693,-0.014542408287525177,-0.18978752195835114,-0.03967340663075447,0.44307464361190796,-0.8956064581871033,-0.05401555821299553,-0.01929229497909546,-0.0023732781410217285,-0.08749251238083337,0.04074344805831442,-0.2248038138746025,0.9696124462217419,-0.45902544634825637,-0.04426887351910789,-2.97195515824922
1773063443377673728,0.32193851470947266,-0.09299410134553909,-0.04566836729645729,-0.14576281607151031,-0.04071493819355965,0.44333401322364807,-0.8954312801361084,0.009434431791305542,-0.03999847173690796,0.028304874897003174,-0.08668771297162048,0.04110432986146987,-0.22493283710235404,0.969639495259938,-0.4593147758386429,-0.045438340340537994,-2.9738871237419757
1773063443387710720,0.33197569847106934,-0.16289296746253967,-0.08132956176996231,-0.0846620425581932,-0.04178397357463837,0.44447392225265503,-0.8948167562484741,0.049230270087718964,-0.04768437147140503,0.03118455410003662,-0.08617587550581296,0.04159432003878897,-0.22552503106412858,0.969526678638535,-0.46058689870386005,-0.04666166802972151,-2.975231459638393
1773063443397748736,0.3420135974884033,-0.2003181129693985,-0.10567591339349747,-0.04900258034467697,-0.04294392466545105,0.44609567523002625,-0.8939543962478638,0.05505939573049545,-0.041875094175338745,0.02774345874786377,-0.08592825835823338,0.0422179623165716,-0.22636350671553618,0.9693263766663883,-0.4623981174760787,-0.04800125907363195,-2.9760620694069964
1773063443407785728,0.3520505428314209,-0.19679142534732819,-0.10413647443056107,-0.0505894273519516,-0.04409681260585785,0.44787245988845825,-0.89300936460495,0.037337176501750946,-0.025081932544708252,0.03105562925338745,-0.08577919071696383,0.042869401185426405,-0.22728294228035517,0.969095725732894,-0.46438437865500326,-0.04933993525975156,-2.9766924713149487
1773063443417823744,0.362088680267334,-0.15014535188674927,-0.10261926800012589,-0.08028154075145721,-0.04530750960111618,0.44939377903938293,-0.8921840786933899,0.01758228987455368,-0.009803324937820435,0.016802608966827393,-0.08555558699803022,0.04351939845255227,-0.2280658066204424,0.96890262769716,-0.4660866122733868,-0.05073910610345797,-2.977492115770859
1773063443427860736,0.37212562561035156,-0.08739892393350601,-0.07930102944374084,-0.1150609627366066,-0.04655449464917183,0.45041418075561523,-0.8916051387786865,0.01295463740825653,0.0007882118225097656,0.008014440536499023,-0.08515079130532167,0.04411840370919663,-0.22858474922580438,0.9687889127545913,-0.4672291805946837,-0.052166878160881835,-2.978671380698625
1773063443437897728,0.38216257095336914,-0.021299803629517555,-0.0837024375796318,-0.1140095442533493,-0.04780688136816025,0.4508376717567444,-0.8913248181343079,0.03134264796972275,0.005903661251068115,0.007184803485870361,-0.08465695935622827,0.04466706659069677,-0.22878473084977077,0.9687598523560146,-0.46770358276477386,-0.05358441477082066,-2.9800288647240647
1773063443447935744,0.3922007083892822,0.014238971285521984,-0.08299577236175537,-0.08243124186992645,-0.048986323177814484,0.4507969319820404,-0.8912813663482666,0.06223095953464508,0.0030910074710845947,0.014068841934204102,-0.08426060949528943,0.04517654436497218,-0.2287321680974276,0.9687831126106154,-0.46765793001368094,-0.05490644025938103,-2.981158889765334
1773063443457972736,0.4022376537322998,0.02073255553841591,-0.08769172430038452,-0.03525973856449127,-0.05002307891845703,0.450600802898407,-0.8913229703903198,0.07715319842100143,-0.0003902316093444824,0.028148531913757324,-0.08406852525010466,0.045652820318799775,-0.22859207150091365,0.9688106344044333,-0.46743820901131433,-0.0560634700148445,-2.9818266659372026
1773063443468010752,0.4122755527496338,0.02767879143357277,-0.09667295962572098,0.019281800836324692,-0.050903674215078354,0.45036768913269043,-0.8913909196853638,0.07182346284389496,-0.0029495060443878174,0.03779900074005127,-0.0841369042545233,0.04610847125729353,-0.22842624257220082,0.968822257211756,-0.46717713114017173,-0.05704393629374661,-2.9819143615776387
1773063443478047488,0.42231249809265137,0.024886466562747955,-0.08586291968822479,0.03832393139600754,-0.05159152299165726,0.4501555562019348,-0.8914585113525391,0.05006564408540726,-0.0053160786628723145,0.04905128479003906,-0.08440425876964146,0.046513184123240806,-0.2282701619836667,0.9688163843868538,-0.4669395490198464,-0.057808678959788036,-2.9815403649979366
1773063443488085760,0.43235063552856445,0.03550577908754349,-0.06425949931144714,0.0055946167558431625,-0.0521550253033638,0.4499184787273407,-0.8915454149246216,0.020370960235595703,-0.005948752164840698,0.05717957019805908,-0.08461461456340875,0.04683922883290692,-0.22810825544852067,0.9688205113247288,-0.46667405621597874,-0.05843297794310436,-2.9812505273859595
1773063443498122752,0.44238758087158203,0.06116426736116409,-0.05293493717908859,-0.021033266559243202,-0.052737098187208176,0.44948163628578186,-0.8917315006256104,0.006762370467185974,-0.01098981499671936,0.05170464515686035,-0.0846476237053064,0.047122287946527786,-0.22784588448910686,0.9688655575211109,-0.4661849712249479,-0.059071305802968516,-2.981327508132415
1773063443508160768,0.4524257183074951,0.07298998534679413,-0.05302721634507179,0.0021941594313830137,-0.053237397223711014,0.448869913816452,-0.8920098543167114,0.03422493487596512,-0.015047281980514526,0.050869107246398926,-0.08465645830701325,0.04734826855785126,-0.22749330915694332,0.96893672116698,-0.46550029030205403,-0.05961180739569582,-2.981429041454175
1773063443518197760,0.4624626636505127,0.0533321350812912,-0.07270238548517227,0.06676942110061646,-0.05365072563290596,0.448286235332489,-0.8922785520553589,0.07339560985565186,-0.0241071879863739,0.05174821615219116,-0.08490553061692774,0.047587440182393415,-0.2271478739011799,0.9689841162818067,-0.4648472191942368,-0.060055472433109505,-2.9810118434765815
1773063443528235776,0.4725005626678467,0.03940291330218315,-0.09064649790525436,0.15766417980194092,-0.05389005318284035,0.447963148355484,-0.8924263715744019,0.09542448073625565,-0.034541547298431396,0.05558866262435913,-0.0855468451161412,0.04784305558498279,-0.2269313649482013,0.9689658865974656,-0.4644858092440311,-0.06031275332896793,-2.9797444730879286
1773063443538272512,0.48253750801086426,0.054298240691423416,-0.0936095267534256,0.24541960656642914,-0.05379831790924072,0.4476897418498993,-0.8925691246986389,0.08608590811491013,-0.03904411196708679,0.051962435245513916,-0.08664533407197882,0.04803823846397811,-0.22673280311665497,0.968905176923292,-0.4641800389087308,-0.06020072723772652,-2.97744755575166
1773063443548309760,0.49257469177246094,0.09942834824323654,-0.0847712904214859,0.30752769112586975,-0.05336214601993561,0.44714516401290894,-0.8928682208061218,0.04544283449649811,-0.035463035106658936,0.058242976665496826,-0.08812290427819026,0.04812991931353897,-0.2263832901130504,0.9688490373912371,-0.46357109944068176,-0.05969385641658718,-2.9742726221798184
1773063443558347776,0.5026125907897949,0.19533516466617584,-0.07206641882658005,0.3335401117801666,-0.0526006743311882,0.44600817561149597,-0.8934818506240845,-0.012798488140106201,-0.02164602279663086,0.07411545515060425,-0.08982289882586,0.048072275782497315,-0.2257169003287873,0.9688512424217992,-0.46230036793849166,-0.058803691845345424,-2.970543350998172
1773063443568384768,0.5126495361328125,0.2942763566970825,-0.03929528966546059,0.31929394602775574,-0.05160997062921524,0.444002240896225,-0.8945381045341492,-0.06255629658699036,-0.013033002614974976,0.09288710355758667,-0.09153899075124348,0.0478489565261116,-0.22459167743656872,0.9689632517592903,-0.4600604299380738,-0.05763065816297175,-2.966708844116956
1773063443578422784,0.5226876735687256,0.4221525490283966,-0.026995215564966202,0.30033278465270996,-0.050523024052381516,0.44095155596733093,-0.8961077928543091,-0.08079411089420319,-0.014758318662643433,0.10001099109649658,-0.09315561025230355,0.04748924979613125,-0.22291451813292432,0.9692141024202738,-0.4566586054747088,-0.05632089671154613,-2.9630433968100434
1773063443588459776,0.5327246189117432,0.5313992500305176,-0.043231576681137085,0.3161715269088745,-0.04952593892812729,0.43674466013908386,-0.8982211947441101,-0.05723980814218521,-0.022209137678146362,0.10278052091598511,-0.09479542870266248,0.047108184248677014,-0.22061329784629194,0.9696001349075054,-0.45197675646040264,-0.05508202474256181,-2.959344273429877
1773063443598497536,0.5427625179290771,0.5926287770271301,-0.079913429915905,0.3753426969051361,-0.048576340079307556,0.4318051040172577,-0.9006579518318176,-0.017784137278795242,-0.02712675929069519,0.12583190202713013,-0.09666342373626247,0.046752724349194426,-0.2179110326246842,0.970043926436844,-0.4464931180127001,-0.05388207747215398,-2.955187121947818
1773063443608534784,0.5527997016906738,0.6236536502838135,-0.11896855384111404,0.49577099084854126,-0.047627367079257965,0.42650333046913147,-0.9032312035560608,0.008793748915195465,-0.028401553630828857,0.1417413353919983,-0.09901502492077977,0.0464742033106377,-0.21499897523325515,0.9704698268747864,-0.4406233125395902,-0.05268119512359481,-2.9500408470186525
1773063443618572800,0.5628376007080078,0.6634854674339294,-0.1551036387681961,0.6334571838378906,-0.046451322734355927,0.42094936966896057,-0.9058939814567566,0.00629018247127533,-0.03072109818458557,0.1552683711051941,-0.10205730085541065,0.04620287286628698,-0.21193937717825084,0.9708405487805203,-0.43449167639087577,-0.051231906109860885,-2.94342752816651
1773063443628609536,0.5728745460510254,0.720059335231781,-0.1944298893213272,0.7298240661621094,-0.04515649378299713,0.41500505805015564,-0.908697783946991,-0.03385350853204727,-0.03944051265716553,0.15888094902038574,-0.10573256956866109,0.045965447141821304,-0.20865828379378318,0.9711691378046934,-0.42794836540294967,-0.04965278753674577,-2.9354957276939553
1773063443638647808,0.5829126834869385,0.8032788634300232,-0.2191900908946991,0.7858687043190002,-0.04393891990184784,0.40837985277175903,-0.9117539525032043,-0.09310024976730347,-0.03991061449050903,0.16382914781570435,-0.10982484000744913,0.04578883912675635,-0.20500344762242834,0.9715016169814857,-0.4206784732333748,-0.0481543882218663,-2.92673819283072
1773063443648684800,0.592949628829956,0.8918330669403076,-0.22164525091648102,0.8256832361221313,-0.04268435016274452,0.4009757339954376,-0.915093719959259,-0.14229793846607208,-0.028020411729812622,0.17548495531082153,-0.11417616562138086,0.045566994736223915,-0.2009397759283558,0.9718593338205268,-0.4125816948002162,-0.04661100304394994,-2.9174562530140307
1773063443658721792,0.6029865741729736,0.9784547686576843,-0.22318854928016663,0.8811694383621216,-0.041345465928316116,0.3927246034145355,-0.9187262654304504,-0.16927160322666168,-0.0020080506801605225,0.18357306718826294,-0.1187658596921391,0.045259266184801514,-0.19643948096434627,0.9722437251702849,-0.4035923726852727,-0.04497268798379286,-2.9076862254557367
1773063443668759808,0.6130247116088867,1.0710166692733765,-0.222185879945755,0.9931034445762634,-0.03972422704100609,0.3836638629436493,-0.92261803150177,-0.1675969362258911,0.03979805111885071,0.19126427173614502,-0.12377550379105265,0.04479555883704551,-0.1915315794055433,0.9726194489924673,-0.3937605269848423,-0.04302940882878843,-2.897017628950196
1773063443678796800,0.6230616569519043,1.1962792873382568,-0.24227383732795715,1.1367977857589722,-0.0378110334277153,0.3735794723033905,-0.9268272519111633,-0.1500704437494278,0.0873275101184845,0.18920212984085083,-0.12941870434972086,0.044185094757807,-0.18610228604654427,0.972966867615154,-0.38286489693372994,-0.04077359393683182,-2.8850193736521974
1773063443688834560,0.6330995559692383,1.3783636093139648,-0.29312822222709656,1.3247166872024536,-0.035780247300863266,0.3620460033416748,-0.9314732551574707,-0.13119667768478394,0.1254570186138153,0.17517143487930298,-0.13594105393923955,0.04351123585212173,-0.17991701015335276,0.9732711669967862,-0.37046186568611067,-0.038393655118269185,-2.8712345436420716
1773063443698871552,0.6431365013122559,1.5479958057403564,-0.3304617404937744,1.5259262323379517,-0.03366606682538986,0.3487902283668518,-0.9365959763526917,-0.12537629902362823,0.1635999083518982,0.16999441385269165,-0.14350564241353964,0.042769534464489535,-0.17283746597542932,0.9735010150986622,-0.3562799664092026,-0.03592966516617778,-2.855346744590891
1773063443708909824,0.653174638748169,1.7499867677688599,-0.346736878156662,1.7306065559387207,-0.03127625584602356,0.33381232619285583,-0.9421205520629883,-0.14220091700553894,0.20677605271339417,0.18497943878173828,-0.152108769674585,0.04182374764938902,-0.1648954117764478,0.9736135358769947,-0.3403450050581999,-0.03318553548717938,-2.8373389176522563
1773063443718946816,0.6632115840911865,2.008082628250122,-0.3591890037059784,1.9317257404327393,-0.028654731810092926,0.316554456949234,-0.9481414556503296,-0.17414984107017517,0.232304185628891,0.1826080083847046,-0.1617262614238048,0.04059955705940858,-0.15582347849639175,0.9736094919602473,-0.32209494474208733,-0.03021280421634617,-2.817287263434628
1773063443728984832,0.6732497215270996,2.296419382095337,-0.36758142709732056,2.105839490890503,-0.025889957323670387,0.29655423760414124,-0.9546650052070618,-0.20596733689308167,0.23028597235679626,0.16996651887893677,-0.1723051806366951,0.03903529279022106,-0.145408856001323,0.9734697902957218,-0.30108254021471437,-0.027112770836183447,-2.7953324072251013
1773063443739021824,0.6832866668701172,2.585768938064575,-0.3780362010002136,2.268428325653076,-0.02321009337902069,0.2736307978630066,-0.9615547060966492,-0.2351822406053543,0.23344925045967102,0.17050862312316895,-0.18371440491462063,0.037142420474912216,-0.13357800308228976,0.9731527887945807,-0.27716589236818423,-0.024133402791312687,-2.7717852747440235
1773063443749058816,0.6933236122131348,2.908740997314453,-0.38322335481643677,2.4381210803985596,-0.020747022703289986,0.24757640063762665,-0.968646228313446,-0.24702946841716766,0.26449328660964966,0.18382567167282104,-0.19593960622846077,0.034891170020141235,-0.12024766823349911,0.9725896822032978,-0.2501779848789607,-0.021415301553660195,-2.7466842405177365
1773063443759096576,0.7033615112304688,3.3182051181793213,-0.36030659079551697,2.615922212600708,-0.018489589914679527,0.21775303781032562,-0.9758287668228149,-0.24568581581115723,0.3240712881088257,0.19340384006500244,-0.2089983201326072,0.0321266066808087,-0.10513565713752478,0.9717170374616994,-0.21951166502875305,-0.01894531034501012,-2.7199723908397777
1773063443769133824,0.7133986949920654,3.846961498260498,-0.32857102155685425,2.80918025970459,-0.016411067917943,0.18307310342788696,-0.9829623103141785,-0.23648810386657715,0.38612550497055054,0.20090359449386597,-0.22292787106221337,0.02861290679321659,-0.08775046631874805,0.9704557054625694,-0.18411148780090855,-0.016693970070620602,-2.6915391277704384
1773063443779171584,0.7234365940093994,4.449794769287109,-0.30515679717063904,2.993482828140259,-0.01478839386254549,0.14244742691516876,-0.9896919131278992,-0.2251560539007187,0.41649729013442993,0.20168226957321167,-0.23772764748364542,0.024219250518598724,-0.06758316734631434,0.9686750724792299,-0.14293362251401565,-0.014941309968590673,-2.661344283769775
1773063443789208576,0.733473539352417,5.027701377868652,-0.2869369387626648,3.164510726928711,-0.014053234830498695,0.09566383808851242,-0.9953144788742065,-0.22433483600616455,0.419167697429657,0.22418111562728882,-0.253277618028555,0.018948135149005858,-0.04453899853223543,0.966182082127286,-0.09581035834055496,-0.014118452796297169,-2.629521446860375
1773063443799246848,0.7435116767883301,5.511146545410156,-0.2541472911834717,3.308427333831787,-0.014502918347716331,0.043297089636325836,-0.9989569783210754,-0.22988185286521912,0.40929386019706726,0.28766852617263794,-0.2694239995449202,0.012820672234335695,-0.01889829372088409,0.9627508298806194,-0.04331062865916556,-0.014517040804372246,-2.596171363473824
1773063443809283840,0.7535486221313477,5.892220973968506,-0.24007047712802887,3.4138457775115967,-0.016472848132252693,-0.013479234650731087,-0.9997734427452087,-0.24405571818351746,0.38310813903808594,0.36897510290145874,-0.2859200606370253,0.005965779208948581,0.008813820730653399,0.958194338131256,0.013479642543006699,-0.016475090006292017,-2.561514893935347
1773063443819321600,0.7635865211486816,6.156270503997803,-0.2263229787349701,3.497526168823242,-0.020334117114543915,-0.07330279052257538,-0.9971024394035339,-0.256017804145813,0.3492732644081116,0.44506996870040894,-0.3025303508978234,-0.0014073015669979303,0.03803698793455543,0.9523794305788861,0.07336859824405591,-0.02039038119746175,-2.52569131700014
1773063443829358848,0.7736237049102783,6.2329607009887695,-0.15309776365756989,3.5801753997802734,-0.025924202054739,-0.1343686878681183,-0.9905922412872314,-0.2570652961730957,0.3254392445087433,0.508094072341919,-0.3191811189193152,-0.009235524178552282,0.06796015850883871,0.9452087492765727,0.13477634008142622,-0.026164434997226767,-2.4885061015527365
1773063443839396608,0.7836616039276123,6.284341335296631,-0.14209410548210144,3.6683545112609863,-0.0333198718726635,-0.19522207975387573,-0.9801928997039795,-0.2579856514930725,0.29528921842575073,0.5253283977508545,-0.3358259709241959,-0.017347555875127398,0.09799290881967912,0.9366522648674973,0.19648388147518875,-0.033980094260543284,-2.4497208927023237
1773063443849433600,0.7936985492706299,6.337777614593506,-0.18262968957424164,3.755681037902832,-0.04335871711373329,-0.2554740011692047,-0.9658432006835938,-0.2557898461818695,0.2535971701145172,0.5089645385742188,-0.352424878278037,-0.025361201887420116,0.12819991119650334,0.9266705829085288,0.2583379507894862,-0.04486196689004549,-2.4089235331111474
1773063443859470592,0.8037354946136475,6.353446006774902,-0.17256666719913483,3.802868604660034,-0.055912215262651443,-0.31459909677505493,-0.9475765228271484,-0.25443631410598755,0.21662241220474243,0.49364280700683594,-0.3688410309364535,-0.033303705435771096,0.15843803996753925,0.9152838175166619,0.32003427367393616,-0.05893715278997101,-2.365932308535208
1773063443869508864,0.8137736320495605,6.307960033416748,-0.17428931593894958,3.837949514389038,-0.0707026794552803,-0.3717506527900696,-0.9256362915039062,-0.2538822889328003,0.18966755270957947,0.489021360874176,-0.3849337686185721,-0.04117330898484341,0.18837888927163118,0.9025763807539975,0.3808941280860369,-0.07623475564324254,-2.3206362580174837
1773063443879545600,0.8238105773925781,6.185544967651367,-0.1332545429468155,3.8763720989227295,-0.08760961890220642,-0.4260348379611969,-0.9004548192024231,-0.23013940453529358,0.1707552969455719,0.5051148533821106,-0.40068981221874106,-0.048859190818922885,0.2176818009215118,0.8886367146524178,0.4401054191052003,-0.09698957612754135,-2.2726716643626252
1773063443889583872,0.8338487148284912,5.933605670928955,-0.05088270455598831,3.929763078689575,-0.10608641803264618,-0.4762306809425354,-0.8728975057601929,-0.17870360612869263,0.1600533127784729,0.5128206014633179,-0.4162390027291491,-0.05635526842304499,0.24571392812307677,0.8736097205703146,0.4963630757720771,-0.12094053084218861,-2.221634960719849
1773063443899620864,0.8438856601715088,5.6184983253479,-0.04816361889243126,4.019214630126953,-0.12635886669158936,-0.521404504776001,-0.8439021110534668,-0.10719215869903564,0.14464974403381348,0.4993281364440918,-0.4317061472915078,-0.06330085487199749,0.27210650989815177,0.8576600826353389,0.5484960920114699,-0.14862751507713712,-2.167053671411584
1773063443909658624,0.8539235591888428,5.223721027374268,-0.06564567238092422,4.127140998840332,-0.14906173944473267,-0.5609908699989319,-0.8142910599708557,-0.009431302547454834,0.12104946374893188,0.4769497513771057,-0.44717438077481086,-0.06917781328050956,0.2967640557338243,0.84094037277496,0.5955822427758154,-0.18105248114865546,-2.1084310229828875
1773063443919695616,0.8639605045318604,4.565268516540527,-0.007302736863493919,4.200343608856201,-0.17347057163715363,-0.5936869978904724,-0.785775899887085,0.08245190978050232,0.08224290609359741,0.44455885887145996,-0.4627830283582658,-0.0738253035787134,0.31884459206276183,0.8238446272529067,0.6356329968342748,-0.2172783608813256,-2.046245965459011
1773063443929733632,0.8739986419677734,3.8289623260498047,-0.2505628168582916,4.199930191040039,-0.199912428855896,-0.6183451414108276,-0.7600554823875427,0.1370462328195572,-0.014452099800109863,0.3952636122703552,-0.47822470560232233,-0.07634343125537287,0.33785194036312705,0.8070495685241376,0.6666353040233209,-0.2571979794886134,-1.9822464008248972
1773063443939770624,0.884035587310791,3.211864948272705,-0.522623598575592,4.107065677642822,-0.22909660637378693,-0.6357734799385071,-0.737093448638916,0.17302057147026062,-0.17332375049591064,0.3638330101966858,-0.4928517674371285,-0.07606502916253838,0.3544959488614655,0.7909765114815688,0.6890102192044352,-0.3013452099713424,-1.9182942927544684
1773063443949808896,0.8940737247467041,2.664334774017334,-0.5754143595695496,4.023416519165039,-0.2592725157737732,-0.6472868323326111,-0.7167967557907104,0.18705269694328308,-0.3546357750892639,0.33451831340789795,-0.5066836682477479,-0.07389266776939817,0.3689735766173467,0.775673991925571,0.7040195945604368,-0.34706853809517135,-1.8557268791053279
1773063443959845888,0.9041106700897217,2.0598304271698,-0.774348258972168,4.126895427703857,-0.2904602587223053,-0.6529095768928528,-0.699529767036438,0.2175537645816803,-0.4909808039665222,0.303564190864563,-0.5202528317864784,-0.06980840281098186,0.38126355766399345,0.7609874102976987,0.7114194533135637,-0.3935596621353746,-1.794389832358772
1773063443969882624,0.9141476154327393,1.2835783958435059,-1.0884218215942383,4.365572929382324,-0.3247772753238678,-0.6515132784843445,-0.685602068901062,0.3084045946598053,-0.5351932644844055,0.314691424369812,-0.533941214425309,-0.06248606833861086,0.3915283769880423,0.7467983917855435,0.7095774921077515,-0.4423961675414102,-1.7339481751064674
1773063443979920640,0.9241855144500732,0.41954851150512695,-1.3973090648651123,4.45201301574707,-0.36200401186943054,-0.6420432329177856,-0.6758206486701965,0.39868617057800293,-0.49227988719940186,0.3566678762435913,-0.5476677027800297,-0.0513832898437027,0.399311181231103,0.7334647168069498,0.6971604189458318,-0.4917599936394524,-1.676936294346426
1773063443989957888,0.9342226982116699,-0.23779921233654022,-1.729048728942871,4.300358772277832,-0.4005095660686493,-0.6257429718971252,-0.6693562865257263,0.4230925738811493,-0.42436689138412476,0.3812398910522461,-0.560510193827499,-0.03701013950389559,0.4049099808654396,0.7214613860175945,0.6760836374450477,-0.5392056239914335,-1.6269166970395703
1773063443999994624,0.9442594051361084,-0.6625488996505737,-1.9554065465927124,4.0089430809021,-0.43862205743789673,-0.605148196220398,-0.6643841862678528,0.4063039720058441,-0.3680420517921448,0.3239300847053528,-0.571743879659171,-0.020546549224511528,0.4091280343374851,0.710845269317094,0.6499519874710192,-0.5835077256492989,-1.5851745774151103
1773063444010031360,0.954296350479126,-0.8746941685676575,-2.192697525024414,3.6782236099243164,-0.47529762983322144,-0.582310676574707,-0.659550130367279,0.3526780307292938,-0.33542919158935547,0.23128169775009155,-0.5811494155871167,-0.003018402028925207,0.41257220315059273,0.701455874106048,0.6215680845974456,-0.6244438526403557,-1.5512357288454477
1773063444020069632,0.9643344879150391,-0.9188211560249329,-2.3474173545837402,3.3962433338165283,-0.5105860829353333,-0.5589255690574646,-0.6533790826797485,0.27956801652908325,-0.3349342942237854,0.15044939517974854,-0.5887291454111189,0.014951769850741758,0.4160371454716257,0.6928836190114489,0.5930895069930439,-0.6633300086683069,-1.5232909868042805
1773063444030106624,0.9743714332580566,-0.9488580822944641,-2.390925884246826,3.1213972568511963,-0.543947160243988,-0.5355146527290344,-0.6460229158401489,0.20825380086898804,-0.3435899615287781,0.08237850666046143,-0.5949476290186814,0.03276424211522262,0.41942227356651973,0.6848714027849307,0.5651169954706535,-0.6998275275920618,-1.4999810960621724
1773063444040144384,0.9844093322753906,-0.7594996094703674,-2.514890193939209,2.783513069152832,-0.5753054022789001,-0.5132930278778076,-0.6368312835693359,0.12131065130233765,-0.3691990375518799,0.025243759155273438,-0.5996865880320378,0.05001331589518733,0.4231820313399048,0.6773416773278024,0.539017476060595,-0.7346834750262723,-1.4804700792908538
1773063444050181632,0.9944465160369873,-0.41943931579589844,-2.427683115005493,2.459653615951538,-0.6043099164962769,-0.4941006600856781,-0.6250392198562622,0.047394633293151855,-0.4085330069065094,-0.05527389049530029,-0.6030345007629093,0.06579158830021455,0.42796244513511156,0.6699768556974126,0.5168001084676402,-0.7685377467594539,-1.4629216460715573
1773063444060218624,1.0044834613800049,-0.16324563324451447,-2.3152103424072266,2.2227442264556885,-0.6303640604019165,-0.47780895233154297,-0.6118330955505371,0.013451218605041504,-0.42961597442626953,-0.12257242202758789,-0.6056522711370835,0.07961318578364683,0.43329571923605475,0.6626476259614017,0.49815882725601834,-0.8003149215951958,-1.4462581109341022
1773063444070256384,1.0145213603973389,0.09567328542470932,-2.3083810806274414,2.0320956707000732,-0.6544421911239624,-0.4639536738395691,-0.5970364809036255,0.0005725622177124023,-0.4511311948299408,-0.1375521421432495,-0.607596482544708,0.09199713874404318,0.4393384803152992,0.6552441542903589,0.48245309432408984,-0.8312363733503829,-1.4299211647409242
1773063444080293632,1.0245585441589355,0.16840527951717377,-2.246429920196533,1.898427963256836,-0.6769387125968933,-0.45167335867881775,-0.5811585783958435,0.00823754072189331,-0.47540491819381714,-0.11043083667755127,-0.6090284263708391,0.10337284561099747,0.44579679106021414,0.6478146115136373,0.46864001456402443,-0.861382558741271,-1.4140204550082456
1773063444090331648,1.0345964431762695,0.07151930034160614,-2.1916024684906006,1.7748215198516846,-0.6979426741600037,-0.4397287964820862,-0.5652561187744141,0.027013778686523438,-0.48112380504608154,-0.03388017416000366,-0.6100409937119486,0.11430026099273698,0.45200373688494616,0.6406855151695358,0.45529669548886426,-0.8900544739087329,-1.3997035497964114
1773063444100368384,1.044633388519287,-0.07818896323442459,-2.214418411254883,1.6409705877304077,-0.717681348323822,-0.4275846779346466,-0.5496405363082886,0.0390162467956543,-0.479306161403656,0.02975839376449585,-0.6104904761260646,0.1252337522314116,0.4577075760931218,0.634130548145928,0.44181920289851107,-0.9172243576503818,-1.387926558542182
1773063444110406656,1.0546715259552002,-0.25237274169921875,-2.213955879211426,1.5120065212249756,-0.7363923788070679,-0.4152033030986786,-0.5341652035713196,0.05864274501800537,-0.4635503888130188,0.06941300630569458,-0.6102508489355551,0.13639188919620374,0.4629412904441402,0.6282328178302657,0.42816625429196076,-0.9432382617509212,-1.3789700651555135
1773063444120443648,1.0647084712982178,-0.3645285964012146,-2.2317099571228027,1.42747962474823,-0.7541473507881165,-0.4025581181049347,-0.5188534259796143,0.09188538789749146,-0.4365074336528778,0.08561062812805176,-0.6094507664496999,0.14775239479727442,0.46769918852194575,0.6228936944811923,0.4143097008779874,-0.9681695048308425,-1.3724852407425046
1773063444130481408,1.0747463703155518,-0.36554643511772156,-2.1947765350341797,1.3696836233139038,-0.7711019515991211,-0.38997122645378113,-0.5033131837844849,0.12417513132095337,-0.4067206084728241,0.08061426877975464,-0.6082753977901625,0.1590918514058231,0.4722638924053777,0.6177844121877872,0.4006003422571363,-0.9925117780891201,-1.3673331415257992
1773063444140518656,1.0847835540771484,-0.33241006731987,-2.14162540435791,1.3443849086761475,-0.7870781421661377,-0.37764811515808105,-0.48773956298828125,0.1439507007598877,-0.37131428718566895,0.02616119384765625,-0.6070167180885618,0.17005903987353366,0.4766656561098675,0.612699340543906,0.3872549948244241,-1.0160290700622898,-1.3626338452973406
1773063444150556672,1.0948214530944824,-0.33381709456443787,-2.095871686935425,1.3638417720794678,-0.8023533821105957,-0.3652748167514801,-0.47202053666114807,0.1685338020324707,-0.3124595582485199,-0.036097168922424316,-0.60576864631084,0.1808103532011157,0.4809338316392579,0.6074986491879784,0.37392800611760924,-1.039027847952025,-1.3581037449318456
1773063444160593408,1.1048583984375,-0.3440369665622711,-2.0761263370513916,1.3613642454147339,-0.8169682621955872,-0.35257354378700256,-0.4563494920730591,0.18369799852371216,-0.24236667156219482,-0.07961547374725342,-0.6045610410348619,0.1914721908177961,0.48493675165116007,0.6022298606333142,0.36031981671895974,-1.061382796930289,-1.3539714544655073
1773063444170630400,1.1148953437805176,-0.299618124961853,-2.0484447479248047,1.3199527263641357,-0.8309390544891357,-0.3400220572948456,-0.4403696656227112,0.1698366403579712,-0.1828814148902893,-0.1121511459350586,-0.6032233987665349,0.20195505444084713,0.4889062444893325,0.5969141357174655,0.3469403636834829,-1.0834640584422042,-1.3501551778311784
1773063444180668672,1.1249334812164307,-0.20136743783950806,-1.9685511589050293,1.2837728261947632,-0.8440138697624207,-0.32801052927970886,-0.42432263493537903,0.14931172132492065,-0.14054110646247864,-0.13088369369506836,-0.6018889880937689,0.2119053709980751,0.49288416226542736,0.5915158070770814,0.3341968147005759,-1.1049561811821436,-1.3461790651147565
1773063444190705664,1.1349704265594482,-0.07061351835727692,-1.935642957687378,1.2624049186706543,-0.8562523126602173,-0.31657445430755615,-0.40818217396736145,0.12784349918365479,-0.11326563358306885,-0.13774675130844116,-0.6006674800538291,0.22122861961438514,0.49695755611744263,0.5859093174431861,0.3221160137614886,-1.125955484217247,-1.3415712558698842
1773063444200743424,1.1450083255767822,0.1003638207912445,-1.8816484212875366,1.2349666357040405,-0.8678380846977234,-0.3058270514011383,-0.3915698230266571,0.10762995481491089,-0.1048632562160492,-0.10987979173660278,-0.5995373204499905,0.22991761861118015,0.5013511587445533,0.5799482292681388,0.31080697618046016,-1.1469437203334467,-1.3358945280591805
1773063444210780672,1.155045509338379,0.34208688139915466,-1.8529841899871826,1.2354084253311157,-0.8787181377410889,-0.2958758771419525,-0.37458229064941406,0.09351617097854614,-0.10201233625411987,-0.07056236267089844,-0.5986428105689372,0.2377689037433997,0.506137145217505,0.5735136859389893,0.30037231249501944,-1.1678397954899327,-1.3286012234483122
1773063444220818432,1.165083408355713,0.595086932182312,-1.8189873695373535,1.3013858795166016,-0.8891494870185852,-0.2863750755786896,-0.356935054063797,0.0975082516670227,-0.07357978820800781,-0.04174661636352539,-0.5981494058375665,0.24483247247279155,0.5114582430829958,0.5662904801906564,0.2904413020851308,-1.189054143672672,-1.3189622840856492
1773063444230855424,1.1751203536987305,0.7948494553565979,-1.7286677360534668,1.3766261339187622,-0.8991783857345581,-0.27679476141929626,-0.33891400694847107,0.10534000396728516,-0.01280173659324646,-0.03954973816871643,-0.5981910383102117,0.2512298791343039,0.5171330111431535,0.5582332539846162,0.28045693815670397,-1.210347652377764,-1.3070446151042758
1773063444240893696,1.1851584911346436,0.8807129263877869,-1.5113993883132935,1.4278813600540161,-0.9083861112594604,-0.26685118675231934,-0.32190829515457153,0.0897064208984375,0.05658513307571411,0.02196630835533142,-0.598948375967318,0.2568611214313163,0.5225592950000819,0.5497407639868738,0.2701242561211925,-1.2302303071050957,-1.2937312005827437
1773063444250930432,1.1951954364776611,0.8294398784637451,-1.3646432161331177,1.4181288480758667,-0.9166634678840637,-0.25649452209472656,-0.3064940273761749,0.041617751121520996,0.09813883900642395,0.07332447171211243,-0.6001976368759802,0.2619575677936911,0.5273814801938673,0.5413037397129705,0.25939362367929614,-1.2481236074165287,-1.2804172111812926
1773063444260968448,1.2052333354949951,0.7394090294837952,-1.3187987804412842,1.3225396871566772,-0.9241194725036621,-0.24613824486732483,-0.29226574301719666,-0.02606058120727539,0.07833731174468994,0.06452834606170654,-0.601409023057285,0.26684154149845885,0.5316603363819706,0.5333292903958287,0.24869388578624585,-1.2644859807982305,-1.268330382543127
1773063444271005696,1.2152705192565918,0.792194664478302,-1.4685232639312744,1.2396584749221802,-0.9312149882316589,-0.23644836246967316,-0.27736374735832214,-0.08866709470748901,0.0026837587356567383,0.010563880205154419,-0.6020758885415073,0.27167336845803164,0.5362011794052741,0.5255344013109341,0.23870892880554287,-1.2813118304299853,-1.2568969360246314
1773063444281042688,1.2253074645996094,0.857038676738739,-1.6169832944869995,1.219497799873352,-0.9381937980651855,-0.22715388238430023,-0.2611387073993683,-0.12293285131454468,-0.06624208390712738,-0.061157435178756714,-0.602283688418266,0.27651202787366225,0.5412686482622235,0.5175168123223965,0.22915416692173116,-1.2993257887142373,-1.2452835259243245
1773063444291080448,1.2353453636169434,1.0881032943725586,-1.7807886600494385,1.2835270166397095,-0.9452894330024719,-0.21781569719314575,-0.2428668737411499,-0.15418261289596558,-0.09794971346855164,-0.12059754133224487,-0.6021860232113903,0.28139041269018045,0.5471617694337708,0.508729290514305,0.21957586412486274,-1.3193123181138575,-1.2323741242357675
1773063444301117696,1.24538254737854,1.3183435201644897,-1.9248573780059814,1.4033095836639404,-0.9524700045585632,-0.20789054036140442,-0.2226712703704834,-0.17535287141799927,-0.07323741912841797,-0.1867067813873291,-0.6021820812855637,0.2861104946173565,0.5538999474917932,0.49871078969693555,0.20941788102067285,-1.3411380213641815,-1.2170385676978077
1773063444311155456,1.255420446395874,1.4478256702423096,-2.0485291481018066,1.5371265411376953,-0.9596889019012451,-0.19669842720031738,-0.20076552033424377,-0.1929904818534851,0.018689408898353577,-0.15178881585597992,-0.6022680875889669,0.2909667234905647,0.561209054829305,0.4874995863265574,0.19798941145050622,-1.3645718610128936,-1.1999055533304877
1773063444321192448,1.2654573917388916,1.5648186206817627,-2.180027484893799,1.5248844623565674,-0.9666606783866882,-0.18465159833431244,-0.17740033566951752,-0.23072701692581177,0.14737437665462494,-0.07578879594802856,-0.6022101804868577,0.2958975928373949,0.5689854563831123,0.47543981866435137,0.18571735343514045,-1.389297197927867,-1.181728503044182
1773063444331230720,1.2754955291748047,1.646736979484558,-2.115644931793213,1.3289566040039062,-0.972817599773407,-0.17337428033351898,-0.1535160392522812,-0.29709506034851074,0.2882577180862427,0.008786454796791077,-0.6017876151533322,0.30024100988660063,0.5771458376821162,0.46325979796316524,0.17425481482088045,-1.414281450906679,-1.1630995560752535
1773063444341267712,1.2855324745178223,1.7581756114959717,-1.9963775873184204,1.1428070068359375,-0.9778444170951843,-0.1637675166130066,-0.13038505613803864,-0.3469693064689636,0.4076182544231415,0.11068595945835114,-0.6011573267110439,0.3034299557469998,0.5854380709927651,0.45144467109481057,0.16450852653894202,-1.4382389720206905,-1.1441245243100366
1773063444351305472,1.2955703735351562,1.8617829084396362,-1.7039824724197388,1.042914867401123,-0.9818174242973328,-0.1552302986383438,-0.10926072299480438,-0.3334137797355652,0.4764888882637024,0.16175098717212677,-0.6008768062039029,0.30533861147897384,0.5934121428428987,0.4399742073888387,0.155860569947582,-1.4599681743526098,-1.1245150955403234
1773063444361342720,1.305607557296753,2.055142641067505,-1.5260790586471558,0.9142775535583496,-0.9849109053611755,-0.14750269055366516,-0.0905190110206604,-0.31756412982940674,0.4875905513763428,0.1192818209528923,-0.6012103537990101,0.30588776011304103,0.6009768488172033,0.42872572810886905,0.1480428732780618,-1.4791480041051508,-1.10383162693912
1773063444371379712,1.3156445026397705,2.3294320106506348,-1.4582182168960571,0.7664297819137573,-0.9873488545417786,-0.1409926563501358,-0.07254970073699951,-0.3023545742034912,0.4312910735607147,-0.003225453197956085,-0.6018148048004555,0.30498860101489594,0.6088572112941526,0.41724558155425245,0.14146401095321523,-1.497448847465767,-1.0809663253216442
1773063444381417472,1.3256824016571045,2.6793758869171143,-1.429833173751831,0.6393799781799316,-0.9892414808273315,-0.1356334239244461,-0.0548187680542469,-0.2286694049835205,0.3603495955467224,-0.04390562325716019,-0.6026411742921929,0.30257193678310235,0.6172850549100802,0.4052568882901274,0.13605276906720823,-1.5154379959301958,-1.0552735019412451
1773063444391454464,1.335719347000122,2.959774971008301,-1.3918119668960571,0.6223386526107788,-0.990727424621582,-0.13074424862861633,-0.036951225250959396,-0.12606346607208252,0.32894060015678406,-0.00804692879319191,-0.6037394583445896,0.2987813729235066,0.6263019061844947,0.3923957798301981,0.1311196276702372,-1.5335165406311146,-1.0263360127338201
1773063444401492480,1.3457574844360352,3.0004079341888428,-1.2754740715026855,0.6839902997016907,-0.9919474720954895,-0.1250935196876526,-0.0197871383279562,-0.03794437646865845,0.39062702655792236,0.05437880754470825,-0.6052345605643873,0.2943392676167039,0.635193534586632,0.37892554265699385,0.12542208597346968,-1.5508512041344371,-0.9958002353503159
1773063444411529472,1.3557944297790527,2.91210675239563,-1.2855546474456787,0.7022457122802734,-0.9929494261741638,-0.11848407238721848,-0.0035870594438165426,-0.037613868713378906,0.4559016823768616,0.04994326829910278,-0.6068065260526493,0.28997116963419856,0.6435240408188199,0.3654850784013877,0.11876306152514453,-1.5671838128380409,-0.9658954116317018
1773063444421567488,1.3658323287963867,2.9806530475616455,-1.3885188102722168,0.6222214698791504,-0.9936543107032776,-0.11171062290668488,0.013119137845933437,-0.11002928018569946,0.3971262276172638,-0.021831868216395378,-0.6079152568557197,0.2855675965248936,0.6519284599928169,0.3519653226030269,0.11194428281788107,-1.5839984797884676,-0.9361982447633959
1773063444431604736,1.3758695125579834,3.154137134552002,-1.5400331020355225,0.6104629039764404,-0.9939795136451721,-0.10502936691045761,0.031198088079690933,-0.17910081148147583,0.2355988621711731,-0.05887759104371071,-0.608404148123892,0.2808279339151379,0.6608590739935069,0.3380018079720357,0.1052234281484653,-1.6021730798950646,-0.9056242199990056
1773063444441642496,1.3859074115753174,3.5328991413116455,-1.157124400138855,1.2083492279052734,-0.9942834973335266,-0.09519874304533005,0.04835022985935211,-0.19050049781799316,0.14186012744903564,-0.017695307731628418,-0.6098942143933815,0.27569013041880425,0.669455051769183,0.32226388648345833,0.09534312675420131,-1.6193862639228338,-0.8721221120385658
1773063444451679488,1.395944356918335,3.6924257278442383,-0.6074584722518921,2.173492431640625,-0.9952855706214905,-0.07608077675104141,0.06015333905816078,-0.20556586980819702,0.3102268874645233,-0.16519486904144287,-0.6146362071438617,0.27170601130312233,0.6754646650812279,0.30355509676521775,0.0761543670924219,-1.6311611711108744,-0.8365846006500429
1773063444461717504,1.405982494354248,3.610689878463745,-0.543134868144989,2.1693997383117676,-0.9963637590408325,-0.051204849034547806,0.06809879839420319,-0.33775794506073,0.5480157732963562,-0.295607328414917,-0.6210265597573987,0.26880692269863893,0.6795529701322067,0.28333135308711216,0.0512272505773962,-1.6390375293090034,-0.8012002715990054
1773063444471754496,1.4160194396972656,3.533857583999634,-0.4879906475543976,1.2275593280792236,-0.9967116713523865,-0.031401775777339935,0.07469751685857773,-0.43724822998046875,0.5276480913162231,-0.06438256055116653,-0.6263647594053211,0.2643840719135341,0.6837030208181416,0.26517617689102924,0.03140693821320902,-1.6456004444450487,-0.7671087681987171
1773063444481792512,1.4260573387145996,3.986633777618408,-0.625630795955658,0.532078742980957,-0.9964884519577026,-0.02013891004025936,0.08127368986606598,-0.3887655735015869,0.2576572000980377,0.018885023891925812,-0.6304392850744676,0.25605688705365975,0.6892544637447611,0.24881634418764884,0.020140271700253842,-1.6521762898951415,-0.7299590544035273
1773063444491829760,1.4360945224761963,3.902600049972534,-0.16755978763103485,0.6527379751205444,-0.9962776303291321,-0.011359135620296001,0.08545102179050446,-0.15472334623336792,0.09267321974039078,0.01966679096221924,-0.6348944194925707,0.24568979607787586,0.694522882327957,0.23277368156474054,0.01135937988096741,-1.6563572137919564,-0.690456099209859
1773063444501866496,1.4461314678192139,2.381876230239868,-0.36661696434020996,1.3683409690856934,-0.9960572719573975,0.001282793702557683,0.08870278298854828,0.06528645753860474,0.12605181336402893,0.17979085445404053,-0.6388360884725521,0.23920813215349382,0.6979476057248777,0.21802981969918298,-0.0012827940320027681,-1.65961592285812,-0.6591949018979563
1773063444511904512,1.4561693668365479,0.5835562944412231,-0.040411289781332016,2.127963066101074,-0.9956866502761841,0.02029973268508911,0.09053140878677368,0.21979254484176636,0.2296544909477234,0.6700276136398315,-0.6417524523652113,0.2410511153455408,0.6979685265720833,0.20709426307092338,-0.02030112796397519,-1.6614705995678045,-0.6465330958552422
1773063444521941760,1.4662065505981445,-0.1577039361000061,-0.10738100111484528,2.3650660514831543,-0.9949261546134949,0.04327172413468361,0.09082691371440887,0.13207215070724487,0.1733878254890442,0.5842677354812622,-0.6441547808517749,0.2485658507653836,0.695434019853345,0.19912603433219783,-0.0432852405863851,-1.661834094527194,-0.6470344345937394
1773063444531979520,1.4762444496154785,-0.11481492966413498,-0.6937215924263,2.106962203979492,-0.9933186769485474,0.06565912067890167,0.09490490704774857,-0.14163005352020264,-0.11718805879354477,0.23195362091064453,-0.6447619523724251,0.257390275135161,0.6936877543066853,0.19191040472516332,-0.0657063864171887,-1.6660504491197878,-0.6508683161348322
1773063444542016512,1.486281394958496,-0.02900574915111065,-0.8507362604141235,1.6567174196243286,-0.991091787815094,0.08440060168504715,0.10302294045686722,-0.321774423122406,-0.41098448634147644,0.12161695957183838,-0.6436542374142571,0.2648940817612013,0.6937885812021355,0.18492650253744625,-0.08450113140204092,-1.674373271529926,-0.6532708919349397
1773063444552054528,1.4963195323944092,-0.29560983180999756,-0.5743895769119263,1.315514087677002,-0.9889678955078125,0.09879307448863983,0.11037474125623703,-0.33267223834991455,-0.590797483921051,0.3376842737197876,-0.6422733435005392,0.2711084138793806,0.6940371740667808,0.1797154036682871,-0.09895448759066958,-1.6819423692179718,-0.656257906319585
1773063444562091520,1.5063564777374268,-0.8133344650268555,-0.4858546555042267,1.4126209020614624,-0.986982524394989,0.111451156437397,0.11594830453395844,-0.2443559169769287,-0.6737985610961914,0.5288270711898804,-0.6409644930901287,0.2779759065167381,0.6933278782896918,0.17660779475170618,-0.1116831852409148,-1.6877378869333237,-0.6632630409483685
1773063444572129536,1.5163943767547607,-1.488289475440979,-0.42561623454093933,1.6932114362716675,-0.9845705628395081,0.125423863530159,0.12202324718236923,-0.04936498403549194,-0.6265683174133301,0.6015943288803101,-0.6390516317931164,0.28746283670961464,0.6916478460075446,0.17493246923380198,-0.12575505206582352,-1.6941030702878062,-0.6766345621441835
1773063444582166784,1.5264315605163574,-1.877484679222107,-0.38482674956321716,2.0499939918518066,-0.9815835356712341,0.14164306223392487,0.12818355858325958,0.09106534719467163,-0.44163087010383606,0.5975550413131714,-0.636800937736181,0.29974553000252524,0.6886540470377072,0.1743352903459627,-0.14212101553539974,-1.7006500441469365,-0.6962458676200629
1773063444592203520,1.536468505859375,-2.0120139122009277,-0.5807040929794312,2.3888580799102783,-0.9775581359863281,0.16104243695735931,0.13581430912017822,0.16603469848632812,-0.08012507855892181,0.4409526586532593,-0.634117778931699,0.3140560111801622,0.6850372067512563,0.1731691086784975,-0.16174678403025664,-1.7088448437869612,-0.71881633783774
1773063444602241536,1.546506404876709,-1.9554789066314697,-0.8488311767578125,2.1720516681671143,-0.9725328683853149,0.1810198277235031,0.14632782340049744,0.19338852167129517,0.3555402159690857,0.4256478548049927,-0.6304038707615188,0.32910419175050165,0.6818022739834785,0.17154334391449802,-0.18202331243602424,-1.720136651367692,-0.7426231577513274
1773063444612278528,1.5565433502197266,-0.8922913670539856,-0.9804294109344482,1.269620656967163,-0.9678835868835449,0.19569037854671478,0.15781787037849426,0.09286844730377197,0.6592442989349365,0.3141059875488281,-0.6263364519988293,0.34055011436507243,0.6803929435571723,0.1696868832962669,-0.19696139672801824,-1.7324285219147044,-0.7605295394414207
1773063444622316544,1.5665814876556396,1.1170932054519653,-1.3541717529296875,0.5256888270378113,-0.9641582369804382,0.20419751107692719,0.16941675543785095,-0.13386404514312744,0.7423051595687866,-0.27625882625579834,-0.6230424898181555,0.34430304696060293,0.6827618812276981,0.16464989797144106,-0.20564387146457078,-1.7447353434364052,-0.7612918759717271
1773063444632353536,1.5766184329986572,3.2226755619049072,-1.120538353919983,0.3616527318954468,-0.9611851572990417,0.21208223700523376,0.17647817730903625,-0.2762722373008728,0.7375332713127136,-0.7101848125457764,-0.6230141211971385,0.3398033194130932,0.6875847542900508,0.15366999750441673,-0.21370517658389368,-1.7523786963312136,-0.739743958156452
1773063444642391552,1.5866563320159912,4.603250503540039,-0.8218926787376404,0.11224742978811264,-0.9587584733963013,0.22167392075061798,0.17788492143154144,-0.3895692825317383,0.6577358841896057,-0.6982706785202026,-0.6262352254707376,0.32912958525788455,0.6932648700517647,0.13743027029630148,-0.22353076796077634,-1.754247022465718,-0.700382456517725
1773063444652428544,1.596693515777588,4.793918132781982,-1.5378854274749756,-0.4326819181442261,-0.9571481347084045,0.22886115312576294,0.17745469510555267,-0.593343198299408,0.34431999921798706,-0.30733752250671387,-0.6301159001654623,0.3141144720127032,0.7000424582063697,0.11927554804949728,-0.2309076223085608,-1.7541142510022691,-0.6512620550532698
1773063444662466560,1.6067314147949219,3.688446283340454,-1.4351081848144531,-1.2195888757705688,-0.9561858177185059,0.2286420613527298,0.18284310400485992,-0.6503357887268066,-0.06386242806911469,0.45921623706817627,-0.6306302883230521,0.29852748667834444,0.7087333029471791,0.10432618558111457,-0.23068256996283568,-1.7597367663523649,-0.6062986170148446
1773063444672503552,1.6167683601379395,2.454615831375122,-0.6073869466781616,-1.189064621925354,-0.9572893381118774,0.2218780815601349,0.18538379669189453,-0.6609967350959778,-0.521881103515625,0.955866813659668,-0.6309335860506234,0.28475294018130354,0.7152675449799583,0.09607755326121839,-0.22374013465270215,-1.7620834706600659,-0.5729321446952154
1773063444682541568,1.6268064975738525,1.6460700035095215,0.2759854197502136,-0.385091632604599,-0.9585953950881958,0.2179436832666397,0.183290496468544,-0.5650861859321594,-0.891481876373291,0.7390880584716797,-0.6325024114560732,0.27568942748564396,0.7180811864483488,0.09107937375515206,-0.21970701034485066,-1.7597233126278455,-0.551236116674859
1773063444692578560,1.6368434429168701,0.9456610083580017,1.4822880029678345,0.17249305546283722,-0.9604230523109436,0.21974040567874908,0.17117683589458466,-0.45673686265945435,-1.100965976715088,0.13802729547023773,-0.6377511979832934,0.2706656387403005,0.7157712806739208,0.087663663902021,-0.22154836338445338,-1.7471749167199786,-0.5372713194914187
1773063444702615552,1.6468803882598877,-0.23949703574180603,0.7039921879768372,-0.015673387795686722,-0.9622043967247009,0.2213054597377777,0.15870244801044464,-0.6300654411315918,-1.135520577430725,-0.7256580591201782,-0.6425775147932338,0.26967102872314186,0.7117785902954618,0.08799339096205852,-0.22315291536388057,-1.7342609552502273,-0.5347353863089712
1773063444712653568,1.6569185256958008,-0.07423701137304306,-0.43220463395118713,-0.20379869639873505,-0.9626303315162659,0.21959778666496277,0.15849140286445618,-0.6800087690353394,-1.0865716934204102,-1.1896803379058838,-0.6424938948949014,0.26969733518034916,0.711694491380854,0.08919556849776382,-0.22140218117702037,-1.733976454778247,-0.5363151852666102
1773063444722690560,1.6669554710388184,-0.3958539068698883,-0.6769408583641052,0.08604884892702103,-0.9618344306945801,0.21856503188610077,0.16463197767734528,-0.33972489833831787,-0.695035994052887,-0.9793902635574341,-0.6400988013211635,0.27018426499330495,0.7136641014297832,0.0892045873911621,-0.22034369873988327,-1.7403181228893505,-0.537774067266458
1773063444732728576,1.6769933700561523,-1.4397891759872437,-0.4138354957103729,0.4758397340774536,-0.9602168202400208,0.21971525251865387,0.17236188054084778,-0.1077304482460022,-0.027622386813163757,-0.20286419987678528,-0.6368428797846765,0.2744444082404524,0.7147455548914244,0.09082999813175184,-0.22152258845516393,-1.748407907279774,-0.5477049222257461
1773063444742765568,1.687030553817749,-1.448626160621643,0.16776907444000244,0.3281472325325012,-0.959026038646698,0.22144794464111328,0.1767205446958542,-0.09434932470321655,0.5283384323120117,0.3250495195388794,-0.6345495589151688,0.2811118491830209,0.7136780776322719,0.09479824440031336,-0.22329902745110092,-1.7530229777262198,-0.5643110804939517
1773063444752803584,1.697068452835083,0.17912712693214417,0.03781653568148613,-0.47597625851631165,-0.9594306945800781,0.21953557431697845,0.17690904438495636,-0.2513999342918396,0.7427446842193604,0.15770089626312256,-0.6340405459090828,0.28295209889516243,0.7130165707899244,0.09766296849547004,-0.22133840855001166,-1.7531378233563288,-0.5710671085283198
1773063444762840576,1.7071053981781006,1.2747814655303955,-0.37293344736099243,-0.9033380150794983,-0.9607240557670593,0.2139376699924469,0.17674840986728668,-0.3645628094673157,0.632513165473938,-0.270696759223938,-0.6342295260560648,0.27783212561072373,0.7149709868478252,0.09684379631594604,-0.21560418668582024,-1.7527360217975547,-0.5614970029411483
1773063444772878592,1.7171435356140137,1.2980605363845825,-0.38047605752944946,-0.7603611350059509,-0.9617990851402283,0.20800673961639404,0.17797724902629852,-0.17939060926437378,0.512116551399231,-0.0012651532888412476,-0.634139498863013,0.2707124343377488,0.7181249202076199,0.09422605184794935,-0.20953668691110514,-1.753772744698254,-0.5464791873694957
1773063444782915584,1.7271804809570312,1.0317554473876953,-0.24113813042640686,-0.5492371916770935,-0.962617039680481,0.2038998007774353,0.17830616235733032,-0.07710146903991699,0.4508242905139923,0.3859027624130249,-0.6343809094311675,0.2648382375552861,0.7204261157403486,0.09169353723527424,-0.2053397726030017,-1.753951078127241,-0.5335755803369276
1773063444792953600,1.7372183799743652,0.8364778161048889,-0.0825912356376648,-0.6927247047424316,-0.9634655714035034,0.19980083405971527,0.17836426198482513,-0.21671020984649658,0.2842690050601959,0.5128283500671387,-0.634610713469675,0.259773044942061,0.7222880988636109,0.08992858075150248,-0.20115464545804912,-1.7538516641919843,-0.522989582351181
1773063444802990336,1.7472553253173828,0.6950200200080872,0.3854270875453949,-1.0322095155715942,-0.9654766917228699,0.1926768720149994,0.17530196905136108,-0.4690784811973572,0.06481517851352692,0.4763551950454712,-0.6357761773298877,0.25414758721452685,0.7232288632903174,0.09021009334047853,-0.193889412514677,-1.7504099387350762,-0.5138466386906435
1773063444813027584,1.7572925090789795,0.35266345739364624,0.41547447443008423,-1.0436848402023315,-0.9682213664054871,0.18337181210517883,0.17006558179855347,-0.6973365545272827,-0.10623863339424133,0.14321255683898926,-0.6375621043319546,0.2483099031710562,0.7234465981204453,0.09209674606421023,-0.18441533480659875,-1.7446701025186588,-0.5062893479998497
1773063444823065600,1.7673304080963135,-0.2621192932128906,0.34681230783462524,-1.0840479135513306,-0.9706865549087524,0.17331001162528992,0.16652604937553406,-0.7728282809257507,-0.08418343961238861,-0.09360435605049133,-0.6384251291085394,0.2441565767960879,0.7236370589273753,0.09565664074575754,-0.17418954888042049,-1.74069733835088,-0.5038570808711106
1773063444833102592,1.777367353439331,-0.010299839079380035,0.21416081488132477,-1.2596032619476318,-0.9731664657592773,0.16156981885433197,0.16383610665798187,-0.8192529082298279,0.07384276390075684,-0.12697088718414307,-0.6387620477389436,0.2401888163310686,0.724035488705843,0.10032462630714138,-0.16228116721735747,-1.7375859252986157,-0.503295008972447
1773063444843140608,1.7874054908752441,0.3303229808807373,0.011769890785217285,-1.5976459980010986,-0.9755595922470093,0.14755761623382568,0.16281965374946594,-0.8119007349014282,0.21546423435211182,-0.17214275896549225,-0.6384504589468483,0.23458701803565354,0.7255196476033762,0.1047433844126035,-0.14809839557686597,-1.7361707882293411,-0.4999590046414524
1773063444853177600,1.7974424362182617,0.49843183159828186,0.14236386120319366,-1.7377914190292358,-0.9780339598655701,0.13200171291828156,0.16132324934005737,-0.7769862413406372,0.23416344821453094,-0.12726569175720215,-0.6384074319396391,0.2270207038396935,0.7274085657271278,0.10850964693677853,-0.13238809607044327,-1.7342708306229886,-0.4926460918637993
1773063444863215360,1.8074803352355957,0.5376362800598145,0.11590348184108734,-1.8894480466842651,-0.9804990887641907,0.11488142609596252,0.15944944322109222,-0.6868135929107666,0.2010059952735901,-0.05796313285827637,-0.638421142149096,0.21868111114934327,0.7293170060059823,0.11266696297413877,-0.11513563382148798,-1.7320058267382195,-0.48467225762104554
1773063444873252608,1.8175175189971924,0.6362326145172119,0.24433310329914093,-1.660688042640686,-0.9826833009719849,0.09803766012191772,0.1572333574295044,-0.5816478133201599,0.15472418069839478,-0.0413733571767807,-0.6386226903294099,0.2099922543275178,0.7311086979575958,0.11638076243536861,-0.09819539083998112,-1.7294555760053412,-0.47563942115103863
1773063444883290624,1.8275554180145264,0.3368775546550751,0.7253450155258179,-1.3205193281173706,-0.9847586154937744,0.08428815007209778,0.15213795006275177,-0.3474862575531006,0.24760577082633972,-0.010139703750610352,-0.6399814892563239,0.20277815700628396,0.7314027566369213,0.11981113210763628,-0.08438827373380958,-1.7240771213595731,-0.4685419165660001
1773063444893327360,1.837592363357544,0.6464751362800598,0.7975401282310486,-1.4293699264526367,-0.9870360493659973,0.0715746134519577,0.14365456998348236,-0.19384145736694336,0.3531995415687561,0.0024940669536590576,-0.6426154242385024,0.19589886481258267,0.7303772447684734,0.12336135580193856,-0.07163586311955772,-1.7153229185253491,-0.4621252846986377
1773063444903365632,1.847630500793457,1.1846528053283691,0.3988693952560425,-1.629522681236267,-0.9888772964477539,0.05764273554086685,0.13710838556289673,-0.12423592805862427,0.25716134905815125,-0.1089102178812027,-0.6447586838050379,0.18681096190738547,0.7305175265790185,0.12542700099941193,-0.05767470403115983,-1.7085685151557637,-0.45048435368490647
1773063444913402624,1.8576674461364746,0.916121780872345,0.04539629444479942,-1.7688721418380737,-0.9900250434875488,0.042314089834690094,0.1343878209590912,0.002888202667236328,0.1212601363658905,0.0044519901275634766,-0.6454855629907266,0.17692189382288628,0.7320468259195181,0.12710045396584252,-0.04232672596984752,-1.7057135505644585,-0.4372971824310393
1773063444923439616,1.8677043914794922,0.26355186104774475,-0.07178466022014618,-1.897125482559204,-0.9906010627746582,0.024760780856013298,0.13452360033988953,-0.009536266326904297,0.0021557174623012543,0.15954375267028809,-0.644687599860359,0.16818726948995766,0.7341490617149155,0.1308288215894911,-0.024763311780766076,-1.7057706309427885,-0.4287826431882761
1773063444933477632,1.8777425289154053,-0.25515955686569214,-0.11392465233802795,-1.7669498920440674,-0.9907857179641724,0.006356125231832266,0.13528913259506226,-0.13418370485305786,-0.1323937177658081,0.08001230657100677,-0.643135846555244,0.1615458315379611,0.7358991180776496,0.13686366799191457,-0.006356167902063369,-1.7065043680338838,-0.42664083801136926
1773063444943514624,1.8877794742584229,-0.15680770576000214,-0.42636698484420776,-1.4065834283828735,-0.9903827905654907,-0.009836023673415184,0.13800373673439026,-0.24939370155334473,-0.25467509031295776,-0.17164935171604156,-0.640827324548914,0.15654146088436202,0.7379001530125809,0.14261286865432643,0.009836182692654663,-1.7092486490656649,-0.4266510640637105
1773063444953552384,1.8978173732757568,-0.3934834897518158,-0.44128987193107605,-1.05293607711792,-0.9895476698875427,-0.022223347797989845,0.14248278737068176,-0.3321227431297302,-0.2400446981191635,-0.2583886384963989,-0.6380819662043603,0.15310056804094682,0.7401362109993359,0.14700319135199721,0.02222517681293067,-1.7138012454644982,-0.4272098689568649
1773063444963589632,1.9078545570373535,-1.0161702632904053,-0.0686129704117775,-1.2617141008377075,-0.9888346791267395,-0.03424257040023804,0.14502842724323273,-0.41712528467178345,-0.0036755092442035675,0.07543061673641205,-0.6356748306531225,0.15147399220740465,0.7413297786977635,0.15298116129986702,0.03424926762264172,-1.716424047263564,-0.4326992688079525
1773063444973627648,1.9178924560546875,-0.9292024374008179,0.4152780771255493,-2.0691237449645996,-0.9883919954299927,-0.052132923156023026,0.1427004039287567,-0.5879172086715698,0.19785436987876892,0.3206174373626709,-0.6342811816714875,0.14853212434506305,0.7411399405992891,0.16228729068073589,0.052156567025878925,-1.7141818665124928,-0.44074994983311244
1773063444983664640,1.927929401397705,-0.02348102070391178,0.5261172652244568,-2.659062623977661,-0.9875249266624451,-0.07664113491773605,0.13755260407924652,-0.7318049073219299,0.16976553201675415,-0.0011695623397827148,-0.6337300021144457,0.140714753285591,0.740928917063777,0.17207552120023972,0.07671636631140573,-1.7091961081643616,-0.44214214491447695
1773063444993702656,1.9379675388336182,0.3374671936035156,0.4951786398887634,-2.4175992012023926,-0.9858947396278381,-0.10201022028923035,0.13268595933914185,-0.5777955055236816,0.05681368708610535,-0.3547624349594116,-0.6334897019168201,0.12993647103730438,0.7412553507056558,0.17985506331531403,0.1021879782885752,-1.7045767839883028,-0.43643353568199855
1773063445003740160,1.948004961013794,-3.1236326694488525,0.0755549967288971,1.593727946281433,-0.9853202104568481,-0.1115189641714096,0.12925845384597778,-0.16972434520721436,0.05254372954368591,-0.1947033405303955,-0.6333756684393967,0.12816719401629179,0.7404069108285577,0.18494892672717128,0.11175141644656292,-1.701235676084705,-0.4408826854556509
1773063445013777152,1.9580421447753906,-3.3790578842163086,1.9210771322250366,-1.0817307233810425,-0.9874176383018494,-0.11141494661569595,0.11222031712532043,0.3388579487800598,-0.019902221858501434,0.46102190017700195,-0.6369645956767979,0.13734918950362607,0.7329702306124305,0.1953613369353218,0.11164674798838131,-1.6839610764445367,-0.4701756651501215
1773063445023815168,1.9680800437927246,-0.889349639415741,0.9275065660476685,-1.937856912612915,-0.9869844317436218,-0.1277996450662613,0.09761693328619003,-0.7547910809516907,-0.3838275671005249,0.39833950996398926,-0.6377355964530688,0.14036922245336586,0.7273960053988129,0.21091437148602518,0.12815011157899137,-1.6693799413503707,-0.4973926388213265
1773063445033852160,1.9781169891357422,-0.3192359209060669,1.059022307395935,-1.898476481437683,-0.9851847887039185,-0.1467798799276352,0.08869345486164093,-0.6804645657539368,-0.4923955202102661,-0.7546021938323975,-0.638375197653548,0.1343515746122205,0.7254628737314854,0.21938634845446967,0.14731209752842114,-1.6605815058108668,-0.5009250352092981
1773063445043890176,1.9881551265716553,-0.6045843362808228,1.5409202575683594,-1.495303988456726,-0.9835808277130127,-0.16450585424900055,0.07420746237039566,-0.13218766450881958,-0.12406837940216064,0.055065035820007324,-0.6412304535332479,0.12767408125103855,0.7216668635780985,0.22741994351007994,0.16525702186316524,-1.6460998961022681,-0.5035148208811463
1773063445053927168,1.9981920719146729,-0.8081637024879456,1.3097261190414429,-1.7012091875076294,-0.9818316102027893,-0.18065287172794342,0.05806219205260277,0.1268816590309143,0.7306406497955322,0.6423772573471069,-0.6444305730394528,0.122361382990955,0.7169789312154983,0.23596209659529624,0.18165020360250847,-1.629864145021311,-0.509345659270658
1773063445063965184,2.008229970932007,-1.1123172044754028,0.6341865658760071,-2.2255730628967285,-0.9786261320114136,-0.20019873976707458,0.047022342681884766,-0.044216156005859375,1.3279606103897095,0.33109045028686523,-0.644862475320706,0.1174110147634419,0.7139508565579916,0.24625410674229822,0.20156076892974528,-1.6188087448773951,-0.5181550613668144
1773063445074002176,2.0182671546936035,-0.7663399577140808,0.4840826988220215,-2.750792980194092,-0.9735108613967896,-0.22513552010059357,0.03988359123468399,-0.14703357219696045,1.2747724056243896,0.3227567672729492,-0.6429466116615449,0.11105997073810936,0.7124657737519575,0.25822067805214177,0.22708213155269233,-1.6117422486035973,-0.5273161779642388
1773063445084040192,2.0283050537109375,-0.25753718614578247,0.8409255146980286,-3.0766453742980957,-0.9667117595672607,-0.2538304924964905,0.03222537413239479,-0.21851468086242676,0.7843175530433655,0.08612179756164551,-0.6411738854896949,0.10131885605128374,0.7112293422444055,0.2697839315365542,0.2566383981632564,-1.6041190279857254,-0.531321264199052
1773063445094077184,2.038341999053955,-0.2942681312561035,1.0561730861663818,-3.2461655139923096,-0.9584107995033264,-0.28450849652290344,0.02244540862739086,-0.17035812139511108,0.38362956047058105,0.1460115909576416,-0.6400779968659445,0.08941127858232253,0.7093858805845756,0.28120722433875883,0.28849368565447997,-1.5942114498955688,-0.5326640865834535
1773063445104115200,2.048380136489868,-0.7115268707275391,1.3682234287261963,-3.247051954269409,-0.948767364025116,-0.3158382177352905,0.009308367036283016,-0.06574374437332153,0.14280354976654053,0.4788508415222168,-0.6394399410018274,0.07774422687187812,0.7061232318451071,0.2940448022922539,0.3213399486068183,-1.5806070226568454,-0.5375724966029954
1773063445114152192,2.0584170818328857,-0.6074211597442627,1.7682055234909058,-3.0042240619659424,-0.9384139180183411,-0.3454255163669586,-0.0077593447640538216,0.0020127296447753906,0.012234687805175781,0.5610888004302979,-0.6399759694355334,0.06660590126448308,0.7012018123021018,0.30709980420571187,0.35269218412520986,-1.5625279416568572,-0.5449674682414359
1773063445124189184,2.0684540271759033,0.29996809363365173,1.9703452587127686,-3.1151487827301025,-0.9270837903022766,-0.3739113211631775,-0.02657063491642475,-0.005975902080535889,-0.07695537805557251,0.21429955959320068,-0.6418450894648043,0.053679121011341924,0.6955812207800871,0.31830839046118814,0.38322266936162597,-1.5421437254084913,-0.5481190456856079
1773063445134227200,2.0784921646118164,2.4150469303131104,2.4156510829925537,-4.24287223815918,-0.9126176238059998,-0.4067615270614624,-0.04091431200504303,-0.02993297576904297,-0.16901355981826782,-0.15900635719299316,-0.643720535613466,0.03400804834742968,0.6916547522055853,0.32570071803909434,0.4189062744453926,-1.5259945023604917,-0.5357723413490982
1773063445144264192,2.088529109954834,3.5439398288726807,1.700455665588379,-5.719038963317871,-0.8892236948013306,-0.45507943630218506,-0.04673236981034279,-2.7954578399658203e-05,-0.11952078342437744,-0.06830364465713501,-0.6433494400935995,0.0013686309009566001,0.6903853581618482,0.33085901712480276,0.4724614098657859,-1.5182905123254231,-0.5008970379735885
1773063445154302208,2.098567008972168,1.710007667541504,-0.001465887064114213,-4.626896381378174,-0.8635563850402832,-0.5025911927223206,-0.040893927216529846,0.31510984897613525,0.18151581287384033,0.4440922141075134,-0.6369836138028423,-0.026592490137417147,0.6919869048918978,0.33867204493523845,0.5265934303559736,-1.5234764299908932,-0.4740554422677242
1773063445164338944,2.1086039543151855,0.42547664046287537,0.1580425500869751,-3.3626506328582764,-0.8429529666900635,-0.5368368029594421,-0.03516018018126488,0.5632137656211853,0.1260092854499817,0.007526524364948273,-0.6298250170355034,-0.0434834168042513,0.6932020644749031,0.3477073600069131,0.566683364310434,-1.5291097658758686,-0.4641726073600831
1773063445174377216,2.1186420917510986,-0.4201046824455261,0.8948317766189575,-2.7087907791137695,-0.8262265920639038,-0.5619069933891296,-0.040129560977220535,0.20441555976867676,-0.14684855937957764,-0.24604904651641846,-0.6265892968835675,-0.054916190557477,0.6905935352984831,0.35700246495026206,0.5966893458140053,-1.522264784717741,-0.4658154088330574
1773063445184414208,2.128679037094116,-0.7633842825889587,0.930375874042511,-2.7704544067382812,-0.8102740049362183,-0.5838167667388916,-0.05112899839878082,-0.04850590229034424,-0.11102277040481567,0.2674223780632019,-0.624958986159433,-0.06389124185554718,0.6858231617120699,0.3674109847513284,0.6234218678266388,-1.5077790007154634,-0.47540302514968913
1773063445194452224,2.1387171745300293,-0.5966585874557495,1.5897570848464966,-3.1176259517669678,-0.7919645309448242,-0.6070512533187866,-0.06543056666851044,-0.18989288806915283,0.15372782945632935,0.5411385893821716,-0.6240046878176697,-0.07411996373462268,0.6795520190881211,0.37859416204817287,0.6523446320026899,-1.4883654817254568,-0.4868129432748198
1773063445204489216,2.148754119873047,0.006866942159831524,1.6994465589523315,-3.3491134643554688,-0.770561158657074,-0.6322546005249023,-0.08055827766656876,-0.28484344482421875,0.43921566009521484,0.35285139083862305,-0.6235064418820564,-0.08724249435693282,0.6723909638322171,0.38925424987834256,0.6844598218420405,-1.4666297798145267,-0.4950690601675555
1773063445214526208,2.1587910652160645,0.8755855560302734,2.091965675354004,-3.3719708919525146,-0.7471135854721069,-0.6583219170570374,-0.09183426201343536,-0.18321478366851807,0.5635648369789124,0.20873183012008667,-0.6229718957766156,-0.10377995248883937,0.6658172343624944,0.39726960629036395,0.7185872338506035,-1.4484910944237834,-0.4938001194129729
1773063445224563968,2.1688289642333984,0.7010344862937927,1.9203113317489624,-3.3988094329833984,-0.7223538756370544,-0.6840699315071106,-0.10125753283500671,-0.008481085300445557,0.5434144735336304,-0.06347636878490448,-0.622550583082211,-0.1218399844175519,0.6591860538281697,0.4038061746532556,0.7533278120856566,-1.431526610277446,-0.4882401641128318
1773063445234601216,2.178866147994995,0.14007864892482758,1.5261080265045166,-3.5600457191467285,-0.6962666511535645,-0.7092074155807495,-0.11062414944171906,0.18047380447387695,0.467401385307312,0.07224833965301514,-0.6207763516775247,-0.137962328110489,0.6524218883786019,0.4122485299860744,0.7883733600854808,-1.4132314639228802,-0.49002859411522415
1773063445244639232,2.188904047012329,0.2668014466762543,1.2551406621932983,-3.667158365249634,-0.6683509349822998,-0.7342554330825806,-0.1190616562962532,0.3583534359931946,0.3712337017059326,0.3877078890800476,-0.6176362257353188,-0.15323620758329953,0.6457459546736113,0.4219670180036666,0.8245692939875309,-1.3945032527227044,-0.4964312177113708
1773063445254676224,2.1989409923553467,0.5091267824172974,0.7837902903556824,-3.474449872970581,-0.6402592062950134,-0.7582992911338806,-0.1226787194609642,0.4339604377746582,0.33746206760406494,0.3059825301170349,-0.6129026700213526,-0.16822715251606188,0.6405936808770349,0.4309171232118477,0.8607003538888919,-1.3814829690506802,-0.500261152386695
1773063445264714240,2.2089791297912598,0.660519540309906,0.6006521582603455,-3.2759439945220947,-0.6135435700416565,-0.7801153659820557,-0.12241140753030777,0.425509512424469,0.43184858560562134,0.19783560931682587,-0.6071817440050797,-0.1821571835583871,0.636877583157804,0.43878943094721706,0.8948501483528986,-1.373866749267577,-0.5016042468234861
1773063445274751232,2.2190160751342773,0.962954580783844,0.5130926370620728,-3.305032730102539,-0.5867305397987366,-0.8009533882141113,-0.11925236880779266,0.2887416481971741,0.5238232612609863,0.014439761638641357,-0.6010052170328708,-0.19657981519862985,0.6338218918005145,0.4454424949692458,0.9288859033502642,-1.370278722262119,-0.498456093620369
1773063445284788992,2.2290539741516113,0.5366575717926025,0.41134366393089294,-3.4037444591522217,-0.559031069278717,-0.8210474252700806,-0.11560890078544617,0.19372045993804932,0.5032221078872681,0.07386082410812378,-0.5940130931932894,-0.21031555238318742,0.6308430202523292,0.45271723653735324,0.9632433830186355,-1.366868745195342,-0.4976119485236402
1773063445294826240,2.239091157913208,0.7603040933609009,0.43756553530693054,-3.594219207763672,-0.5292154550552368,-0.8409519791603088,-0.11282994598150253,0.17945349216461182,0.4120733141899109,0.40418124198913574,-0.5867427767833853,-0.22435463643727802,0.6270965021704538,0.46059502413760417,0.9990401384531382,-1.3607390697066295,-0.49935953195798877
1773063445304864256,2.249129056930542,0.624382734298706,0.32255932688713074,-3.390263080596924,-0.4988018572330475,-0.8598824739456177,-0.10862285643815994,0.13004270195960999,0.2784463167190552,0.10105448961257935,-0.5788510919581547,-0.23830287554572366,0.6236187233374252,0.4682337782746398,1.0350393823457238,-1.3563764065380381,-0.5002501222324357
1773063445314900992,2.2591660022735596,0.4665280282497406,0.22101378440856934,-3.065624237060547,-0.4704321026802063,-0.8761345744132996,-0.10527146607637405,0.22030997276306152,0.2955527901649475,0.14204512536525726,-0.571433248478382,-0.25058285249712575,0.6201390986900615,0.47549962512654226,1.0677843499470268,-1.3506471044500192,-0.5036083718007952
1773063445324938240,2.2692031860351562,0.3063484728336334,0.08008649200201035,-2.9053056240081787,-0.4439682066440582,-0.890158474445343,-0.10251974314451218,0.23698273301124573,0.38854098320007324,0.11744284629821777,-0.5642642277915936,-0.2612583346334127,0.6168340209685937,0.4825617270214402,1.0976927863619181,-1.343857310033262,-0.5095977777237728
1773063445334976256,2.2792410850524902,0.4636548161506653,0.020161909982562065,-2.9795985221862793,-0.41751572489738464,-0.9032029509544373,-0.09952433407306671,0.22566697001457214,0.5071915984153748,0.3062198758125305,-0.5567733233711902,-0.2714256311833909,0.6136497043938237,0.4896586966573721,1.1271742130250073,-1.3367906254989061,-0.5169675063209695
1773063445345013248,2.289278030395508,0.8997578620910645,-0.016120996326208115,-3.102097272872925,-0.3897531032562256,-0.9161751866340637,-0.09335818141698837,0.19341817498207092,0.5839912295341492,0.44247931241989136,-0.5483004391890156,-0.28262462021099,0.6111008367058272,0.4960300769006154,1.1584304510491372,-1.3356942788635418,-0.5182298056181521
1773063445355051264,2.299316167831421,1.2737703323364258,-0.046506334096193314,-3.076029062271118,-0.3610834777355194,-0.9288327097892761,-0.08299756050109863,0.1453394591808319,0.5770871043205261,0.26151013374328613,-0.5388601590169193,-0.29507189200797623,0.6094536875234423,0.5011272760663621,1.1912497010838277,-1.3448637628425326,-0.5085789933363827
1773063445365088256,2.3093531131744385,1.3066058158874512,-0.1826934665441513,-2.878939628601074,-0.333256334066391,-0.9402188658714294,-0.07020468264818192,0.1361280381679535,0.49873632192611694,0.007735192775726318,-0.5289768435148645,-0.30739308780850505,0.6086108355940393,0.5052581808142839,1.2232723571614357,-1.3631695025562462,-0.490308785335206
1773063445375126016,2.3193910121917725,0.9470111131668091,-0.27159804105758667,-2.6209676265716553,-0.30764907598495483,-0.9497077465057373,-0.05837279558181763,0.18289324641227722,0.3851478099822998,0.03792601823806763,-0.5195159260926794,-0.3181599329122974,0.607937381334379,0.5092049461244144,1.2523012688240245,-1.3832870324593625,-0.4715110299945772
1773063445385163008,2.32942795753479,0.6896647810935974,-0.35352593660354614,-2.469583511352539,-0.28357911109924316,-0.9576621651649475,-0.04966218024492264,0.22400879859924316,0.27663177251815796,0.26607757806777954,-0.5107448648268617,-0.3271751543769474,0.6067333253654105,0.5137810116430688,1.2787689837303733,-1.3974280389853744,-0.4599828285970479
1773063445395201280,2.339466094970703,0.6285555958747864,-0.3696634769439697,-2.3317711353302,-0.26059311628341675,-0.9645202159881592,-0.042331911623477936,0.21445056796073914,0.20353388786315918,0.4006388187408447,-0.5023170452482001,-0.3351879399318948,0.6053784680768092,0.5185012515832307,1.303620008691879,-1.4097585228229412,-0.45100176722433266
1773063445405238272,2.3495030403137207,0.6684441566467285,-0.40016838908195496,-2.189248561859131,-0.2388644963502884,-0.9704148173332214,-0.03519687429070473,0.2043948769569397,0.21426552534103394,0.36896759271621704,-0.4941897127876217,-0.3426189641310593,0.6041637267893107,0.5228526999798361,1.326942944373694,-1.4244982907625028,-0.43972781363929664
1773063445415276288,2.359541177749634,0.8910237550735474,-0.5016021132469177,-2.104520797729492,-0.21806493401527405,-0.9755772352218628,-0.026393894106149673,0.16769568622112274,0.27100270986557007,0.20771408081054688,-0.4858180630807593,-0.3499114572114435,0.6036265605983493,0.526476682585891,1.3493337636478258,-1.4503453811991438,-0.417731759640671
1773063445425313280,2.3695781230926514,0.9894837737083435,-0.599087119102478,-2.024935483932495,-0.19791744649410248,-0.9800897836685181,-0.015894226729869843,0.10665467381477356,0.32228344678878784,0.044458627700805664,-0.4769727209839226,-0.3569909221714633,0.6038297507798142,0.5295697469013495,1.3709132470611083,-1.4906609486622089,-0.382220081764265
1773063445435350272,2.379615068435669,0.9477916359901428,-0.6630447506904602,-1.927804946899414,-0.1785089671611786,-0.9839246273040771,-0.005200685001909733,0.059719279408454895,0.3410564661026001,0.029767334461212158,-0.46803191571460595,-0.36356288829386646,0.6043357375327989,0.5324909049164849,1.3912490213416433,-1.5416705371660462,-0.3368046268308227
1773063445445388032,2.389652967453003,0.9246804714202881,-0.6448492407798767,-1.7633963823318481,-0.16019080579280853,-0.9870714545249939,0.005392537917941809,0.02571512758731842,0.28414469957351685,0.01934194564819336,-0.45932594374810914,-0.3696640422465972,0.6050163343160955,0.5350920652531621,1.4098211453891916,-1.604446836452461,-0.2797603811239324
1773063445455425280,2.3996901512145996,0.42142578959465027,-0.6548197269439697,-1.5572137832641602,-0.14373916387557983,-0.989525556564331,0.01335930172353983,0.02833692729473114,0.2141653299331665,0.006690742447972298,-0.45157751528891227,-0.37452523404504234,0.6053185111381227,0.537957465734232,1.4259325065016033,-1.6634713708437392,-0.22668862909139925
1773063445465463040,2.4097280502319336,0.17211902141571045,-0.5279437899589539,-1.5272722244262695,-0.12838995456695557,-0.9915875792503357,0.01643470488488674,0.050738006830215454,0.19983959197998047,0.2016897201538086,-0.4451893083005312,-0.37809137532733533,0.6043709659851678,0.5418386387273839,1.440994457096901,-1.6981101328940302,-0.19772523556337415
1773063445475500032,2.419764995574951,0.40841954946517944,-0.5263462066650391,-1.4396579265594482,-0.11341214179992676,-0.9933476448059082,0.01995343156158924,0.03583645075559616,0.1774144172668457,0.10435998439788818,-0.4390001824895243,-0.3818607930048793,0.6034559225265748,0.5452541678262733,1.455386106786522,-1.7449513410132411,-0.155734383932449
1773063445485538304,2.4298031330108643,0.45003223419189453,-0.4968937635421753,-1.3017491102218628,-0.09968729317188263,-0.9947065711021423,0.024922603741288185,0.07299967110157013,0.23971706628799438,0.02562975510954857,-0.4328388467500697,-0.38553813281102073,0.6031763011602272,0.5478951888690425,1.4678582070418593,-1.815782363754998,-0.0897087003756366
1773063445495575296,2.439840078353882,0.8059695959091187,-0.4301912784576416,-1.28184974193573,-0.08670171350240707,-0.9957437515258789,0.03126298263669014,0.09683355689048767,0.3319406509399414,0.13920819759368896,-0.42674907782218224,-0.3894412178267462,0.6032968000692455,0.5497761556361067,1.47850038257503,-1.916866063001523,0.0072082243322931375
1773063445505613056,2.449877977371216,0.6350551247596741,-0.5983310341835022,-1.169918417930603,-0.07422298938035965,-0.9964532256126404,0.03964884206652641,0.06651730090379715,0.2592858076095581,-0.14501070976257324,-0.420260917127962,-0.3934773528164719,0.6041522936939224,0.5509595403082139,1.486548451864533,-2.0614168346262884,0.14725897337857174
1773063445515650304,2.4599151611328125,0.23483073711395264,-0.591990053653717,-1.0343843698501587,-0.0629543662071228,-0.99703449010849,0.044260479509830475,0.0639614537358284,0.12600177526474,-0.15448999404907227,-0.4145423239939747,-0.3960147588439512,0.6044026398237453,0.5531947700683221,1.4937644999060888,-2.1835707574274306,0.26370678174178513
1773063445525687296,2.46995210647583,-0.11611850559711456,-0.6221468448638916,-0.9049211144447327,-0.052943795919418335,-0.9975715279579163,0.04525788128376007,0.04531441256403923,-0.009462893009185791,-0.0590212307870388,-0.40985807026386967,-0.39739937216195925,0.6039061846848355,0.5562261562773946,1.5010901972549535,-2.278087085286853,0.352340352473012
1773063445535725056,2.479990005493164,-0.34905970096588135,-0.592737078666687,-0.7699390649795532,-0.044325873255729675,-0.9980931282043457,0.04295821860432625,0.028410974889993668,-0.0743403434753418,-0.09242725372314453,-0.4062152936726261,-0.39770648770401756,0.6027509088957967,0.5599197106125634,1.5090312562845851,-2.3405267670107084,0.40885515076504314
1773063445545762048,2.4900269508361816,-0.1391512006521225,-0.6080340147018433,-0.6748714447021484,-0.03687784820795059,-0.998502790927887,0.04040220379829407,0.045285455882549286,-0.009401381015777588,-0.10128474235534668,-0.40293734119828034,-0.3976211187784791,0.6017462487754923,0.563418539438535,1.516067983930507,-2.4017679150337,0.46417576774622715
1773063445555800320,2.5000650882720947,0.4732949435710907,-0.6464605927467346,-0.612641453742981,-0.030147509649395943,-0.9986541271209717,0.042205069214105606,0.06249617040157318,0.1041838526725769,-0.2603142261505127,-0.39889035087171554,-0.39810730037306713,0.6021736562091742,0.5654945427803956,1.5189089921893162,-2.5213269754607484,0.5775775233920123
1773063445565837056,2.5101020336151123,0.9978362321853638,-0.6774648427963257,-0.5086628198623657,-0.024184800684452057,-0.9984560012817383,0.05000870302319527,0.08784448355436325,0.19799518585205078,-0.3892267942428589,-0.39376773907672175,-0.39945622154302723,0.6045155728480711,0.5656347750837295,1.5152195171775147,-2.6911413082725897,0.7410029822422415
1773063445575875328,2.5201401710510254,0.7553098797798157,-0.7997403740882874,-0.4114028811454773,-0.019216272979974747,-0.9980401992797852,0.059553127735853195,0.12787412106990814,0.21560001373291016,-0.3222332000732422,-0.3883672114025822,-0.40060314845804057,0.6076953858615821,0.5651498905399648,1.5081796586369862,-2.8294655616085036,0.8722059928882683
1773063445585912320,2.530177116394043,0.4820924997329712,-0.867607593536377,-0.2874777317047119,-0.01512723695486784,-0.9977138042449951,0.06586863845586777,0.1459255963563919,0.054400086402893066,-0.00701545923948288,-0.38355835626500673,-0.4005055207877847,0.6103520683219013,0.5656401870230473,1.5031638339214846,-2.9158494403904696,0.950344617711254
1773063445595950080,2.540215015411377,-0.5910837054252625,-0.8722938895225525,-0.10010771453380585,-0.012599623762071133,-0.9977409243583679,0.06598677486181259,0.1483112871646881,-0.2092597484588623,-0.0917435958981514,-0.38029270065277554,-0.39858073246011205,0.61165904416546,0.5677887551125218,1.5035667166526527,-2.9529220171653354,0.9785924671697243
1773063445605987072,2.5502519607543945,-1.4650622606277466,-0.9380446672439575,-0.048877015709877014,-0.011471496894955635,-0.9984134435653687,0.05512675270438194,0.1580626666545868,-0.2825923562049866,-0.09200727939605713,-0.37958511877050616,-0.3941369952563077,0.6100978656114324,0.5730198511290632,1.514458646089493,-2.936427517818413,0.9531551517625695
1773063445616025088,2.5602900981903076,-1.245652437210083,-0.9819661974906921,-0.0834985077381134,-0.010334792546927929,-0.9991061687469482,0.040988482534885406,0.162770077586174,-0.19297146797180176,-0.04719877243041992,-0.37921678609224746,-0.38882733647143486,0.607706791203145,0.579396557473554,1.5285120063712696,-2.894601900760495,0.9015218180271524
1773063445626062080,2.570327043533325,-0.4932636320590973,-1.0048686265945435,-0.06711047887802124,-0.009157620370388031,-0.9994325041770935,0.03241601213812828,0.16156239807605743,-0.009402275085449219,-0.2157808542251587,-0.3776264579061138,-0.38452791981072626,0.6069153856445649,0.5841149252726838,1.5371050587831658,-2.8662644458425053,0.8631729747159326
1773063445636099072,2.5803639888763428,0.17180825769901276,-0.9304506778717041,-0.037872832268476486,-0.008409391157329082,-0.999488890171051,0.03084402345120907,0.15718258917331696,0.23223119974136353,-0.24802231788635254,-0.37484747195699236,-0.3814898145420578,0.6081837985264688,0.5865725779742071,1.5388219224981514,-2.8754195319662017,0.8625577363535061
1773063445646137344,2.590402126312256,0.3540867269039154,-0.8259143829345703,-0.06142023578286171,-0.007590362336486578,-0.999390184879303,0.03408326208591461,0.14301210641860962,0.313843309879303,-0.04476439952850342,-0.3714090107649641,-0.3796642854590365,0.6106526516661344,0.5873787043660931,1.535871782157368,-2.9224678980593737,0.900837435592698
1773063445656174080,2.6004390716552734,0.553146481513977,-0.6866627335548401,0.08024874329566956,-0.007224519737064838,-0.999204158782959,0.03923043981194496,0.16573281586170197,0.13839471340179443,0.21624743938446045,-0.36811549775676095,-0.37842559090207084,0.6135220387122168,0.5872613168735701,1.5308980738987186,-2.959477110503081,0.930348349106
1773063445666212096,2.6104769706726074,-0.8856433033943176,-0.8954116702079773,0.23992308974266052,-0.00868453923612833,-0.9992208480834961,0.03849979490041733,0.24205245077610016,-0.13688749074935913,-0.2389545440673828,-0.3663579458929547,-0.37541354289705064,0.6150728163342648,0.5886696106549761,1.5313176818371963,-2.919732281166038,0.8826619251450496
1773063445676249344,2.620514154434204,-1.740713119506836,-0.9399155974388123,0.13119515776634216,-0.01038650143891573,-0.9996528029441833,0.024221369996666908,0.20922380685806274,-0.2861139178276062,-0.22168540954589844,-0.3667736620827032,-0.3694198625186124,0.6128944856627181,0.5944463918634908,1.5444434422997204,-2.7364946165458752,0.6900396659509154
1773063445686287104,2.630552053451538,-1.4491760730743408,-0.9904727935791016,0.1038583368062973,-0.011224674060940742,-0.99990314245224,0.008240144699811935,0.09382051974534988,-0.37412041425704956,-0.10787999629974365,-0.36707837918690406,-0.3632909209006075,0.6100326049322414,0.6009438455265258,1.556879594506153,-2.2040499986615933,0.147879138859128
1773063445696324096,2.6405889987945557,-1.1670167446136475,-0.9520843029022217,0.18506518006324768,-0.012743618339300156,-0.9999068379402161,-0.00487455353140831,0.039675384759902954,-0.23797762393951416,-0.2745291590690613,-0.3668949699751415,-0.3573899013886772,0.6081407581362592,0.6064860122770347,1.5571463775457168,-1.205458406877442,-0.8607324961169848
1773063445706362368,2.6506271362304688,-0.6124908328056335,-0.7933452129364014,0.07452268153429031,-0.014206494204699993,-0.999805212020874,-0.013691144064068794,0.05336054414510727,0.17091739177703857,-0.21328336000442505,-0.36627385230283593,-0.3527009001381832,0.6072532443997432,0.6104825307624728,1.5510592244457735,-0.8038689396507488,-1.2710235557761658
1773063445716399104,2.6606640815734863,0.12155583500862122,-0.8161333799362183,-0.03769786283373833,-0.014470269903540611,-0.9997615814208984,-0.01634744182229042,0.11604802310466766,0.4180813431739807,-0.217157781124115,-0.36434286188893156,-0.34967352891542247,0.6079101105872206,0.6127217437039694,1.5489598883844609,-0.7245612452018134,-1.3584574276363914
1773063445726437120,2.6707019805908203,0.9706045985221863,-0.6883019208908081,0.036809127777814865,-0.014406048692762852,-0.9998448491096497,-0.010134720243513584,0.19127069413661957,0.30268609523773193,0.01950359344482422,-0.36089089809379216,-0.34848332013347333,0.6111399310073364,0.6122296300623249,1.5531815880734487,-0.9577221968081596,-1.1329232285639874
1773063445736474368,2.680739164352417,0.35976314544677734,-0.5870627760887146,0.20236758887767792,-0.015739768743515015,-0.9998708367347717,-0.0032585570588707924,0.25325807929039,0.05530601739883423,0.1079949140548706,-0.3581916451945095,-0.3473962664774587,0.6145620843204941,0.6110057582863835,1.5547228925302448,-1.366653268386417,-0.7301853799131014
1773063445746511104,2.6907761096954346,-0.28971153497695923,-0.8017817735671997,0.23910564184188843,-0.01804976351559162,-0.9998355507850647,-0.0017236840212717652,0.2686295807361603,-0.17612874507904053,0.20567268133163452,-0.3565554875204342,-0.3448680036239314,0.6166070207904687,0.6113345767401646,1.5526600623867184,-1.4755888350105735,-0.6280223092958459
1773063445756549120,2.7008140087127686,-1.3345452547073364,-0.9115896224975586,0.11796576529741287,-0.019866446033120155,-0.9997490644454956,-0.010336310602724552,0.1987604796886444,-0.36653798818588257,-0.2024780511856079,-0.35586364463954157,-0.34003693538283075,0.6157976348718219,0.6152471853559371,1.548394496015628,-1.0910488892407255,-1.0215175373845597
1773063445766586112,2.710850954055786,-1.2913028001785278,-0.883690595626831,0.14496329426765442,-0.021207354962825775,-0.99948650598526,-0.02402493916451931,0.07021860778331757,-0.32519012689590454,-0.08727264404296875,-0.3558321381717565,-0.334448653751958,0.6132957107321515,0.620802759144054,1.5387480501018096,-0.7231871114374862,-1.3984393683670258
1773063445776624128,2.720889091491699,-0.7380544543266296,-0.8662282228469849,0.22004179656505585,-0.02338331937789917,-0.9991494417190552,-0.033962756395339966,0.02495497278869152,-0.14284873008728027,-0.2521243095397949,-0.3553767237632502,-0.32927563134222604,0.612042629634294,0.6250509460128865,1.5295487539286172,-0.6029653080798546,-1.5276693486219355
1773063445786661120,2.730926036834717,-0.09972994029521942,-0.6651933789253235,0.04157751798629761,-0.025064939633011818,-0.9989612698554993,-0.03805200755596161,0.04859398677945137,0.2532185912132263,-0.0867343544960022,-0.3541622678508686,-0.3256767650690903,0.6122978374732074,0.6273715020315165,1.5252132488562427,-0.5824684355272743,-1.5558878124530138
1773063445796699392,2.74096417427063,0.7887755632400513,-0.637138307094574,-0.0818868950009346,-0.024953877553343773,-0.9990946054458618,-0.03445408120751381,0.10999108850955963,0.5624339580535889,0.0447232760488987,-0.35153498683412715,-0.3243839699349728,0.6144493469981892,0.6274154191893978,1.5282400530702374,-0.6268261205733573,-1.517885242402857
1773063445806736128,2.7510011196136475,1.5135692358016968,-0.827649712562561,0.0210243072360754,-0.02477964758872986,-0.9994320273399353,-0.02283397875726223,0.22766050696372986,0.5328794121742249,0.07045668363571167,-0.3473068155814519,-0.32421584355983196,0.619247202524245,0.6251358606778886,1.5370904354255548,-0.8262391476565589,-1.3256337035066128
1773063445816774144,2.7610390186309814,1.3322815895080566,-0.8079341650009155,0.09874773025512695,-0.025635365396738052,-0.9996451139450073,-0.0072454907931387424,0.26606810092926025,0.21413791179656982,0.1444677710533142,-0.34241329930137665,-0.3240094341570017,0.625615809558621,0.6215914389231255,1.5441550157423432,-1.2953444512365875,-0.8647817175008359
1773063445826811136,2.771075963973999,0.4853056073188782,-0.8614993691444397,0.07655507326126099,-0.026465553790330887,-0.9996460676193237,0.0026823312509804964,0.2011481672525406,-0.108004629611969,0.18101823329925537,-0.33856902383680565,-0.32291466491236964,0.6301327517000797,0.6197013512391581,1.5441888187567576,-1.6718032053747782,-0.4962277223629705
1773063445836849152,2.781114101409912,-0.6669892072677612,-1.0275548696517944,0.10895908623933792,-0.027339695021510124,-0.9996250867843628,0.0014398974599316716,0.15085957944393158,-0.36229801177978516,-0.1904658079147339,-0.3360184608379172,-0.3193583483429707,0.6314508643444902,0.6215879477984529,1.5434128175544546,-1.6234146310568849,-0.5543714968484085
1773063445846886144,2.7911510467529297,-1.0899142026901245,-1.112516164779663,0.20227570831775665,-0.028895532712340355,-0.9995556473731995,-0.007310513406991959,0.08382716774940491,-0.45201289653778076,-0.18330228328704834,-0.33459672713382077,-0.31406754592546654,0.6306396116487054,0.6258595849585523,1.5409837196415965,-1.3229979556015479,-0.8654692584336262
1773063445856923136,2.8011879920959473,-0.8633623123168945,-1.083248257637024,0.2545168399810791,-0.031431373208761215,-0.9993534088134766,-0.017458859831094742,-0.01150687038898468,-0.30585289001464844,-0.017346441745758057,-0.3334045753239169,-0.3079932961146872,0.6296115468481881,0.6305321794822277,1.5348341306076447,-1.0637711065480988,-1.1361980214302387
1773063445866961152,2.8112261295318604,0.2534351050853729,-0.8393424153327942,0.19543300569057465,-0.033818233758211136,-0.9992232918739319,-0.020224973559379578,-0.019007697701454163,0.09448397159576416,0.22061866521835327,-0.33160481418336923,-0.3038101681134199,0.6305449194416664,0.6325746634427093,1.5313808102789803,-1.0318123413307845,-1.1776063709119962
1773063445876998144,2.821263074874878,1.2472586631774902,-0.8835498690605164,0.19331710040569305,-0.03596404939889908,-0.999276876449585,-0.012334746308624744,0.04234221950173378,0.5165804028511047,-0.05193525552749634,-0.3283309936931472,-0.3016734029531231,0.6346855794774247,0.631162446840043,1.532764124322979,-1.2403940864016232,-0.9775925255472788
1773063445887036160,2.831300973892212,2.060148000717163,-0.6751500368118286,0.06244431808590889,-0.03729265183210373,-0.9992934465408325,0.004673466086387634,0.07490555942058563,0.7097732424736023,-0.05878114700317383,-0.3237161783317659,-0.30152178993553674,0.6414213461534648,0.6267943057116023,1.5332030957307914,-1.695465094646108,-0.5300539191254712
1773063445897073152,2.8413381576538086,2.213951349258423,-0.5948506593704224,0.08396878838539124,-0.03782457485795021,-0.9989089965820312,0.027386799454689026,0.004712995141744614,0.501411497592926,-0.12176239490509033,-0.31846207865615517,-0.30294522356279596,0.6495518391081001,0.6203938093202589,1.5240804285605782,-2.1974800964225065,-0.03398094736408298
1773063445907111168,2.8513760566711426,1.3864798545837402,-0.6071627140045166,0.012460778467357159,-0.03817778080701828,-0.9982205033302307,0.04580679535865784,-0.06732147932052612,0.03526884317398071,-0.15400683879852295,-0.3139542803891648,-0.3038240242068776,0.6561968914725398,0.6152473728129493,1.5111306720424784,-2.446784162098356,0.20977865835250722
1773063445917148160,2.86141300201416,-0.5996384620666504,-0.7058212757110596,0.008417701348662376,-0.03783562406897545,-0.9980065822601318,0.05050818622112274,-0.20899055898189545,-0.5313969850540161,-0.25326693058013916,-0.3110709206458179,-0.3024665366718799,0.6586107254305013,0.614801344767631,1.5076448387519914,-2.498668559570673,0.2550497914963769
1773063445927186176,2.8714511394500732,-1.6063655614852905,-0.34771928191185,0.11089027673006058,-0.03811430186033249,-0.9985226392745972,0.03872855007648468,-0.24246430397033691,-0.7597323656082153,0.04884159564971924,-0.31121296748199506,-0.29870991411438,0.6558480488281672,0.6195015924618096,1.51643190792544,-2.364187930775952,0.11477187384495031
1773063445937223168,2.881488084793091,-1.9425373077392578,-0.38472869992256165,0.14619207382202148,-0.03937848284840584,-0.9990063905715942,0.020871611312031746,-0.21985307335853577,-0.6053942441940308,-0.08201360702514648,-0.313291257512243,-0.2944900834478806,0.6509311760962949,0.6256299117784657,1.5262138434939352,-2.058175013844486,-0.19471327450248813
1773063445947260160,2.8915250301361084,-1.6683186292648315,-0.48845458030700684,0.0954173132777214,-0.04063715413212776,-0.9991715550422668,0.0022092058788985014,-0.20257267355918884,-0.22971028089523315,-0.07067537307739258,-0.31486997024703617,-0.2895555522356949,0.6459583462576098,0.6322597027873335,1.5300887319169956,-1.6251070496273108,-0.6330758254452091
1773063445957298176,2.9015631675720215,-0.7038130164146423,0.1625472903251648,-0.11616431176662445,-0.040536511689424515,-0.9991289973258972,-0.009887728840112686,-0.12018433213233948,0.19804275035858154,0.2589874267578125,-0.3160214696807789,-0.28710780777422346,0.6423591223701878,0.636454367359435,1.5290560335811452,-1.3315466767016757,-0.9286468807463724
1773063445967335168,2.911600112915039,0.41845154762268066,0.2557360827922821,-0.17969107627868652,-0.038823775947093964,-0.9991823434829712,-0.011286402121186256,-0.06638558208942413,0.4550691843032837,0.07918798923492432,-0.31655786048738105,-0.28832433648883754,0.6412689575698639,0.6367372389380628,1.5303540131299402,-1.2878854715413446,-0.9695835816585241
1773063445977373184,2.921638011932373,1.0738178491592407,0.2797205150127411,-0.14101560413837433,-0.037315525114536285,-0.9992969036102295,-0.003642736002802849,-0.05620560050010681,0.4559009075164795,-0.260944664478302,-0.31565022612935023,-0.2907045079232319,0.6431714554233225,0.6341816081089372,1.5332948788098102,-1.4734848109612562,-0.7817072842453759
1773063445987410176,2.9316749572753906,0.8469240069389343,0.7209975123405457,-0.3753513991832733,-0.03483310714364052,-0.9993700385093689,0.006809751968830824,-0.11641198396682739,0.19503337144851685,-0.21146059036254883,-0.3149823053871361,-0.2948334062678265,0.6453511745769233,0.6303819134285893,1.5352987886837088,-1.7638579070030542,-0.4859322756780866
1773063445997448192,2.9417130947113037,-0.26529768109321594,0.5305730700492859,-0.536615788936615,-0.03013690374791622,-0.9994980096817017,0.009774535894393921,-0.25559917092323303,-0.31841886043548584,-0.2618955373764038,-0.3151329014030409,-0.2989366370600795,0.6446116310006176,0.6291295822346904,1.5391100450291542,-1.884429126312346,-0.3587160852156787
1773063446007485440,2.9517502784729004,-1.9091287851333618,0.3933952748775482,-0.38741379976272583,-0.025432679802179337,-0.9996758103370667,-0.001109523233026266,-0.23918524384498596,-0.8395727276802063,-0.1365857720375061,-0.31669753805535034,-0.30017167436953907,0.6397985653839133,0.6326589295921763,1.5453323945178794,-1.5271980836944918,-0.7115829115905857
1773063446017523456,2.9617884159088135,-2.7703044414520264,0.32981032133102417,-0.24416889250278473,-0.022275391966104507,-0.9994337558746338,-0.02522270567715168,-0.1427026093006134,-0.9767321348190308,0.15556329488754272,-0.3204878365015218,-0.29851548021410657,0.6310920341611473,0.6402335457726763,1.5371418727794839,-0.7234264523335593,-1.5119517456896423
1773063446027560448,2.971825361251831,-3.0846898555755615,0.07978315651416779,-0.2608320116996765,-0.01981525681912899,-0.998284101486206,-0.05510229244828224,-0.05547159165143967,-0.611914873123169,0.17685216665267944,-0.32483355786568086,-0.29514041966841664,0.6207583966051874,0.6496417199038671,1.5122068923575813,-0.3452090351990896,-1.888357897686482
1773063446037598464,2.981863260269165,-2.532625198364258,-0.02208767458796501,-0.44978398084640503,-0.01625608466565609,-0.9963548183441162,-0.08374232798814774,0.07092832028865814,0.02498030662536621,0.35449427366256714,-0.3278971177371888,-0.29157134758385617,0.6108313890916538,0.65905587631881,1.4853870197121457,-0.19173564258065623,-2.0421547373055344
1773063446047635200,2.9919002056121826,-0.9130397439002991,-0.11536835134029388,-0.4135705828666687,-0.011788377538323402,-0.9947617650032043,-0.10153857618570328,0.17151738703250885,0.5118668675422668,0.39653676748275757,-0.328836424552199,-0.2898409460576754,0.6043367757932994,0.6653088827393803,1.4683970241688382,-0.11558009050953019,-2.119167220851339
1773063446057672448,3.0019373893737793,0.7211171388626099,-0.15385368466377258,-0.2492857575416565,-0.00872329156845808,-0.9947558045387268,-0.10190538316965103,0.14023876190185547,0.6509448289871216,0.00870472937822342,-0.3273353411250798,-0.29023129698404854,0.6039976022835432,0.6661863054678884,1.4683384672152695,-0.08539369890723006,-2.151100634643162
1773063446067710464,3.0119752883911133,0.9247285723686218,0.11444273591041565,-0.28801557421684265,-0.00626465305685997,-0.9956768155097961,-0.09267354756593704,-0.05037597566843033,0.5870922803878784,-0.22621989250183105,-0.3250359544856417,-0.29237645958672226,0.606777745838794,0.6638436539382108,1.4777771515525298,-0.06749646445120928,-2.1694656617724077
1773063446077747456,3.022012233734131,0.44672372937202454,0.4396170973777771,-0.5080006718635559,-0.0019390383968129754,-0.9963129758834839,-0.0857711136341095,-0.23315313458442688,0.4321497678756714,0.03315877914428711,-0.32357404295827846,-0.2957321800207182,0.607994179010763,0.6619557444940893,1.4848978422256947,-0.022603276590727056,-2.2115324637596014
1773063446087785472,3.032050371170044,-0.12598267197608948,0.38616427779197693,-0.5640010833740234,0.0038737296126782894,-0.9964265823364258,-0.08437632024288177,-0.24908243119716644,0.06303107738494873,0.03742503374814987,-0.32285507297087285,-0.29903349183461364,0.6069520664733429,0.6617801146901331,1.4862320993863212,0.045877936766508844,-2.275973958668875
1773063446097822464,3.0420873165130615,-0.7633859515190125,0.17784634232521057,-0.43728747963905334,0.009258925914764404,-0.9960358142852783,-0.08847147226333618,-0.12122788280248642,-0.37681281566619873,0.060669951140880585,-0.3226730659900092,-0.30091403127331784,0.6043302149765251,0.6634138836493519,1.4817255020668694,0.10427477549978761,-2.3315958206767244
1773063446107860224,3.0521252155303955,-1.5536081790924072,-0.10213284194469452,-0.2628576159477234,0.012718591839075089,-0.9948754906654358,-0.10030493885278702,0.0028453702107071877,-0.5950292944908142,0.12146884202957153,-0.32341536565861334,-0.30014192297849923,0.5998019303036036,0.6674990770919699,1.4695155942870375,0.12612617620089864,-2.353207372285122
1773063446117897472,3.062162399291992,-1.679579734802246,-0.3353687524795532,-0.24406714737415314,0.014922858215868473,-0.9930338263511658,-0.11688046902418137,0.0804445743560791,-0.44611406326293945,0.28162962198257446,-0.3244092762675864,-0.2974315461428332,0.5942173354087766,0.673200430862724,1.4526924295875963,0.1269891877283973,-2.3563248465771784
1773063446127935488,3.072200298309326,-1.3678828477859497,-0.5012485384941101,-0.2963833510875702,0.017100945115089417,-0.9910606145858765,-0.13231118023395538,0.0951579362154007,-0.14213323593139648,0.3020041584968567,-0.32453072610257383,-0.29429951627846207,0.5892641221581498,0.6788485021634049,1.4369849236283962,0.12853535349177897,-2.362135435431869
1773063446137972480,3.0822372436523438,-0.7008302807807922,-0.6307867169380188,-0.2976168096065521,0.019304871559143066,-0.9895368218421936,-0.14298227429389954,0.06353506445884705,0.09656208753585815,0.17490364611148834,-0.323431058635635,-0.29155117387546536,0.5860945120880386,0.683288636680172,1.4260106407134427,0.13420428230063358,-2.373497917304859
1773063446148009472,3.0922744274139404,0.194180428981781,-0.8007158041000366,-0.35714271664619446,0.021447179839015007,-0.9891334772109985,-0.14544756710529327,0.002402307465672493,0.21021807193756104,-0.05299299955368042,-0.3205085000974797,-0.289606539635781,0.5860070538792012,0.6855640496317685,1.4232410197374399,0.1464014320784935,-2.3932597201377344
1773063446158047488,3.1023123264312744,0.6855306625366211,-0.5750423669815063,-0.510285496711731,0.0246730986982584,-0.9897066950798035,-0.14096735417842865,-0.054854996502399445,0.29572176933288574,-0.020043417811393738,-0.3162926689787326,-0.28919320072019383,0.5881187105353454,0.6858881376268317,1.4271924644595486,0.17327190594290093,-2.4275416080294105
1773063446168084480,3.112349271774292,0.7287449836730957,-0.43803122639656067,-0.5916557312011719,0.02957487851381302,-0.9905792474746704,-0.13370902836322784,-0.11961699277162552,0.2764068841934204,0.00507742166519165,-0.3118187847594489,-0.29032899558097125,0.5906391101367751,0.6852908651342414,1.4334239398288549,0.217683495896878,-2.4773975227947123
1773063446178122496,3.122387409210205,0.5474649667739868,-0.48236697912216187,-0.5360968708992004,0.03465605899691582,-0.9912370443344116,-0.12746813893318176,-0.09509611129760742,0.04369676113128662,-0.04651254415512085,-0.3075946805118289,-0.29148136709203215,0.5927094900615002,0.6849230806125738,1.4383140824301062,0.2654634086713185,-2.5301446222477852
1773063446188159488,3.1324243545532227,0.09905838221311569,-0.6766936182975769,-0.4664762616157532,0.03888160362839699,-0.9914882183074951,-0.1242552101612091,-0.011263180524110794,-0.2774937152862549,-0.03320026397705078,-0.303654769192536,-0.2915029999130332,0.5940525186644611,0.6855081471304457,1.4402293519799536,0.3032649697484352,-2.574134075940851
1773063446198197248,3.1424622535705566,-0.5723969340324402,-0.8153842091560364,-0.41340383887290955,0.04233787581324577,-0.9910163879394531,-0.12686187028884888,0.02246619388461113,-0.4780234694480896,0.07334931194782257,-0.30023101094881155,-0.2898853520972412,0.5937470369443837,0.6879623631695306,1.4366537960413224,0.32210937776707127,-2.6007419240369125
1773063446208234240,3.152499198913574,-0.7006598114967346,-0.9881336688995361,-0.38695812225341797,0.04510939121246338,-0.9899324178695679,-0.1341600865125656,0.05266891047358513,-0.44150978326797485,0.2733049988746643,-0.2972079759080029,-0.28693279435895874,0.592106010690583,0.6919157702904081,1.4287784742313514,0.3243602861138791,-2.612059652821737
1773063446218272512,3.1625373363494873,-0.5429975390434265,-1.0856716632843018,-0.3841562271118164,0.04751237854361534,-0.9889220595359802,-0.1406252533197403,0.06651653349399567,-0.19990527629852295,0.1635134518146515,-0.2935838211749004,-0.28352006785902506,0.5910192411072046,0.6957880522655232,1.42181007884411,0.3258236558118969,-2.6242422389670703
1773063446228309504,3.172574281692505,-0.32361912727355957,-0.9892122149467468,-0.376714289188385,0.049777694046497345,-0.9880576133728027,-0.14582271873950958,0.044735223054885864,0.1876731514930725,0.06566829979419708,-0.28984708486790534,-0.2803146492604627,0.5903493376953279,0.6992138393515093,1.416095168092238,0.32895494800178915,-2.6379582918633995
1773063446238347520,3.182612419128418,0.4824291169643402,-0.8310267329216003,-0.4029151201248169,0.05229221656918526,-0.9879603981971741,-0.14560160040855408,0.005965862423181534,0.4383235573768616,-0.028607964515686035,-0.28567799201130034,-0.2783580732222876,0.5913678920831412,0.7008487231092697,1.4154655731094943,0.3447992623005001,-2.6632718099264028
1773063446248384512,3.1926493644714355,1.084954857826233,-0.787121593952179,-0.45522305369377136,0.05538706108927727,-0.9889004230499268,-0.13787011802196503,-0.04980234429240227,0.44053012132644653,-0.22341226041316986,-0.2806580205615786,-0.2779933905859392,0.5947979629504142,0.7001186238559016,1.421664288509378,0.3819999921510025,-2.7090028803717523
1773063446258422272,3.2026872634887695,0.9990816712379456,-0.5894428491592407,-0.50324946641922,0.05923696979880333,-0.9900681376457214,-0.12749916315078735,-0.10754628479480743,0.29734963178634644,-0.13644737005233765,-0.27531216650086154,-0.2784542885137281,0.5989270629340748,0.6985361669528042,1.429740682006104,0.4349342588133196,-2.7697264398623322
1773063446268459264,3.212724208831787,0.4129742383956909,-0.4320785105228424,-0.47157222032546997,0.06357783824205399,-0.9906384944915771,-0.12080248445272446,-0.10202997922897339,0.08634161949157715,0.12858444452285767,-0.27116716623786574,-0.27925592248986175,0.6013442331639309,0.6977604170460152,1.4338571960765807,0.4844622340011917,-2.824526715473238
1773063446278496512,3.222761392593384,-0.04889006167650223,-0.5947776436805725,-0.3627176284790039,0.06707614660263062,-0.9906014800071716,-0.11920392513275146,-0.06843417137861252,-0.22312837839126587,0.11223065853118896,-0.2678636870430848,-0.27894503248330876,0.6021525591649524,0.6984633353461159,1.4335862716700776,0.5125419848457113,-2.8581597405089894
1773063446288534528,3.2327992916107178,-0.988584578037262,-0.6683722734451294,-0.3301255702972412,0.06973595917224884,-0.9897552132606506,-0.1245865523815155,-0.04982321709394455,-0.4564118981361389,-0.023271098732948303,-0.26547650251806737,-0.2771349050801924,0.6007520011994099,0.701295706564381,1.4275320143106038,0.5102896347486281,-2.862180012514361
1773063446298571264,3.2428362369537354,-1.5261003971099854,-0.8483492732048035,-0.3378695547580719,0.0719788447022438,-0.9877894520759583,-0.1381707638502121,-0.05208136886358261,-0.43085068464279175,0.03993469476699829,-0.2638122933421842,-0.2736510768628186,0.5966822499377904,0.706745014106531,1.414364333833466,0.4802598787439561,-2.8396440762356026
1773063446308609536,3.2528743743896484,-1.35451340675354,-0.8198915123939514,-0.4320583641529083,0.07458411157131195,-0.9853587746620178,-0.1533142477273941,-0.032698750495910645,-0.2304614782333374,0.1100708395242691,-0.2619645862562937,-0.2699090341482956,0.5920236370249677,0.7127634142296352,1.3994658096178743,0.45277215799501347,-2.8202272878799604
1773063446318646528,3.262911319732666,-0.8601561188697815,-0.8459764719009399,-0.4280347228050232,0.07754421979188919,-0.9832603931427002,-0.16488102078437805,-0.04220488667488098,-0.019928574562072754,0.04445870220661163,-0.2594030422483243,-0.2667374159064995,0.5885665956769752,0.7177398657281665,1.3875669685805017,0.4396099379721078,-2.815419360714497
1773063446328684288,3.27294921875,-0.295543909072876,-0.8404632210731506,-0.4464976191520691,0.0803603008389473,-0.9819188117980957,-0.17139920592308044,-0.0228193998336792,0.1939091682434082,0.00039398670196533203,-0.2561564060181274,-0.2641952219321579,0.5869423151585164,0.7211681651887499,1.380344598728086,0.43841749401357916,-2.82281279069598
1773063446338721536,3.2829864025115967,0.28352174162864685,-0.6758492588996887,-0.5197614431381226,0.08378876000642776,-0.9815415740013123,-0.17191772162914276,-0.05186736583709717,0.32475751638412476,-0.04027104377746582,-0.25213292548757593,-0.2628498621211255,0.5873253720421702,0.7227641028744037,1.378362099285833,0.45349840867790614,-2.846020711145952
1773063446348759296,3.2930243015289307,0.5559458136558533,-0.5511688590049744,-0.5873586535453796,0.08827607333660126,-0.981803834438324,-0.16813300549983978,-0.09682098031044006,0.282707154750824,-0.04655814170837402,-0.24775103015836028,-0.26286719369343053,0.5889264270584241,0.7229702640593927,1.379738075054937,0.4834761131867677,-2.8827085697934414
1773063446358796288,3.3030612468719482,0.27370893955230713,-0.5788144469261169,-0.52438884973526,0.09286375343799591,-0.982083261013031,-0.16397768259048462,-0.1195056140422821,0.02351093292236328,-0.06606380641460419,-0.24345269696583952,-0.263089867111001,0.5905885890092302,0.7229934856467194,1.3812153251812298,0.5152861493239212,-2.9207827464525797
1773063446368833536,3.313098430633545,-0.52007657289505,-0.7011470198631287,-0.4716188311576843,0.09668394923210144,-0.9814210534095764,-0.16572533547878265,-0.08766601234674454,-0.2360929250717163,0.0029140859842300415,-0.23991261442150943,-0.26209415301613714,0.5902914410046102,0.7247789946980834,1.3777328403429037,0.5281232190650712,-2.9403936535872472
1773063446378871552,3.323136329650879,-0.9471344351768494,-0.8319920897483826,-0.48121577501296997,0.10002677887678146,-0.9796316027641296,-0.1741163283586502,-0.04610223323106766,-0.3690469264984131,0.1516401320695877,-0.23694593603027522,-0.25977251932294615,0.5877585142434442,0.7286389733775693,1.3686185981930967,0.5214452516965736,-2.941411358953672
1773063446388908288,3.3331732749938965,-0.9837712645530701,-1.0298147201538086,-0.49658462405204773,0.10316713899374008,-0.9773534536361694,-0.18476152420043945,-0.009417138993740082,-0.32734930515289307,0.09992265701293945,-0.23374076672988145,-0.2566769719442301,0.5845820472896232,0.7333116992203507,1.357570885712273,0.509254222882475,-2.938355974834576
1773063446398946560,3.3432114124298096,-0.5033915638923645,-1.0940033197402954,-0.5843681693077087,0.1063307523727417,-0.975345253944397,-0.19337934255599976,0.005455151200294495,-0.08517110347747803,0.021214425563812256,-0.22951807865893248,-0.25330236505571163,0.5823643568728549,0.7375711785581779,1.348280231877265,0.5027325025208021,-2.9429797533053046
1773063446408983552,3.353248357772827,0.013692312873899937,-0.906868577003479,-0.6460882425308228,0.11043224483728409,-0.974214494228363,-0.19675126671791077,-0.012592852115631104,0.2460039258003235,0.07242259383201599,-0.22461736870123966,-0.2511544259624875,0.5818469075218404,0.7402180669648074,1.3432129136562345,0.5114610400628022,-2.962172184026093
1773063446419021312,3.363286256790161,0.3795701563358307,-0.7848218083381653,-0.6133520603179932,0.11499114334583282,-0.9738913774490356,-0.19573676586151123,-0.05261317640542984,0.4559926986694336,0.029766887426376343,-0.2195103458751964,-0.2500837634571957,0.5827432788142397,0.7414065857091917,1.3417851843024722,0.5311616366710805,-2.9911523873449224
1773063446429058304,3.3733232021331787,0.7373179197311401,-0.5241166949272156,-0.5838106870651245,0.11951208859682083,-0.9742646217346191,-0.19111566245555878,-0.08646157383918762,0.4042420983314514,0.028533294796943665,-0.21466118808682064,-0.24995669031174075,0.5847767306010025,0.7412680628688315,1.3434352926385802,0.558843106677835,-3.026411533857475
