time,seconds_elapsed,rotationRateX,rotationRateY,rotationRateZ,gravityX,gravityY,gravityZ,accelerationX,accelerationY,accelerationZ,quaternionW,quaternionX,quaternionY,quaternionZ,pitch,roll,yaw
1773075910315328000,0.030274152755737305,0.0612143948674202,0.010372664779424667,0.10445805639028549,-0.22412411868572235,-0.21442516148090363,-0.950678825378418,0.04013362526893616,0.01970776915550232,0.0021009445190429688,0.5471647813884875,-0.03431645952174854,-0.15324154244094484,-0.8221617940347996,0.21610326977322863,-0.23152416698272685,-1.941950617360141
1773075910325364992,0.04031109809875488,0.08641162514686584,0.034305695444345474,0.10050539672374725,-0.22414880990982056,-0.21490731835365295,-0.9505641460418701,0.010602042078971863,0.03636424243450165,0.006335020065307617,0.5476153320623409,-0.03410550377432522,-0.1534755808475384,-0.821826890007564,0.21659693669425537,-0.23157572037592608,-1.940751511933482
1773075910335402240,0.05034828186035156,0.09939449280500412,0.056177571415901184,0.12150295078754425,-0.22393323481082916,-0.2155366986989975,-0.9504724144935608,-0.033940285444259644,0.0490022748708725,-0.001370847225189209,0.5481269547052242,-0.03374067324124713,-0.15370540738484206,-0.821457917461028,0.21724141773351255,-0.23138241297530557,-1.9394205396141866
1773075910345440256,0.06038618087768555,0.10818185657262802,0.044631704688072205,0.13426615297794342,-0.223704531788826,-0.21623772382736206,-0.9503670334815979,-0.04217986762523651,0.04619377851486206,-0.0074881911277771,0.5487022275226389,-0.03333763190319215,-0.15396453309262537,-0.8210416544749318,0.21795936970505073,-0.23117915846365344,-1.937921533121428
1773075910355476992,0.07042312622070312,0.11603419482707977,0.03303230553865433,0.16221442818641663,-0.22365695238113403,-0.2169734388589859,-0.9502105712890625,-0.03339260816574097,0.0397273451089859,-0.009735107421875,0.5493551757924899,-0.03298507682916705,-0.15429422231006043,-0.8205572479103782,0.21871297625273758,-0.2311684394305849,-1.9361895459080516
1773075910365515264,0.08046126365661621,0.14153794944286346,0.033978261053562164,0.1830664426088333,-0.22372597455978394,-0.21781861782073975,-0.9500009417533875,-0.023283302783966064,0.045821547508239746,-0.011531651020050049,0.5501220678485615,-0.03262760477569331,-0.154709340365307,-0.8199794145263061,0.21957886365164517,-0.23128649479281568,-1.934132796522581
1773075910375552256,0.09049820899963379,0.167591392993927,0.03921909257769585,0.1967465728521347,-0.22379334270954132,-0.2188538759946823,-0.9497470855712891,-0.02547423541545868,0.05747692286968231,-0.008718490600585938,0.5509610503619603,-0.03220034824534637,-0.15520822248271443,-0.8193385143519997,0.22063971381568107,-0.23141332930112307,-1.9318593693644965
1773075910385590016,0.10053610801696777,0.19465842843055725,0.04458349943161011,0.21637193858623505,-0.22383880615234375,-0.22010889649391174,-0.9494463205337524,-0.03255462646484375,0.06837549805641174,-0.0023816823959350586,0.5518811016152624,-0.031684166962821926,-0.15579783725496285,-0.8186271792862699,0.22192610919791025,-0.23152941588699658,-1.9293441101110174
1773075910395627264,0.11057329177856445,0.21560028195381165,0.044870853424072266,0.2299860268831253,-0.22388991713523865,-0.22158168256282806,-0.9490916132926941,-0.03196944296360016,0.07796595990657806,0.007013976573944092,0.5528648778136922,-0.0310938102890627,-0.15648441986052647,-0.817854711348217,0.22343618142847882,-0.231663898214513,-1.9266236757554172
1773075910405664256,0.12061023712158203,0.23296914994716644,0.03868912532925606,0.24068474769592285,-0.22401881217956543,-0.22317415475845337,-0.9486879706382751,-0.02230381965637207,0.08427338302135468,0.014407575130462646,0.5538973233113893,-0.03048976417821969,-0.1572462576168636,-0.8170323150698701,0.22506954152413025,-0.23188765963228813,-1.9237393198253345
1773075910415702016,0.13064813613891602,0.23290860652923584,0.033495161682367325,0.2569103240966797,-0.2242329716682434,-0.22483353316783905,-0.9482454657554626,-0.016184523701667786,0.09324175119400024,0.022662580013275146,0.5549828710261246,-0.029889025907890755,-0.15806301980623952,-0.816159689935507,0.22677219451943778,-0.23220594006507606,-1.9206885795793431
1773075910425739008,0.1406850814819336,0.22988910973072052,0.03624967113137245,0.2706567347049713,-0.22448477149009705,-0.22642426192760468,-0.947807252407074,-0.018526703119277954,0.09864716231822968,0.025611817836761475,0.5561296561348205,-0.029309216132424015,-0.15886262527570932,-0.8152443127155671,0.2284050191330346,-0.23256104591265772,-1.9174893537625948
1773075910435776256,0.15072226524353027,0.24156229197978973,0.03461581841111183,0.2820606827735901,-0.22478610277175903,-0.22804155945777893,-0.9473479986190796,-0.025000259280204773,0.10363668203353882,0.029974400997161865,0.5573276786746056,-0.02872934715756608,-0.15968913708097565,-0.8142848375248048,0.2300657743976,-0.23297089790215397,-1.9141430714498624
1773075910445814016,0.16076016426086426,0.25318270921707153,0.025419127196073532,0.2939503788948059,-0.2251499891281128,-0.22973717749118805,-0.9468517899513245,-0.028115391731262207,0.10989464819431305,0.030210554599761963,0.5585613663898888,-0.0281424347606,-0.1605680913655503,-0.8132865332572908,0.2318076304406692,-0.23345240508509912,-1.9106729528353075
1773075910455851008,0.17079710960388184,0.2514438033103943,0.016797542572021484,0.3116315007209778,-0.22564104199409485,-0.23143403232097626,-0.9463214874267578,-0.02634260058403015,0.12071625888347626,0.031175613403320312,0.5598506542837347,-0.02759327043251009,-0.1614863870360772,-0.8122364255991512,0.2335514751818444,-0.23406955678123564,-1.9070324970293342
1773075910465889280,0.18083524703979492,0.264009952545166,0.0033373928163200617,0.3353951573371887,-0.22629310190677643,-0.23313520848751068,-0.9457480907440186,-0.023752689361572266,0.13215254247188568,0.033653974533081055,0.561200244432057,-0.027093481027636934,-0.16245586416674482,-0.8111278497098502,0.23530049963340316,-0.23485857926567694,-1.9032007098148813
1773075910475926272,0.1908721923828125,0.27114877104759216,-0.011561527848243713,0.3526970148086548,-0.22712202370166779,-0.2348870038986206,-0.9451156854629517,-0.022603332996368408,0.1389702558517456,0.03639376163482666,0.5626344471230548,-0.02663046798469166,-0.1635022010773226,-0.8099384505080313,0.2371023156022097,-0.23583934482843816,-1.8991023292350206
1773075910485963008,0.20090913772583008,0.28309836983680725,-0.02845369279384613,0.37001103162765503,-0.2281835824251175,-0.23665465414524078,-0.9444187879562378,-0.021984264254570007,0.14639891684055328,0.03441512584686279,0.5641300833572709,-0.026241242071326082,-0.16462687353460875,-0.8086820609776663,0.2389212429268988,-0.2370693053113709,-1.8947887056559665
1773075910496001280,0.21094727516174316,0.2951987683773041,-0.049021683633327484,0.3969253599643707,-0.22946447134017944,-0.23849661648273468,-0.9436447620391846,-0.018612906336784363,0.15449698269367218,0.02595067024230957,0.5656917653865745,-0.02590120351204796,-0.16585159883487952,-0.8073507149982116,0.24081750311084887,-0.23853855277489192,-1.8902354296944333
1773075910506038272,0.22098422050476074,0.29794207215309143,-0.0650203600525856,0.4214980900287628,-0.23100881278514862,-0.2403305023908615,-0.9428023099899292,-0.01403208076953888,0.15808561444282532,0.0150221586227417,0.5673357260066509,-0.025648539614102947,-0.16715561205252347,-0.8059351443652424,0.2427063147008677,-0.2402895407969345,-1.8854089521247444
1773075910516076032,0.23102211952209473,0.3035442531108856,-0.08039811998605728,0.43930062651634216,-0.2327384054660797,-0.2421504408121109,-0.9419108033180237,-0.010883405804634094,0.1557094156742096,0.000702977180480957,0.5690524095768772,-0.025454001374962586,-0.16851314312550222,-0.8044469471553145,0.2445816487934106,-0.24223963184082922,-1.8803481354656215
1773075910526113280,0.2410593032836914,0.3042156398296356,-0.0810476616024971,0.4554433524608612,-0.2345995008945465,-0.24395614862442017,-0.9409826993942261,-0.008213594555854797,0.15399032831192017,-0.011669278144836426,0.5708292482955185,-0.02529759408458003,-0.16990783275127086,-0.8028981428555055,0.24644317899184226,-0.24433224918650573,-1.8750943245789744
1773075910536151296,0.2510972023010254,0.29707908630371094,-0.09099936485290527,0.4703432321548462,-0.2365543693304062,-0.24567553400993347,-0.9400455355644226,-0.003878369927406311,0.15195605158805847,-0.023455440998077393,0.5726540673346615,-0.025187637859859776,-0.1712974803932953,-0.8013052649685242,0.24821652879195769,-0.24652291519404076,-1.8697014727080874
1773075910546188032,0.26113414764404297,0.28898999094963074,-0.09456133842468262,0.4824976325035095,-0.23859158158302307,-0.24729587137699127,-0.9391053318977356,0.0007375776767730713,0.14732030034065247,-0.027752578258514404,0.5745188205975021,-0.02512482613413686,-0.17267334933977654,-0.7996753673070182,0.249888451675442,-0.24879866569029768,-1.8641943365551557
1773075910556225024,0.27117109298706055,0.2906304597854614,-0.09754926711320877,0.4852365553379059,-0.24070000648498535,-0.24884791672229767,-0.9381568431854248,0.008293390274047852,0.14363856613636017,-0.030944108963012695,0.5764063013300735,-0.02509892094813694,-0.1740449156100266,-0.7980189308514616,0.2514905771251701,-0.2511496737667263,-1.8586113100449002
1773075910566263296,0.28120923042297363,0.29769662022590637,-0.09260617941617966,0.4931935667991638,-0.24282614886760712,-0.2504011392593384,-0.9371951222419739,0.01501244306564331,0.14995253086090088,-0.026076912879943848,0.5782925128422732,-0.025072240470899183,-0.17542465451867337,-0.7963512969729674,0.2530945568173591,-0.2535237501770194,-1.8530072099722943
1773075910576300032,0.2912461757659912,0.31862422823905945,-0.08545253425836563,0.5002004504203796,-0.2449251115322113,-0.25206395983695984,-0.9362027049064636,0.019735917448997498,0.16296786069869995,-0.020462334156036377,0.5802015455492849,-0.02498792389350115,-0.1768453061054986,-0.7946493399788698,0.25481247942622315,-0.2558806508503549,-1.8473052908292973
1773075910586337024,0.3012831211090088,0.3569830656051636,-0.07479429990053177,0.50718092918396,-0.24697019159793854,-0.25397372245788574,-0.9351487159729004,0.026206031441688538,0.17813754081726074,-0.01361227035522461,0.5821708236845323,-0.024783889759939233,-0.1783575472274097,-0.792875408829223,0.25678647483324496,-0.25820202476929843,-1.841381803811508
1773075910596375296,0.3113212585449219,0.34352540969848633,-0.0675819143652916,0.5161796808242798,-0.2489103227853775,-0.25595179200172424,-0.9340943694114685,0.0333036333322525,0.19154444336891174,-0.010455191135406494,0.5841708505680004,-0.024500297728846276,-0.1798681149620679,-0.79106992637407,0.25883216561333705,-0.26042095576353674,-1.8353663472797785
1773075910606412288,0.32135820388793945,0.3411533534526825,-0.05546746775507927,0.5286201238632202,-0.25086429715156555,-0.25785917043685913,-0.9330465197563171,0.03870609402656555,0.19305509328842163,0.0032368898391723633,0.5862034943762028,-0.024227270329375217,-0.1813554363108665,-0.789232976967925,0.26080577447274944,-0.2626544094921447,-1.8292593052930244
1773075910616450048,0.33139610290527344,0.32132384181022644,-0.05284039303660393,0.5432996153831482,-0.25277024507522583,-0.2595694661140442,-0.9320573210716248,0.04186329245567322,0.18274149298667908,0.009297370910644531,0.5882822311249759,-0.023976403842745894,-0.1827469772875581,-0.7873707653660222,0.262576365837175,-0.2648262475554009,-1.8230745538506674
1773075910626487296,0.3414332866668701,0.29465121030807495,-0.035725321620702744,0.5590628981590271,-0.25462523102760315,-0.26102006435394287,-0.9311468601226807,0.04017820954322815,0.17341935634613037,0.014063119888305664,0.5904057483705569,-0.023767124274181727,-0.18401543864657438,-0.7854899765966232,0.26407875615015153,-0.26692772136745296,-1.81683333790454
1773075910636524288,0.3514702320098877,0.2829151451587677,-0.029973823577165604,0.5771205425262451,-0.25644728541374207,-0.26224517822265625,-0.9303022623062134,0.032646626234054565,0.16036227345466614,0.01639235019683838,0.5925940974605437,-0.02359198767497225,-0.1851818061541569,-0.7835708652012209,0.2653480895070845,-0.2689798691401799,-1.8104724915745938
1773075910646562048,0.3615081310272217,0.27733340859413147,-0.018501458689570427,0.5929327607154846,-0.25818514823913574,-0.2633190453052521,-0.9295178651809692,0.026983976364135742,0.15110591053962708,0.01971256732940674,0.5948625079038865,-0.023404144035253354,-0.1862613895434845,-0.7815992866465764,0.2664610564888931,-0.27093261555678677,-1.803947165099643
1773075910656599296,0.37154531478881836,0.2900729775428772,-0.008564007468521595,0.6055445671081543,-0.25989657640457153,-0.2643701434135437,-0.9287422895431519,0.023156464099884033,0.1546289324760437,0.018189311027526855,0.5971689343928305,-0.023196000605777964,-0.18732542693497012,-0.7795898237688026,0.2675507583695401,-0.2728576820636069,-1.7973157691595543
1773075910666637056,0.38158321380615234,0.30781495571136475,-0.005947452038526535,0.6177796721458435,-0.26157909631729126,-0.26552847027778625,-0.9279391169548035,0.02482372522354126,0.16587331891059875,0.013693511486053467,0.5995278062997644,-0.022921386803824946,-0.1884278398639123,-0.7775190619191605,0.2687520143972342,-0.27476276541899397,-1.7905059069267426
1773075910676674048,0.3916201591491699,0.33750343322753906,-0.007987700402736664,0.6270917057991028,-0.2632869780063629,-0.2668769359588623,-0.927068829536438,0.028072774410247803,0.1704109013080597,0.007452189922332764,0.6019459474963147,-0.022572521346471943,-0.1896208144532605,-0.7753679742927908,0.27015097408137145,-0.27671346454623286,-1.7834609463638398
1773075910686711040,0.4016571044921875,0.3765983581542969,-0.007992492988705635,0.6362884044647217,-0.26504427194595337,-0.2684853971004486,-0.9261032342910767,0.03279024362564087,0.1745980679988861,0.00279390811920166,0.6043923241067418,-0.02214242602410725,-0.19094006946405895,-0.7731504910923289,0.2718203480876173,-0.27874221293510165,-1.7762320934564195
1773075910696749312,0.4116952419281006,0.42325538396835327,-0.004939312115311623,0.6357684135437012,-0.26681968569755554,-0.27048447728157043,-0.9250110387802124,0.03213950991630554,0.18176987767219543,-0.004310250282287598,0.6068299778187474,-0.021583809984974143,-0.19242823762670258,-0.7708844417275672,0.2738962170207875,-0.2808273347661471,-1.7688821742944736
1773075910706786048,0.42173218727111816,0.4645639657974243,0.005977783817797899,0.6327593326568604,-0.26856088638305664,-0.2729187309741974,-0.9237913489341736,0.02719736099243164,0.1880646049976349,-0.013845980167388916,0.6092503561925879,-0.020861789661098383,-0.19408535188971265,-0.7685763761363046,0.2764256346696118,-0.28291772956699335,-1.7614319612114862
1773075910716824064,0.43177008628845215,0.5065016746520996,0.003941664006561041,0.636641800403595,-0.27027785778045654,-0.2756623923778534,-0.9224750399589539,0.022871851921081543,0.189602792263031,-0.019205868244171143,0.6116741383045085,-0.020014104182980854,-0.19586201019137145,-0.7662195374198042,0.27927871080617206,-0.2850151484250328,-1.7538560812772608
1773075910726861312,0.44180727005004883,0.5047274231910706,0.0111769400537014,0.6295809745788574,-0.2719287574291229,-0.27860209345817566,-0.921105682849884,0.019639939069747925,0.17984721064567566,-0.017126739025115967,0.6140821470043684,-0.019065215023111398,-0.19769594676073482,-0.763842927227315,0.2823382563309393,-0.2870656738724573,-1.7462450700657874
1773075910736898304,0.4518442153930664,0.46538132429122925,0.023836808279156685,0.6192721128463745,-0.27351441979408264,-0.28137126564979553,-0.9197934865951538,0.01947084069252014,0.16599956154823303,-0.01598227024078369,0.6164585089406149,-0.018140668914282895,-0.19943460948488465,-0.7614957317328873,0.28522281189404086,-0.28903762569684954,-1.7387480164602673
1773075910746936064,0.4618821144104004,0.4333978295326233,0.016922444105148315,0.6063768267631531,-0.27506744861602783,-0.2838590741157532,-0.9185651540756226,0.021634191274642944,0.14456158876419067,-0.0024706125259399414,0.6187739162334694,-0.01729919635495899,-0.20104269669922611,-0.7592109987919018,0.28781634415643664,-0.29095522957915587,-1.7314686574879727
1773075910756973312,0.47191929817199707,0.39070308208465576,-0.00654905941337347,0.594126284122467,-0.2767079770565033,-0.2859410047531128,-0.9174259901046753,0.030705779790878296,0.12146651744842529,-0.002175450325012207,0.6210006267597724,-0.016638172748061394,-0.2025097007181511,-0.7570147194882523,0.2899883036778764,-0.2929363348960023,-1.724488751202114
1773075910767011072,0.48195719718933105,0.38226327300071716,-0.030540145933628082,0.5622780919075012,-0.2785210907459259,-0.2878364026546478,-0.916283905506134,0.0394311249256134,0.11081919074058533,0.003991425037384033,0.6230919136225246,-0.016130977790991784,-0.2039554666441801,-0.7549161795607797,0.2919668572726653,-0.29509326016261445,-1.717843678317128
1773075910777048064,0.49199414253234863,0.3597327470779419,-0.04387592524290085,0.5334733128547668,-0.28041303157806396,-0.28968545794487,-0.9151234030723572,0.044268012046813965,0.114728182554245,-0.0035930275917053223,0.6250577437518937,-0.015692968590633127,-0.20540696965723285,-0.7529040463167269,0.29389818417162356,-0.297337161333446,-1.7114946164211366
1773075910787086336,0.5020322799682617,0.38974258303642273,-0.06998848170042038,0.5090532302856445,-0.28245893120765686,-0.29157471656799316,-0.9138934016227722,0.04584091901779175,0.13340210914611816,-0.010728180408477783,0.626898976044676,-0.015323808514979626,-0.2069262740984751,-0.750962342632524,0.29587267786976973,-0.299758895100302,-1.7053916378670817
1773075910797123072,0.5120692253112793,0.4133826494216919,-0.09622514992952347,0.4867362082004547,-0.28463906049728394,-0.29379984736442566,-0.9125033020973206,0.045457541942596436,0.13652750849723816,-0.020815789699554443,0.6286313326889932,-0.014910717312375308,-0.20862890701130904,-0.749048953889698,0.29819970470595947,-0.30236738938977065,-1.6994041036732273
1773075910807160064,0.5221061706542969,0.46878892183303833,-0.119796521961689,0.45922574400901794,-0.2870091199874878,-0.2964327335357666,-0.9109079837799072,0.04076284170150757,0.1319887936115265,-0.035869300365448,0.6301968230705616,-0.014465323252235245,-0.21056293515934008,-0.7471987764308385,0.3009553302433063,-0.30523383480087274,-1.6936432214089674
1773075910817198336,0.53214430809021,0.540359377861023,-0.13390421867370605,0.42707619071006775,-0.28948959708213806,-0.299730122089386,-0.9090421795845032,0.03013598918914795,0.1403215229511261,-0.041794002056121826,0.6316277089301938,-0.013858949207467419,-0.21280707083761083,-0.7453641030368333,0.3044097452930813,-0.3083014187960914,-1.687957902776265
1773075910827235328,0.5421812534332275,0.6383599638938904,-0.172029510140419,0.37649476528167725,-0.29209446907043457,-0.30387118458747864,-0.9068313837051392,0.019145220518112183,0.14897921681404114,-0.04647672176361084,0.6329010468755386,-0.013039199301835122,-0.21543978012511827,-0.7435401002573341,0.30875336322060093,-0.3116107912457005,-1.6823346334462668
1773075910837273088,0.5522191524505615,0.6991742849349976,-0.15791407227516174,0.2680880129337311,-0.29463067650794983,-0.3090076148509979,-0.9042715430259705,0.006666809320449829,0.16710087656974792,-0.031351566314697266,0.6338887557097156,-0.011915961308146051,-0.21845417416158183,-0.7418361716621497,0.31414941773591337,-0.3149742913855636,-1.677115824356292
1773075910847310080,0.5622560977935791,0.748010516166687,-0.08936990797519684,0.03061366081237793,-0.2962707281112671,-0.315024733543396,-0.9016557335853577,-0.00788271427154541,0.2016671895980835,0.005690157413482666,0.6342404660894893,-0.010323838321009995,-0.2215074441839765,-0.7406530663875724,0.3204827248452666,-0.3174711670433644,-1.6735466043419298
1773075910857347328,0.5722932815551758,0.7902464270591736,-0.0945470929145813,-0.07864891737699509,-0.2969008982181549,-0.32216084003448486,-0.8989228010177612,-0.038349926471710205,0.20137229561805725,0.025372445583343506,0.6339147187362304,-0.008155603150365585,-0.22465991633702082,-0.7400090959095702,0.32801114678505194,-0.31900472461019613,-1.671697862461434
1773075910867385088,0.5823311805725098,0.7705627083778381,-0.08137083798646927,-0.06789586693048477,-0.29748448729515076,-0.32932743430137634,-0.8961285948753357,-0.023743510246276855,0.15504157543182373,0.022654473781585693,0.6334222244939114,-0.006003019700418163,-0.2278150150767993,-0.7394866314148676,0.3355911748192561,-0.32051972901108683,-1.6702521695905095
1773075910877422080,0.5923681259155273,0.861047625541687,0.01833258755505085,-0.10768935829401016,-0.29756778478622437,-0.3368576467037201,-0.8932974934577942,-0.00022274255752563477,0.10567173361778259,-0.01000756025314331,0.6329869644866236,-0.0035107934696318585,-0.2309522334832117,-0.7389021801876667,0.3435774882969274,-0.3215510006397063,-1.66863910118083
1773075910887460352,0.6024062633514404,0.9808067679405212,0.18239982426166534,-0.16839876770973206,-0.29619210958480835,-0.3454522490501404,-0.8904678225517273,-0.04674914479255676,-0.0005255043506622314,-0.09761500358581543,0.6324908112248289,-0.00010779215458220763,-0.23402153512788565,-0.7383692477090419,0.3527206659466281,-0.32111318566062325,-1.6672531941999005
1773075910897497088,0.612443208694458,1.1097474098205566,0.31044167280197144,-0.20336581766605377,-0.2933237850666046,-0.35533881187438965,-0.8875221014022827,-0.08796283602714539,-0.08136773109436035,-0.17372667789459229,0.6319618941089328,0.00431205009193596,-0.23710833849729004,-0.7378245564055885,0.363276509852533,-0.31919610278534316,-1.6659476348267337
1773075910907534080,0.6224801540374756,1.1768667697906494,0.47836780548095703,-0.28122252225875854,-0.28895220160484314,-0.3661903142929077,-0.8845401406288147,-0.08285874128341675,-0.09973680973052979,-0.1912197470664978,0.6314328896726261,0.009652057144165954,-0.24007656613102582,-0.737267017218417,0.3749116532135398,-0.3157410618969208,-1.6647635416504956
1773075910920081152,0.6350271701812744,1.2537542581558228,0.5918458104133606,-0.3489346206188202,-0.281369149684906,-0.3807457685470581,-0.8808314204216003,-0.020175009965896606,-0.0804053544998169,-0.16389203071594238,0.6305799059945423,0.017436410414137054,-0.24347535281693206,-0.7367391881317918,0.39060267715962577,-0.3091911281728811,-1.6641287135994824
1773075910937659136,0.6526052951812744,1.278285264968872,0.6287819743156433,-0.37478750944137573,-0.269347220659256,-0.4022347033023834,-0.8750196099281311,0.02941802144050598,-0.07020792365074158,-0.1660723090171814,0.6291653033982292,0.02924716716885228,-0.24826356634678742,-0.7359760886764583,0.41395640769226905,-0.2986141943611808,-1.6638074974142463
1773075910947697152,0.6626431941986084,1.2251548767089844,0.6062554121017456,-0.3770304322242737,-0.26237305998802185,-0.4142635464668274,-0.8715194463729858,0.07755860686302185,-0.05801123380661011,-0.15309298038482666,0.6282177077057058,0.035931754688038026,-0.2508967904518751,-0.7355965114785423,0.42713349310287074,-0.292422075548937,-1.664087649821711
1773075910957734144,0.672680139541626,1.1143754720687866,0.5648236274719238,-0.33787915110588074,-0.25575679540634155,-0.42536699771881104,-0.8681309223175049,0.10821959376335144,-0.04933390021324158,-0.14767712354660034,0.6273291959442581,0.04218760624368873,-0.253287841230148,-0.7352030021223485,0.4393673588728982,-0.2865010859101919,-1.6644187263543366
1773075910967771136,0.6827170848846436,0.9726263880729675,0.5988825559616089,-0.32913491129875183,-0.2492893487215042,-0.43533042073249817,-0.8650677800178528,0.1431950181722641,-0.05095189809799194,-0.15559262037277222,0.6264897069703554,0.04800521591921913,-0.25526774482705233,-0.7348771575777818,0.4504052635685219,-0.2805715289533123,-1.6650161271785275
1773075910977809152,0.6927552223205566,0.7821632027626038,0.5954796671867371,-0.2826051115989685,-0.24273328483104706,-0.44368457794189453,-0.8626844882965088,0.15528516471385956,-0.06533336639404297,-0.1775071620941162,0.6258138893255892,0.05333263665214896,-0.2565412017804796,-0.7346421699866162,0.45970592359598206,-0.2742783865994779,-1.6658833136786633
1773075910987846144,0.7027921676635742,0.6640682816505432,0.5742641091346741,-0.2170862853527069,-0.23647812008857727,-0.45043399930000305,-0.8609223365783691,0.12514999508857727,-0.08815547823905945,-0.20067739486694336,0.625400634927517,0.058053738722008585,-0.2572325521339813,-0.7343944063232682,0.4672513684149149,-0.26806865098543553,-1.6666079916734016
1773075910997884160,0.7128303050994873,0.6500318050384521,0.5896252393722534,-0.23222768306732178,-0.23051168024539948,-0.45646539330482483,-0.8593623638153076,0.10609149932861328,-0.10429510474205017,-0.21062970161437988,0.6250534391913048,0.062431647897810354,-0.2577229085044192,-0.7341589318040616,0.47401849624360204,-0.2620666906559271,-1.6673497086848594
1773075911007919872,0.7228658199310303,0.5504980087280273,0.6754088997840881,-0.2554357945919037,-0.2239309400320053,-0.46228644251823425,-0.8579896092414856,0.09729824960231781,-0.09211117029190063,-0.25425398349761963,0.6246437619198971,0.06694870953697046,-0.2579206346767597,-0.734040224910671,0.48057196376566624,-0.2552997587543156,-1.6686079737468076
1773075911017956608,0.7329027652740479,0.5130503177642822,0.7352948188781738,-0.23731379210948944,-0.2166445255279541,-0.46725648641586304,-0.8571677803993225,0.06910727918148041,-0.05952268838882446,-0.28292322158813477,0.6244075057146916,0.07147966921930798,-0.257501026789359,-0.7339613479175099,0.48618512856900237,-0.24756014028655385,-1.6700600746192125
1773075911027994880,0.7429409027099609,0.45814022421836853,0.7766531705856323,-0.27460816502571106,-0.20893408358097076,-0.4719838798046112,-0.8564915657043457,0.06067970395088196,-0.037720710039138794,-0.2523188591003418,0.6241807570400667,0.07609059184952126,-0.2568354445166152,-0.7339238622799603,0.4915397358237131,-0.23926874093001907,-1.6717701080123553
1773075911038031872,0.7529778480529785,0.5348924994468689,0.8592133522033691,-0.3079858422279358,-0.20044095814228058,-0.4767400324344635,-0.8558868765830994,0.07386931777000427,-0.073476642370224,-0.25388485193252563,0.6238970488578572,0.08099697637262941,-0.255921948179027,-0.7339591031850983,0.49694243515360653,-0.2300451090829939,-1.6739465891263003
1773075911048069632,0.7630157470703125,0.5417208671569824,0.895542562007904,-0.30199187994003296,-0.19135794043540955,-0.4818824827671051,-0.8550856113433838,0.06039173901081085,-0.1115776002407074,-0.2499864101409912,0.6235561698348979,0.08626486080835861,-0.25498150400320796,-0.7339758304323734,0.5028018345114077,-0.22016058352173962,-1.676356919835504
1773075911058106880,0.7730529308319092,0.6371126770973206,0.9176677465438843,-0.26119741797447205,-0.18213051557540894,-0.48738694190979004,-0.8539803624153137,0.04716654121875763,-0.13660594820976257,-0.23683995008468628,0.6233784730604887,0.09179613318461895,-0.25413244504660093,-0.7337502463462147,0.5090947041791357,-0.21012439869684552,-1.678233082668871
1773075911068143872,0.7830898761749268,0.7225804328918457,0.9408864974975586,-0.26783081889152527,-0.17277958989143372,-0.49357113242149353,-0.8523700833320618,0.062351733446121216,-0.13957706093788147,-0.20193594694137573,0.6232849059376798,0.09767996271776744,-0.2535223443552633,-0.7332809824033266,0.5161911174092033,-0.19999505465619644,-1.6796511140481765
1773075911078181632,0.7931277751922607,0.6259298324584961,0.9594155550003052,-0.3005225956439972,-0.1630694717168808,-0.4996475279331207,-0.8507412672042847,0.08924746513366699,-0.13083037734031677,-0.18319427967071533,0.6231217420980399,0.10365221609499162,-0.2527559704132836,-0.7328642378353052,0.523191817046047,-0.1893822179867897,-1.681463500206727
1773075911088218624,0.8031647205352783,0.5052117109298706,1.0036770105361938,-0.35041236877441406,-0.15281875431537628,-0.50457763671875,-0.8497339487075806,0.08456617593765259,-0.102203369140625,-0.14185845851898193,0.6229083806778195,0.10938604457669725,-0.25133188814481244,-0.7327018814818642,0.5288927199473531,-0.17794092360242367,-1.684124846061224
1773075911098256896,0.8132028579711914,0.2744792699813843,0.9872686266899109,-0.4115602672100067,-0.14211252331733704,-0.508251428604126,-0.8494024276733398,0.08315256237983704,-0.06271719932556152,-0.049218177795410156,0.6225548852161021,0.11477312813711826,-0.24925070103940677,-0.7328891642424132,0.5331531911660492,-0.16577341042282895,-1.6878747993564451
1773075911108293888,0.823239803314209,0.15224923193454742,0.9754324555397034,-0.44038766622543335,-0.13142168521881104,-0.5103012919425964,-0.849894642829895,0.08591999113559723,-0.035246193408966064,0.02541649341583252,0.6221207216558174,0.11951002773831874,-0.24651576415060827,-0.7334256948251446,0.5355351284420174,-0.15341779695186292,-1.692482814921681
1773075911118330624,0.8332767486572266,-0.00822331290692091,0.9556935429573059,-0.5034016370773315,-0.12058793753385544,-0.5112900733947754,-0.8509060144424438,0.08944475650787354,-0.01535177230834961,0.06878626346588135,0.6215353750270742,0.12385349867256602,-0.24332550590311222,-0.7342662332978619,0.5366852318510844,-0.1407796369944988,-1.6979388321610163
1773075911128368896,0.8433148860931396,-0.05758180841803551,0.9157924652099609,-0.552466630935669,-0.10967357456684113,-0.5114549398422241,-0.8522825837135315,0.10239513218402863,-0.022297441959381104,0.066897451877594,0.6207518953467219,0.12786010371498777,-0.23981350082981703,-0.735396703785109,0.5368770639202969,-0.12797886195420302,-1.7042207068812496
1773075911138405888,0.8533518314361572,-0.17081128060817719,0.8412754535675049,-0.5470702052116394,-0.09915495663881302,-0.510793924331665,-0.8539659380912781,0.09259367734193802,-0.009668111801147461,0.09066033363342285,0.6198457367900542,0.13137392830725902,-0.23613112261818114,-0.736732122253493,0.5361080012192919,-0.11559351496278222,-1.7109149722516266
1773075911148443648,0.8633897304534912,-0.17753124237060547,0.7572394013404846,-0.5395464897155762,-0.08935094624757767,-0.5096309781074524,-0.855741024017334,0.09687353670597076,0.015948116779327393,0.10233831405639648,0.6189069007356465,0.134427255359464,-0.23250549547067792,-0.7381225091069405,0.5347558520042672,-0.10403655348338307,-1.7175240655834343
1773075911158480896,0.8734269142150879,-0.18677011132240295,0.6712035536766052,-0.5277401804924011,-0.08036619424819946,-0.5083460807800293,-0.8573946356773376,0.11103636771440506,0.009261608123779297,0.11606162786483765,0.6178883723780919,0.13711006720915261,-0.22913643064189357,-0.7395346020287795,0.5332631000822913,-0.09345995415178551,-1.724005736323118
1773075911168517888,0.8834638595581055,-0.18885724246501923,0.5985568165779114,-0.5264714360237122,-0.07215093076229095,-0.5070485472679138,-0.8588923811912537,0.11063361167907715,-0.015183508396148682,0.12315928936004639,0.6167888476786348,0.13948148848367448,-0.22605029840599605,-0.7409573793799681,0.5317570166996852,-0.08380785645209685,-1.73035759421679
1773075911178555648,0.8935017585754395,-0.21253494918346405,0.5311663150787354,-0.5195776224136353,-0.06455755233764648,-0.5056161880493164,-0.8603398203849792,0.09858465194702148,-0.0023030638694763184,0.14783066511154175,0.6156172037623486,0.1415533393831204,-0.22314289852335512,-0.7424185919573046,0.5300960540689984,-0.07489691251964233,-1.7366604243613322
1773075911188592896,0.9035389423370361,-0.20160932838916779,0.45818987488746643,-0.5033504366874695,-0.05764048546552658,-0.5041210651397705,-0.8617073893547058,0.08734935522079468,0.007004976272583008,0.1704079508781433,0.6144120150563458,0.1433418646513882,-0.22045277518266115,-0.7438761218991489,0.528363914079279,-0.06679152352671325,-1.7427770364161936
1773075911198630912,0.9135768413543701,-0.25835099816322327,0.3957027792930603,-0.47211363911628723,-0.051459018141031265,-0.502435028553009,-0.8630822896957397,0.07428616285324097,-0.015906035900115967,0.17193543910980225,0.6132144278601739,0.14478518606476534,-0.2179360237646407,-0.7453249044847007,0.5264127867485652,-0.05955187969201063,-1.7486246111864598
1773075911208667648,0.9236137866973877,-0.27450811862945557,0.3456939458847046,-0.4508994221687317,-0.04587016627192497,-0.5003324151039124,-0.8646174669265747,0.06410440802574158,-0.058841168880462646,0.1507960557937622,0.6120841530214521,0.14586970425470006,-0.2154374354516015,-0.7467675175756715,0.5239826711991085,-0.053002865501625473,-1.7541660673988053
1773075911218705920,0.9336519241333008,-0.3333664536476135,0.2778232991695404,-0.41403889656066895,-0.040969446301460266,-0.497792512178421,-0.8663279414176941,0.06170614808797836,-0.08668014407157898,0.1373850703239441,0.6110109403916477,0.14654584009855381,-0.21297966866902998,-0.7482176467244034,0.521051662881903,-0.04725571527599271,-1.7594040530640185
1773075911228742912,0.9436888694763184,-0.33378592133522034,0.23451147973537445,-0.37686195969581604,-0.03679109737277031,-0.49501821398735046,-0.8681033253669739,0.05055452883243561,-0.10863474011421204,0.11328154802322388,0.6100452949456323,0.14688964557258896,-0.21064608864873993,-0.7495974680793105,0.5178558052721867,-0.04235566594380991,-1.7641371991747057
1773075911238779904,0.9537258148193359,-0.2990989089012146,0.22117450833320618,-0.34688398241996765,-0.03300829231739044,-0.49233919382095337,-0.8697773218154907,0.04515429958701134,-0.12852567434310913,0.08642160892486572,0.6091627165158429,0.14714566114941188,-0.20846939790212418,-0.75087255054998,0.5147752041115584,-0.03793207735638679,-1.768452788773792
1773075911248817664,0.9637637138366699,-0.26824966073036194,0.22604437172412872,-0.32926076650619507,-0.029375996440649033,-0.48995012044906616,-0.8712553977966309,0.039828263223171234,-0.14866068959236145,0.06145620346069336,0.6083349259790012,0.14747426328186236,-0.20645497676368474,-0.7520347759351407,0.5120325503896563,-0.03370409385229085,-1.7724584614113428
1773075911258854912,0.9738008975982666,-0.21048103272914886,0.2452341765165329,-0.3044077157974243,-0.025738302618265152,-0.4879274070262909,-0.8725046515464783,0.024242933839559555,-0.148989737033844,0.06598609685897827,0.6075637440099602,0.14796448853280258,-0.20458293980408046,-0.7530727590913546,0.5097137401235042,-0.029490777061263653,-1.7761866889857494
1773075911268891904,0.9838378429412842,-0.14033736288547516,0.25367265939712524,-0.2671663463115692,-0.02213001251220703,-0.4864712953567505,-0.8734162449836731,0.013478267937898636,-0.1433199644088745,0.0805085301399231,0.6068613011292611,0.14867806283857884,-0.20294510875326838,-0.7539412609113054,0.5080463828146244,-0.025331884730474267,-1.7795495689868104
1773075911278929664,0.9938757419586182,-0.04331290349364281,0.25993403792381287,-0.24132411181926727,-0.018628863617777824,-0.4857097864151001,-0.8739215731620789,0.00842074304819107,-0.14917787909507751,0.08185315132141113,0.6062252514820072,0.14962836610676344,-0.2016198244239427,-0.7546202630647527,0.5071749984966033,-0.02131317362442988,-1.7825064969470839
1773075911288966912,1.0039129257202148,0.043282974511384964,0.26840075850486755,-0.22889620065689087,-0.015146549791097641,-0.4857505261898041,-0.8739662170410156,0.008035942912101746,-0.14506304264068604,0.0782662034034729,0.6056025543955077,0.15087470660778546,-0.200633264967429,-0.7551348087028489,0.5072216083878652,-0.01732908361992128,-1.785207453696489
1773075911299004672,1.0139508247375488,0.11810639500617981,0.2756451964378357,-0.22182510793209076,-0.011641181074082851,-0.4865278899669647,-0.8735874891281128,0.008101142011582851,-0.12971356511116028,0.07517135143280029,0.6049702709505747,0.15240269618153537,-0.19994916781668262,-0.7555162388492681,0.5081111428038744,-0.013324929552496931,-1.7877515540915114
1773075911309041664,1.0239877700805664,0.1437997817993164,0.27869585156440735,-0.23030966520309448,-0.008051281794905663,-0.4876951575279236,-0.8729768991470337,0.005472548305988312,-0.09883743524551392,0.08870565891265869,0.6042930602603,0.15409968923919035,-0.19941124410867184,-0.7558560989781992,0.5094477000682296,-0.009222527960922057,-1.7903418366569461
1773075911319079936,1.0340259075164795,0.1465865522623062,0.27434173226356506,-0.21033024787902832,-0.004532273393124342,-0.4889603555202484,-0.8722942471504211,0.01013224571943283,-0.06714621186256409,0.10007745027542114,0.6036261605497153,0.15580998023466025,-0.1989375175539449,-0.7561630721352903,0.5108975353126132,-0.00519576106544895,-1.7928591870412944
1773075911329116928,1.044062852859497,0.14410901069641113,0.2650369107723236,-0.20883408188819885,-0.0011162557639181614,-0.49025899171829224,-0.8715760707855225,0.015093310736119747,-0.055059611797332764,0.11385512351989746,0.6029738768597264,0.1574977199956757,-0.19851050894014227,-0.7564460191695013,0.512386879370882,-0.0012807316629005621,-1.795299519451946
1773075911339153664,1.0540997982025146,0.1255410611629486,0.24514402449131012,-0.20183782279491425,0.0021527239587157965,-0.49142637848854065,-0.8709164261817932,0.02447386644780636,-0.04647645354270935,0.11836826801300049,0.6023319414001111,0.15908293269628984,-0.19807673872549322,-0.7567393092976022,0.5137267757252709,0.0024717866612428458,-1.7977001734039069
1773075911349191936,1.0641379356384277,0.12146109342575073,0.20596866309642792,-0.17795538902282715,0.005088650155812502,-0.4924980700016022,-0.8702986240386963,0.02915206179022789,-0.01362067461013794,0.12673789262771606,0.6017299456273593,0.16051075546457763,-0.19770425868905703,-0.757014055218893,0.5149577302325375,0.005846949398212354,-1.7999185210559365
1773075911359228928,1.0741748809814453,0.11626153439283371,0.16684603691101074,-0.13620449602603912,0.007513448130339384,-0.49351105093955994,-0.8697070479393005,0.04181820899248123,0.023189425468444824,0.1310749053955078,0.6012164449551518,0.16173462270433733,-0.19745475670920307,-0.7572266767216741,0.5161220471232567,0.008638841061759267,-1.8017642945586887
1773075911369266688,1.0842127799987793,0.08341597020626068,0.1264653205871582,-0.09309829026460648,0.009364938363432884,-0.4943385720252991,-0.8692190051078796,0.05542386323213577,0.04455524682998657,0.12771815061569214,0.6008372769125235,0.16269349271110492,-0.19728490659053508,-0.7573664635437715,0.5170737684938946,0.010773552059763675,-1.8031273656782494
1773075911379303680,1.0942497253417969,0.054705362766981125,0.0852639451622963,-0.04801057279109955,0.010632993653416634,-0.49495258927345276,-0.8688549399375916,0.06625605374574661,0.06412068009376526,0.13133662939071655,0.6006214706099358,0.16337958798667243,-0.19717921626814014,-0.7574175519616707,0.5177802519675745,0.012237327842730286,-1.8039347405721042
1773075911389340928,1.1042869091033936,0.047365691512823105,0.05354810133576393,-0.008499118499457836,0.011374064721167088,-0.4954250454902649,-0.8685762286186218,0.07401413470506668,0.08449059724807739,0.13430804014205933,0.6005432801253864,0.16383527914496068,-0.19715445694563852,-0.7573876477763574,0.5183240885831489,0.013094319438310813,-1.8042539818254437
1773075911399378688,1.1143248081207275,0.06616858392953873,0.04564490169286728,0.022223638370633125,0.01179480366408825,-0.495890736579895,-0.8683048486709595,0.0749056413769722,0.10110008716583252,0.12245523929595947,0.6005739937013176,0.1641867841592505,-0.19720620876540546,-0.7572736316947154,0.5188602854028301,0.013582878040976668,-1.8041909228814093
1773075911409415680,1.1243617534637451,0.06595286726951599,0.0345349945127964,0.059173665940761566,0.01193808764219284,-0.49639153480529785,-0.8680166602134705,0.06757546216249466,0.11431148648262024,0.11230987310409546,0.6007179548415764,0.16446812492777413,-0.19733703069700162,-0.757064273428785,0.5194370759053383,0.013752426512045089,-1.8037375076183861
1773075911419453952,1.1343998908996582,0.06469399482011795,0.01953686960041523,0.11673816293478012,0.011736989952623844,-0.4969936013221741,-0.8676748275756836,0.05930791795253754,0.12045249342918396,0.1001577377319336,0.6010210264811382,0.16468880452087117,-0.19758590982092555,-0.7567107047018193,0.5201307659627263,0.013526120639794494,-1.8027360985982286
1773075911429490688,1.1444368362426758,0.07532133907079697,-0.007462258450686932,0.17993178963661194,0.011055286042392254,-0.49765387177467346,-0.8673052191734314,0.058417972177267075,0.11844244599342346,0.08741331100463867,0.6015274272525928,0.16478951673762368,-0.19796917165401748,-0.756186025739006,0.5208918104304674,0.012746017471157462,-1.8010374561575735
1773075911439527680,1.1544737815856934,0.05901693180203438,-0.05405399575829506,0.26693886518478394,0.00969633273780346,-0.4982672929763794,-0.8669692277908325,0.06104341894388199,0.1140052080154419,0.06910240650177002,0.6022823499690658,0.1646641658566083,-0.19849707193371677,-0.7554737151440911,0.5215991584554097,0.011183704739909256,-1.7984844386112069
1773075911449565952,1.1645119190216064,-0.0004826132208108902,-0.13452114164829254,0.36931076645851135,0.007330423220992088,-0.4985602796077728,-0.8668240308761597,0.06339404731988907,0.11025461554527283,0.04979217052459717,0.6033591249332708,0.16409807111826785,-0.19914771421657995,-0.7545658603559044,0.5219371146827588,0.008456443689811305,-1.7948435343068223
1773075911459602944,1.174548864364624,-0.06733377277851105,-0.2536122500896454,0.48008906841278076,0.003547572996467352,-0.49828270077705383,-0.8670073747634888,0.06955728679895401,0.10863426327705383,0.03271782398223877,0.6047994914561544,0.16284569334378854,-0.19994398433848384,-0.7534728367568739,0.5216169491725859,0.0040917220293763676,-1.789935750261318
1773075911469640704,1.184586763381958,-0.052397169172763824,-0.3653917610645294,0.5783756971359253,-0.0018328826408833265,-0.4977412819862366,-0.867323637008667,0.07907287776470184,0.10591083765029907,0.014693021774291992,0.6065534141235647,0.1609405127559944,-0.20108788915990503,-0.7521667623655611,0.5209925974672223,-0.002113259470219375,-1.7837571164659705
1773075911479677696,1.1946237087249756,0.03182769939303398,-0.4225197732448578,0.6089940071105957,-0.008228996768593788,-0.4976121187210083,-0.8673606514930725,0.08481286466121674,0.0956345796585083,-0.01265949010848999,0.6084108381696391,0.15882056513424025,-0.2027207727564477,-0.750677449448347,0.5208436903597546,-0.00948711507938413,-1.7768645891919492
1773075911489714944,1.2046608924865723,0.026813765987753868,-0.45017242431640625,0.6243988275527954,-0.015100780874490738,-0.49783235788345337,-0.8671417832374573,0.07166510075330734,0.09959322214126587,-0.036331117153167725,0.6102536730222063,0.15665224555696233,-0.20466846107517736,-0.7491069749031813,0.5210976037622291,-0.01741267072580443,-1.7697397084573054
1773075911499752704,1.2146987915039062,0.02719641849398613,-0.47269436717033386,0.6522231101989746,-0.022300081327557564,-0.4979371428489685,-0.866926372051239,0.037345245480537415,0.1392945647239685,-0.016099750995635986,0.6121488965781486,0.1543406662381565,-0.20667796688067866,-0.7474870462339204,0.5212184269580992,-0.025717484139406718,-1.7623641228639164
1773075911509789696,1.2247357368469238,0.04014976695179939,-0.5259682536125183,0.7118558287620544,-0.030034782364964485,-0.49803149700164795,-0.8666386604309082,0.02176452800631523,0.17065417766571045,0.0372319221496582,0.6141464252534066,0.15185894797782004,-0.20885289041394328,-0.7457503554574142,0.5213272289588468,-0.034642773881804735,-1.7545042629978822
1773075911519827968,1.234773874282837,0.0645701140165329,-0.5919575691223145,0.7912890315055847,-0.03862442076206207,-0.49820172786712646,-0.8662004470825195,0.023762356489896774,0.14406049251556396,0.05254077911376953,0.6163344042410704,0.1491427175630551,-0.21132022015061067,-0.7437956943814693,0.5215235374939209,-0.044561110298230996,-1.7457831927855656
1773075911529864704,1.2448108196258545,0.16281038522720337,-0.6493542790412903,0.8595067262649536,-0.04816756397485733,-0.4987544119358063,-0.865403950214386,0.021235808730125427,0.09161940217018127,0.04229903221130371,0.6186774897160894,0.14626752950828942,-0.21425183438377754,-0.7415795230744705,0.5221610794356009,-0.05560168570390786,-1.73615205428684
1773075911539901696,1.254847764968872,0.28967174887657166,-0.683371365070343,0.9422146081924438,-0.058456774801015854,-0.5002771615982056,-0.8638898134231567,0.010864626616239548,0.061617493629455566,0.02873051166534424,0.6211293079439794,0.14353656633752981,-0.21783560682384154,-0.7390151213677688,0.5239188316504024,-0.06756393757719827,-1.7255856920262107
1773075911549939968,1.2648859024047852,0.46553492546081543,-0.7236055731773376,1.0138416290283203,-0.06947414577007294,-0.5028760433197021,-0.8615620136260986,0.001069001853466034,0.06833624839782715,0.008000612258911133,0.6237100405710015,0.14101732046122373,-0.22211060380666822,-0.7360481684675346,0.5269229406810945,-0.08046333208036693,-1.713940235133568
1773075911559976704,1.2749228477478027,0.6578847169876099,-0.7396324872970581,1.076621174812317,-0.08101019263267517,-0.5069822072982788,-0.8581412434577942,0.008256286382675171,0.10421127080917358,0.01097327470779419,0.6263354117314324,0.1389500973707931,-0.22720532505300792,-0.7326489550090309,0.5316800903130079,-0.09412299988634378,-1.701292737732746
1773075911570014720,1.2849607467651367,0.8086473345756531,-0.7523200511932373,1.1609528064727783,-0.09313607215881348,-0.5122963786125183,-0.8537436127662659,0.025585420429706573,0.1410195231437683,0.028029441833496094,0.6290618025324675,0.1372294702692238,-0.23301562053451666,-0.728802567766095,0.5378566020323808,-0.10866168810212132,-1.6874664969151472
1773075911580051968,1.2949979305267334,0.9488796591758728,-0.7634485960006714,1.2619260549545288,-0.10586696863174438,-0.5186019539833069,-0.8484362959861755,0.040559351444244385,0.15609890222549438,0.04756349325180054,0.6319676532461873,0.13581417243564786,-0.23945012365600718,-0.724454934257633,0.5452150514109425,-0.12413731657930352,-1.6722090092797497
1773075911590088960,1.305034875869751,1.1297661066055298,-0.7369032502174377,1.3601583242416382,-0.11905410885810852,-0.5259016752243042,-0.8421719074249268,0.05576065927743912,0.1697310209274292,0.09056979417800903,0.6351016388589014,0.13480680459904418,-0.2464572157696808,-0.7195358516195395,0.5537748510148093,-0.1404349974339552,-1.6553244681441301
1773075911600126720,1.315072774887085,1.3102973699569702,-0.7557342052459717,1.4509879350662231,-0.13281269371509552,-0.5343847274780273,-0.8347417116165161,0.06250017881393433,0.18146419525146484,0.12172901630401611,0.6383837771582607,0.13424804007526508,-0.25417829906582895,-0.7140287150974804,0.5637796813407859,-0.15778378228776255,-1.636765081267485
1773075911610163712,1.3251097202301025,1.4869840145111084,-0.7719837427139282,1.5558671951293945,-0.14713533222675323,-0.5439746975898743,-0.8261008858680725,0.06228122115135193,0.19486886262893677,0.153935968875885,0.6418266138612153,0.1341556350448547,-0.26258676687033705,-0.7078905917051694,0.5751667488695695,-0.176259883917755,-1.6163532266963812
1773075911620201728,1.3351478576660156,1.6296792030334473,-0.8320701122283936,1.6923153400421143,-0.16274957358837128,-0.5542755126953125,-0.816266655921936,0.06542901694774628,0.2304534912109375,0.20936357975006104,0.6454379183078134,0.13414686391479044,-0.27179273927207687,-0.7011014128173866,0.5874922596046952,-0.19680207215028483,-1.5937184138896792
1773075911630238720,1.3451848030090332,1.7240939140319824,-0.9258376359939575,1.8446862697601318,-0.17977690696716309,-0.564943790435791,-0.805306613445282,0.07839752733707428,0.3032708168029785,0.284218966960907,0.6492778094343271,0.1341106451338422,-0.28171087945327283,-0.6936076369326258,0.600365100959556,-0.21963892397317825,-1.5685596310019183
1773075911640276992,1.3552229404449463,1.7374995946884155,-1.1317627429962158,2.016491413116455,-0.19903866946697235,-0.5751736164093018,-0.7934474945068359,0.11114804446697235,0.39345669746398926,0.35719871520996094,0.6533186802810174,0.13344822102372214,-0.292348813613291,-0.685491388358909,0.6128163729151931,-0.24578131012157015,-1.5407364025595234
1773075911650313728,1.3652598857879639,1.7120109796524048,-1.3386613130569458,2.161733388900757,-0.22101159393787384,-0.584436297416687,-0.780761182308197,0.13905663788318634,0.4693087339401245,0.4100489616394043,0.6574669240284228,0.1317735214075981,-0.3037353024252713,-0.6768440335744408,0.6241852147890062,-0.2758550295036704,-1.5103288779730937
1773075911660350720,1.3752968311309814,1.6413708925247192,-1.546891450881958,2.285810708999634,-0.24533046782016754,-0.592292070388794,-0.767465353012085,0.16474880278110504,0.5211403369903564,0.47019362449645996,0.6616308107813831,0.1290227305015438,-0.31562707489088127,-0.6678153808686199,0.6339005972860328,-0.30939743643648815,-1.4778870749784498
1773075911670388736,1.3853347301483154,1.4985096454620361,-1.7430315017700195,2.4067301750183105,-0.2719108462333679,-0.5982378125190735,-0.7537745833396912,0.16046065092086792,0.536668598651886,0.5015162229537964,0.6657731266457857,0.12500751186588055,-0.32785033193421215,-0.6585086113511118,0.6413001956281008,-0.3462037153331924,-1.4438152960367796
1773075911680425984,1.395371913909912,1.3660298585891724,-1.9464173316955566,2.526902437210083,-0.3005804419517517,-0.6018372774124146,-0.7398940920829773,0.12391418218612671,0.509933590888977,0.5042679309844971,0.6699048550251899,0.1196067849925855,-0.34021634844285303,-0.648979648831085,0.6457997229254893,-0.3858808686691141,-1.4085068190295047
1773075911690462720,1.4054088592529297,1.35282301902771,-2.1209449768066406,2.639666795730591,-0.3311852216720581,-0.6035992503166199,-0.7252478003501892,0.0715111792087555,0.4446941614151001,0.4853033423423767,0.6739163121188227,0.11309201147237548,-0.3529678311872222,-0.6391094023816254,0.648007767654601,-0.4283712097260495,-1.371945340877489
1773075911700500736,1.4154467582702637,1.374396800994873,-2.2188777923583984,2.746246576309204,-0.3631836771965027,-0.6040099263191223,-0.709415078163147,0.0020844340324401855,0.3490660786628723,0.438754677772522,0.67780610146365,0.10592007919087322,-0.36616034640176937,-0.628718225948716,0.6485229854622884,-0.47316029846924085,-1.3339662123805403
1773075911710537984,1.4254839420318604,1.4624202251434326,-2.2789413928985596,2.8668320178985596,-0.3960004448890686,-0.6032537817955017,-0.6922922134399414,-0.0681261420249939,0.2809118628501892,0.3927316665649414,0.6816468608228639,0.09845374533509915,-0.379685071280467,-0.6176597682286891,0.6475745412965594,-0.5195868914450186,-1.2944483445984483
1773075911720575744,1.4355218410491943,1.607499361038208,-2.395700454711914,3.0095622539520264,-0.42971259355545044,-0.6015872955322266,-0.6733793616294861,-0.12892690300941467,0.28093916177749634,0.37037038803100586,0.6854241847091276,0.09087105370924262,-0.39376740451265857,-0.605708913390771,0.6454867001083068,-0.5679949612256397,-1.252852506398697
1773075911730612736,1.445558786392212,1.7757089138031006,-2.5181233882904053,3.149664878845215,-0.4646497368812561,-0.5990091562271118,-0.6521415710449219,-0.159755140542984,0.3267161250114441,0.36356741189956665,0.6889927362491307,0.08309760002739873,-0.40868570262668047,-0.5927560993255068,0.6422631475767664,-0.6190649087571692,-1.2089420122251857
1773075911740651008,1.455596923828125,2.02288818359375,-2.5306944847106934,3.3147237300872803,-0.5002095699310303,-0.5955474376678467,-0.628580629825592,-0.16093844175338745,0.3873107433319092,0.3637338876724243,0.6924657985456538,0.07550958740927953,-0.42427347695792017,-0.5786030036488532,0.637946935720441,-0.6721602249432164,-1.1623935800690393
1773075911750687744,1.4656338691711426,2.3243768215179443,-2.7076916694641113,3.509969472885132,-0.5366912484169006,-0.5912002325057983,-0.6020337343215942,-0.1493285894393921,0.4406265616416931,0.36736881732940674,0.695787878024775,0.06818059018700409,-0.4408339070913139,-0.5629351471459035,0.6325462141824835,-0.7280788873255842,-1.112379046447753
1773075911760724736,1.4756708145141602,2.6484179496765137,-2.8904688358306885,3.6745409965515137,-0.574418306350708,-0.5857915282249451,-0.5717445611953735,-0.15792721509933472,0.46764278411865234,0.3432442545890808,0.6986670028190823,0.06097708009289326,-0.45870416558619914,-0.5456525150047934,0.6258563304829242,-0.7877309571640937,-1.0587575352154581
1773075911770762752,1.4857087135314941,3.022423505783081,-3.028249740600586,3.8173296451568604,-0.6128372550010681,-0.5792416930198669,-0.5375028848648071,-0.1908125877380371,0.475527822971344,0.3099638819694519,0.7009649761910998,0.054149255891809155,-0.47782466716921335,-0.5266871851657412,0.6177981578598107,-0.8507935694434906,-1.0015934919595086
1773075911780799744,1.4957458972930908,3.4201858043670654,-3.0781898498535156,3.943079710006714,-0.6511673927307129,-0.5713730454444885,-0.4995136857032776,-0.2592787742614746,0.475318968296051,0.2662678360939026,0.7027102492500855,0.048062906297658685,-0.4979288251175685,-0.505920124902571,0.6081778893021559,-0.9164376708211505,-0.9408505188083357
1773075911790837760,1.5057837963104248,3.820289134979248,-3.002810001373291,4.058018684387207,-0.6886279582977295,-0.5618410706520081,-0.4583953320980072,-0.363847017288208,0.46477991342544556,0.2128814458847046,0.7040390167177161,0.04304814349060214,-0.5186031168461984,-0.4832461774297057,0.5966096933300159,-0.9834877054669336,-0.8766079274725467
1773075911800874752,1.5158207416534424,4.186075210571289,-2.770402193069458,4.157081127166748,-0.724263072013855,-0.5502479672431946,-0.4155358672142029,-0.48537737131118774,0.4405525326728821,0.15050601959228516,0.7052535049491776,0.039462717385579056,-0.5391426097405987,-0.45867781826640774,0.5826611561937853,-1.0499124166945475,-0.8093671138389518
1773075911810912000,1.525857925415039,4.505346298217773,-2.4333105087280273,4.231435775756836,-0.7574704885482788,-0.5362257957458496,-0.37242481112480164,-0.6175294518470764,0.4007278084754944,0.08534601330757141,0.7066128176023446,0.03747062026136663,-0.5589128277364246,-0.43233159608932814,0.5659593089200395,-1.113835639682093,-0.7399153320310743
1773075911820949760,1.535895824432373,4.753283500671387,-2.0566799640655518,4.273240089416504,-0.7879574298858643,-0.5195472240447998,-0.3304448127746582,-0.7464816570281982,0.3441474437713623,0.029480457305908203,0.7082827687290829,0.03706901601506225,-0.5774110168106737,-0.4044229401991653,0.5463209436375773,-1.173704953261831,-0.6692344548789984
1773075911830986752,1.5459327697753906,4.933399677276611,-1.6639227867126465,4.31863260269165,-0.8157318234443665,-0.5000718832015991,-0.2907055914402008,-0.8492767214775085,0.2640641927719116,-0.017491459846496582,0.7103138791487854,0.0380494569398055,-0.5943058517133203,-0.3752426274203291,0.5236817928122678,-1.2284544668423651,-0.5984376760328188
1773075911841024768,1.5559709072113037,5.036264896392822,-1.3002830743789673,4.397182941436768,-0.8411731123924255,-0.47746336460113525,-0.2538829743862152,-0.9031811356544495,0.17070066928863525,-0.0369189977645874,0.7127363081809208,0.040030903935143546,-0.6094719378386452,-0.3448890667599805,0.49776548630221135,-1.2776705386482017,-0.5282159392753742
1773075911851061760,1.5660078525543213,5.02494478225708,-0.972319483757019,4.437227725982666,-0.8645125031471252,-0.4515717923641205,-0.2206830531358719,-0.9157456159591675,0.06268635392189026,-0.03279595077037811,0.7154997298854696,0.04252559112813104,-0.6227760819221936,-0.31369036165997444,0.4685262067424911,-1.3208649918727682,-0.4597710620667736
1773075911861098752,1.5760447978973389,4.915399074554443,-0.6718297004699707,4.370290756225586,-0.8855928182601929,-0.4231012165546417,-0.19160039722919464,-0.9048581719398499,-0.05468195676803589,-0.005741521716117859,0.7184052493457078,0.045278669526625896,-0.6341526999527763,-0.2823013736874029,0.43686526957361843,-1.3577275948713927,-0.39442428197781115
1773075911871137024,1.586082935333252,4.721818447113037,-0.3236358165740967,4.213088035583496,-0.9041186571121216,-0.3931487798690796,-0.1673419028520584,-0.9096325039863586,-0.15720519423484802,0.041823163628578186,0.7214289452266516,0.04824379563336967,-0.6434295486402395,-0.25141823105106686,0.4040536364439159,-1.387779057619429,-0.3331382742932649
1773075911881173760,1.5961198806762695,4.465559959411621,0.05994860827922821,3.998652935028076,-0.9199367761611938,-0.3627828359603882,-0.1486770659685135,-0.9472964406013489,-0.25849398970603943,0.09727026522159576,0.7247253337692235,0.05140637801317769,-0.6503989933253583,-0.22161152131507217,0.37125243738997354,-1.4105651987801728,-0.27644779687781773
1773075911891211776,1.6061577796936035,4.186642169952393,0.46184173226356506,3.7364792823791504,-0.9330812096595764,-0.3329601287841797,-0.13600358366966248,-0.9847501516342163,-0.3638629913330078,0.15828144550323486,0.7284611171489864,0.054778913425712665,-0.6549789912832005,-0.1932516310259446,0.33944109909526005,-1.426058087337055,-0.22436731217648
1773075911901248768,1.616194725036621,3.8746228218078613,0.8067522644996643,3.463027238845825,-0.9437529444694519,-0.3043844997882843,-0.1291525959968567,-0.9929841160774231,-0.4689919650554657,0.2173636555671692,0.7326846826072089,0.05827914091910157,-0.657287793416429,-0.16658154936454064,0.30929220772724936,-1.43479115162344,-0.17675356393601202
1773075911911285760,1.6262319087982178,3.5276620388031006,1.0407159328460693,3.193115472793579,-0.9522813558578491,-0.2774541974067688,-0.1271989345550537,-0.9544417858123779,-0.5600244998931885,0.2613389492034912,0.7372187868872419,0.061664563433129274,-0.6577218387609517,-0.14180284190927683,0.281143257064376,-1.438009477091962,-0.13358945296874372
1773075911921323776,1.6362698078155518,3.1326241493225098,1.1275217533111572,2.9183077812194824,-0.9590124487876892,-0.25238388776779175,-0.12883201241493225,-0.8650843501091003,-0.623958945274353,0.28557032346725464,0.7417747859192221,0.06465773492121307,-0.6568130389382731,-0.11910614502419618,0.25514311491143743,-1.4372575960070186,-0.0949765466899697
1773075911931360768,1.6463067531585693,2.7000792026519775,1.0744881629943848,2.5981626510620117,-0.9642418026924133,-0.2295386791229248,-0.13247545063495636,-0.7379981875419617,-0.6629784107208252,0.28382736444473267,0.7459707423235831,0.06705905392754591,-0.6551834520451,-0.09882002403591553,0.23160367424489345,-1.4342628841002174,-0.06123394111513964
1773075911941398784,1.6563448905944824,2.273120641708374,0.9237502217292786,2.2353715896606445,-0.9682227969169617,-0.20939277112483978,-0.1367454081773758,-0.5927055478096008,-0.6843907833099365,0.2607841491699219,0.7495164361213102,0.06887859211843667,-0.6533628666924465,-0.08122706604131492,0.21095392318410428,-1.4304908909844825,-0.03248227801907128
1773075911951435776,1.6663818359375,1.8747309446334839,0.7054634690284729,1.831328272819519,-0.9711982011795044,-0.19242826104164124,-0.14051805436611176,-0.45063090324401855,-0.6888125538825989,0.22706587612628937,0.7522234882902116,0.07030975585538975,-0.6517649201099781,-0.06647409234595517,0.19363605756589514,-1.4271081889106965,-0.008515122169404943
1773075911961472768,1.6764187812805176,1.5196658372879028,0.48660698533058167,1.3979520797729492,-0.9733757972717285,-0.17902112007141113,-0.14314599335193634,-0.32021844387054443,-0.6693370342254639,0.17967553436756134,0.754050463014109,0.07159886321574238,-0.6506155579781848,-0.05459660918610619,0.17999140635613564,-1.4247815603263876,0.011007514376438574
1773075911971510784,1.6864569187164307,1.2129663228988647,0.2778380811214447,0.9801867604255676,-0.9749246835708618,-0.16926030814647675,-0.14447450637817383,-0.21501672267913818,-0.6225182414054871,0.14017154276371002,0.7550955044381521,0.07293489067191222,-0.6499563434415602,-0.045475899423696925,0.1700791065359813,-1.4236765967347285,0.02651736702092617
1773075911981547776,1.6964938640594482,0.9515404105186462,0.10980817675590515,0.5934258699417114,-0.9759976863861084,-0.16293464601039886,-0.14450174570083618,-0.14225786924362183,-0.5527178049087524,0.11924852430820465,0.7554747975011459,0.07442856312565674,-0.6497765102900115,-0.03884168795513745,0.1636643145480444,-1.4238087063152356,0.038560751694220984
1773075911991585792,1.7065317630767822,0.7604348659515381,-0.02300739660859108,0.244429811835289,-0.9766404032707214,-0.15995316207408905,-0.14348739385604858,-0.09472501277923584,-0.47026538848876953,0.10991804301738739,0.7553534952431985,0.07626068178684278,-0.649954315191769,-0.034422122995036865,0.1606432016495899,-1.4249205751564893,0.04776306941581112
1773075912001622784,1.7165687084197998,0.635633647441864,-0.1148783341050148,-0.04996573552489281,-0.9769082069396973,-0.15994633734226227,-0.14166061580181122,-0.062337517738342285,-0.3914605379104614,0.11089889705181122,0.7548637214283371,0.07854614257519758,-0.6503846506392559,-0.03179892834441548,0.1606362896063929,-1.4267909502720288,0.054896665761167134
1773075912011660288,1.7266063690185547,0.5459240078926086,-0.18530483543872833,-0.27671340107917786,-0.9768614768981934,-0.1623854786157608,-0.1391858160495758,-0.04144906997680664,-0.340910404920578,0.11435975134372711,0.7540950694581308,0.08129196594113132,-0.6509982372283203,-0.030554413911177414,0.16310774258881927,-1.4292662818059132,0.06060091260487412
1773075912021698560,1.7366445064544678,0.4707862138748169,-0.23429220914840698,-0.4302791357040405,-0.9765743613243103,-0.16655804216861725,-0.13623881340026855,-0.019778788089752197,-0.32057881355285645,0.11388468742370605,0.7531264646087314,0.08432967237261768,-0.6517431231624697,-0.030331137155818286,0.16733790879244695,-1.432184085111071,0.06519235701205725
1773075912031735296,1.7466814517974854,0.4364655315876007,-0.26599207520484924,-0.5458843111991882,-0.9760907888412476,-0.1719491183757782,-0.1329672783613205,0.008302092552185059,-0.3116171658039093,0.11357331275939941,0.752020102405435,0.08758659745313019,-0.6525679639610062,-0.03081315454122256,0.1728079173189008,-1.4354054154542795,0.06905068642169887
1773075912041773312,1.7567193508148193,0.47288763523101807,-0.285290002822876,-0.6411079168319702,-0.9754170179367065,-0.17834557592868805,-0.12943917512893677,0.03327840566635132,-0.30544960498809814,0.10537606477737427,0.750809278861611,0.09117867844211772,-0.6534270125279652,-0.0317020696579745,0.17930481104666574,-1.4388657699113958,0.0727828805798433
1773075912051810560,1.766756534576416,0.6086561679840088,-0.26715973019599915,-0.7333230376243591,-0.9745141863822937,-0.1857743114233017,-0.12573769688606262,0.04931282997131348,-0.3018813133239746,0.09670020639896393,0.7495354331410634,0.09543524974616759,-0.6542348674493387,-0.032641269086140415,0.18685983666607345,-1.4424792175451313,0.07736510839825417
1773075912061847552,1.7767934799194336,0.5936732888221741,-0.27392977476119995,-0.7727726697921753,-0.9734144806861877,-0.19393858313560486,-0.12186994403600693,0.06411266326904297,-0.29635685682296753,0.09664720296859741,0.7482010960028619,0.10017235817024263,-0.6550042173815551,-0.03361844564937395,0.19517537550134978,-1.4462459754478316,0.08257985079460065
1773075912071885312,1.7868313789367676,0.5211106538772583,-0.25120022892951965,-0.7315554618835449,-0.9722248315811157,-0.20200973749160767,-0.11819978058338165,0.08221006393432617,-0.2916884422302246,0.09953825175762177,0.7469216636087765,0.10471599349632467,-0.6556940368378326,-0.03475740527043271,0.20340952889209019,-1.449813482814761,0.08730980696736351
1773075912081922560,1.7968685626983643,0.44483649730682373,-0.24280567467212677,-0.6558037400245667,-0.9710806012153625,-0.20937354862689972,-0.11473959684371948,0.11606961488723755,-0.308219850063324,0.13422507047653198,0.7457080371962516,0.10878139644074881,-0.6563511332903288,-0.035907020864436714,0.21093426718135028,-1.4531850134513362,0.09139535601274218
1773075912091960320,1.8069064617156982,0.3529859185218811,-0.2451511174440384,-0.5792719125747681,-0.9700333476066589,-0.2158827930688858,-0.11148989200592041,0.15506142377853394,-0.3410935401916504,0.1559540033340454,0.7445618742900774,0.11228144264364132,-0.6569991870485923,-0.03704862416455299,0.21759585396191658,-1.4563643585900414,0.09474000573316595
1773075912101997312,1.8169434070587158,0.27129247784614563,-0.2933276891708374,-0.47824332118034363,-0.9691563844680786,-0.22146691381931305,-0.10811259597539902,0.1824285387992859,-0.35954201221466064,0.139576256275177,0.7433692678697171,0.11516865441367895,-0.6577840701958765,-0.038189759322743815,0.22331847546810202,-1.4597023289224411,0.09729982971457177
1773075912112034304,1.8269803524017334,0.2346828132867813,-0.30697426199913025,-0.3560870289802551,-0.9685255885124207,-0.22590799629688263,-0.1045166552066803,0.19946736097335815,-0.34368735551834106,0.1377044916152954,0.7421098018464272,0.1174703474963073,-0.6587430373378327,-0.03913225541447076,0.22787502557431658,-1.4632991543620326,0.09941411871091879
1773075912122072576,1.8370184898376465,0.22605586051940918,-0.31208834052085876,-0.2335675209760666,-0.9681530594825745,-0.22913485765457153,-0.10088039189577103,0.22111332416534424,-0.30165737867355347,0.12712550163269043,0.7408537886084126,0.11928848672362151,-0.6597954696863149,-0.039697303060888985,0.23118879929210875,-1.466972197403201,0.10146097248678985
1773075912132109312,1.847055435180664,0.22234579920768738,-0.3080669641494751,-0.12299492955207825,-0.9680272340774536,-0.23123079538345337,-0.09723871946334839,0.23641419410705566,-0.25889670848846436,0.10987301170825958,0.7396158344486824,0.12071275716973458,-0.6609153290032015,-0.03984523772679034,0.2333425680069549,-1.4706817597448538,0.10360967327306447
1773075912142147328,1.857093334197998,0.19766029715538025,-0.3105928301811218,-0.02870878390967846,-0.968130886554718,-0.23224996030330658,-0.09371490031480789,0.24513894319534302,-0.22764992713928223,0.0979263186454773,0.738435006796953,0.12172019218414372,-0.6620624929632746,-0.03963754297322319,0.23439026158953447,-1.4742971557772495,0.10571533169345963
1773075912152184576,1.8671305179595947,0.13323763012886047,-0.3425891101360321,0.05698162317276001,-0.9684539437294006,-0.2323114573955536,-0.09015724062919617,0.26271969079971313,-0.2113988697528839,0.08591526746749878,0.7372507464131443,0.12224630242146195,-0.6633077867825118,-0.03924203512246379,0.23445347806401914,-1.4779698774723917,0.1074521441831179
1773075912162222336,1.8771684169769287,0.05705946311354637,-0.39682161808013916,0.13722093403339386,-0.9689980745315552,-0.23149071633815765,-0.08633943647146225,0.2884562015533447,-0.20510895550251007,0.07706213742494583,0.7359782293540592,0.12222034645507725,-0.6647499299164424,-0.038802330509043796,0.23360974841391074,-1.4819292460960967,0.10853178893783269
1773075912172253440,1.8871994018554688,-0.008274534717202187,-0.4667581021785736,0.20481862127780914,-0.9697551727294922,-0.22987000644207,-0.08206404000520706,0.31770145893096924,-0.2040593922138214,0.06770551949739456,0.7345476296148247,0.12166359022746645,-0.6664577625999145,-0.0383629692148155,0.23194410464960966,-1.4863739993155494,0.10893512788110855
1773075912182290432,1.8972363471984863,-0.052857138216495514,-0.5521354675292969,0.2720542550086975,-0.9707067012786865,-0.2275349646806717,-0.07717885822057724,0.347720742225647,-0.1977885663509369,0.04861437529325485,0.7329071449884665,0.12065701419682444,-0.6684702349149078,-0.03790310453892553,0.2295455013953267,-1.4914553195856073,0.10881556247338214
1773075912192327424,1.907273530960083,-0.09513935446739197,-0.6472353339195251,0.320952832698822,-0.9718185067176819,-0.2246222347021103,-0.07151012867689133,0.3568740487098694,-0.18387079238891602,0.02173597365617752,0.7309947854931642,0.11928356008055811,-0.6708325919751758,-0.037439229426889986,0.22655534362587865,-1.4973448698329648,0.108275761135679
1773075912202365440,1.917311429977417,-0.13829217851161957,-0.7482672333717346,0.38675007224082947,-0.9730833172798157,-0.22111327946186066,-0.06494396924972534,0.33592212200164795,-0.17930784821510315,0.0026270821690559387,0.7287701808472242,0.11754243088633012,-0.6735813181896119,-0.03695949110641152,0.22295586096280573,-1.5041547583207178,0.10733648866546276
1773075912212402432,1.9273483753204346,-0.2057732194662094,-0.8340146541595459,0.4528563916683197,-0.9744918942451477,-0.21691633760929108,-0.057558417320251465,0.2955520749092102,-0.19031022489070892,-0.015668511390686035,0.7262569293059262,0.11535657847126411,-0.6766931729093468,-0.03647097164582952,0.21865448774312274,-1.5117998120181626,0.10586085869082279
1773075912222440448,1.9373865127563477,-0.31109529733657837,-0.8895404934883118,0.526252031326294,-0.9760143756866455,-0.21197454631328583,-0.0496242493391037,0.23817574977874756,-0.2169347107410431,-0.03201024979352951,0.7235417152877038,0.11260138051667808,-0.680079998782202,-0.036047933999576454,0.21359498310064656,-1.5199963040440623,0.10352472541047282
1773075912232477440,1.9474234580993652,-0.4324060082435608,-0.9191343188285828,0.5938462615013123,-0.97760409116745,-0.20631776750087738,-0.041512493044137955,0.16930025815963745,-0.2541314363479614,-0.05553334951400757,0.7207463671165478,0.10918169103242796,-0.6836103503302737,-0.0357902408621635,0.2078102642503239,-1.5283583179157612,0.09999855284433717
1773075912242514432,1.9574604034423828,-0.6008305549621582,-0.9292508363723755,0.6540206670761108,-0.9792245626449585,-0.1999969780445099,-0.03347920626401901,0.10095906257629395,-0.2973327934741974,-0.07848978042602539,0.7179540048652855,0.10501393087142039,-0.6871917282700786,-0.03580270075052115,0.20135484268342885,-1.5366201305547222,0.09497877856268375
1773075912252552448,1.967498540878296,-0.8006176948547363,-0.9321544766426086,0.6973532438278198,-0.9808361530303955,-0.19313670694828033,-0.025662396103143692,0.04368716478347778,-0.33864736557006836,-0.09384441375732422,0.7152035896993019,0.09999794131889342,-0.6907743583086345,-0.036262880508939214,0.19435804764257364,-1.5446385007924406,0.08805076528340872
1773075912262589440,1.9775354862213135,-1.044992208480835,-0.9080058932304382,0.7151046395301819,-0.9823819994926453,-0.18598081171512604,-0.018351007252931595,-0.00028401613235473633,-0.38260746002197266,-0.11232525110244751,0.712585187084896,0.09407165141373168,-0.6942442084944731,-0.03738790742501623,0.18706999086207157,-1.5521183860386727,0.07878790939041418
1773075912272627456,1.9875733852386475,-1.2991496324539185,-0.8575179576873779,0.678934633731842,-0.9837932586669922,-0.17892108857631683,-0.011750719510018826,-0.04451179504394531,-0.433536171913147,-0.1326889991760254,0.7101573148774043,0.08728044493466189,-0.6975003685990013,-0.03939452930464482,0.17988973646448406,-1.5588525968447269,0.06693288533424041
1773075912282664192,1.997610330581665,-1.5661418437957764,-0.7783016562461853,0.6040569543838501,-0.9849967956542969,-0.17246113717556,-0.006190747022628784,-0.08067691326141357,-0.4887326955795288,-0.1508222222328186,0.7080186701936466,0.0797654370649868,-0.700387108387367,-0.04248386730336898,0.17332770668809458,-1.5645113669503896,0.052383111164734486
1773075912292701440,2.0076475143432617,-1.8535611629486084,-0.6963948607444763,0.509848952293396,-0.9859746694564819,-0.16688469052314758,-0.0018161465413868427,-0.11154413223266602,-0.53208988904953,-0.15652430057525635,0.7061989981544406,0.0715727444209619,-0.7028294736276819,-0.04680757862629091,0.1676692019126953,-1.5689543479317576,0.03499371697486065
1773075912302739456,2.0176854133605957,-2.1164166927337646,-0.6269895434379578,0.3967760503292084,-0.9867198467254639,-0.16242478787899017,0.0014449356822296977,-0.12622565031051636,-0.5518238544464111,-0.14034569263458252,0.7046456180942253,0.06277911151401708,-0.70482710717111,-0.05246019931965966,0.16314758364384013,-1.5722607086557565,0.01476169053424776
1773075912312776448,2.0277223587036133,-2.3069369792938232,-0.562118411064148,0.25376591086387634,-0.9872258901596069,-0.15928274393081665,0.0037307890597730875,-0.1265893578529358,-0.5423926115036011,-0.12116241455078125,0.7032868577064063,0.05363211266573266,-0.7063915280962783,-0.05934755780101231,0.15996407874183893,-1.5745753719371798,-0.00780591112472151
1773075912322814464,2.0377604961395264,-2.406144142150879,-0.48809999227523804,0.06931418180465698,-0.9874518513679504,-0.1578347533941269,0.005191502161324024,-0.12737047672271729,-0.5107138156890869,-0.10210001468658447,0.7020495188839663,0.044573660252269345,-0.7075372357618092,-0.06731017908122412,0.1584975316095573,-1.5760537523894735,-0.03183951195891376
1773075912332851456,2.047797441482544,-2.4069578647613525,-0.3993637263774872,-0.11682799458503723,-0.987378716468811,-0.1582721471786499,0.005772733129560947,-0.13716351985931396,-0.4673839807510376,-0.09160339832305908,0.7009469809995608,0.036036060083639306,-0.7082286133974015,-0.07607247810142315,0.15894049628293186,-1.5766427837611912,-0.0563415938569427
1773075912342888448,2.0578343868255615,-2.359931468963623,-0.30198055505752563,-0.3042491376399994,-0.9870109558105469,-0.16056093573570251,0.005432576406747103,-0.14302438497543335,-0.416450172662735,-0.0852971076965332,0.6999962048505443,0.028278828467765273,-0.7084607230920854,-0.08537579055682337,0.16125893380665723,-1.5763003402837041,-0.08058820705451104
1773075912352926464,2.0678725242614746,-2.28035044670105,-0.21708698570728302,-0.502165675163269,-0.9863272905349731,-0.164745032787323,0.0041798073798418045,-0.13951188325881958,-0.3584788143634796,-0.06988418102264404,0.6991885077033712,0.021470203055312744,-0.708257674952528,-0.09510775679695066,0.16549950954906992,-1.575034050446196,-0.10419315173209574
1773075912362963456,2.077909469604492,-2.1935319900512695,-0.15846174955368042,-0.7043108344078064,-0.9852838516235352,-0.17091187834739685,0.002245977520942688,-0.12982845306396484,-0.30731385946273804,-0.05975639820098877,0.6984294302332438,0.01572348388153665,-0.7077257666657852,-0.10523030017784331,0.1717550899381808,-1.5730758461863583,-0.12693941597771735
1773075912373001216,2.087947368621826,-2.081515312194824,-0.11381972581148148,-0.9024180173873901,-0.983847975730896,-0.17900584638118744,-0.00018009053019341081,-0.122994065284729,-0.26659655570983887,-0.054797351360321045,0.6976407301818544,0.01104465242251471,-0.706956837714292,-0.11570398105964094,0.17997587676695292,-1.5706132796868308,-0.14876556084218678
1773075912383038464,2.097984552383423,-1.9238673448562622,-0.04939546063542366,-1.0852102041244507,-0.9819685220718384,-0.18901944160461426,-0.0030857068486511707,-0.13381516933441162,-0.23534274101257324,-0.0591854453086853,0.6968282080411186,0.007584012317214315,-0.7059742412806975,-0.126385588763669,0.1901634975092074,-1.5676539687469209,-0.16927397356852336
1773075912393076480,2.108022451400757,-1.7128477096557617,0.057797838002443314,-1.2479826211929321,-0.9796091914176941,-0.20079950988292694,-0.006723168306052685,-0.16422003507614136,-0.20793764293193817,-0.06889939308166504,0.6961157341938745,0.005481364140766844,-0.7047044560601787,-0.13705616282502428,0.2021739802160466,-1.563933321745096,-0.18800053003818873
1773075912403113472,2.1180593967437744,-1.4749250411987305,0.19428323209285736,-1.4043372869491577,-0.9767192602157593,-0.21421799063682556,-0.011404206976294518,-0.20408207178115845,-0.17620864510536194,-0.07380086183547974,0.6956572023591405,0.004877748689814438,-0.7030463030208128,-0.14752335799194888,0.21589115913316506,-1.5591208241933927,-0.2045308132978552
1773075912413150208,2.128096342086792,-1.2585771083831787,0.299645334482193,-1.5359547138214111,-0.973331093788147,-0.2287767082452774,-0.016962984576821327,-0.22990065813064575,-0.1431104689836502,-0.07420825958251953,0.6954480635104309,0.005623262033999047,-0.7010612572900774,-0.15758633008583717,0.23082088501562345,-1.553370326503245,-0.21879994428839009
1773075912423188480,2.138134479522705,-1.0789958238601685,0.39157193899154663,-1.6312705278396606,-0.9694608449935913,-0.24415172636508942,-0.023145413026213646,-0.2335573434829712,-0.11764943599700928,-0.06898719072341919,0.695410858748229,0.007459308959469183,-0.6988359262661008,-0.16726183896974228,0.2466448571183647,-1.5469263404552802,-0.2311942798639376
1773075912433225472,2.1481714248657227,-0.9585021734237671,0.4657076895236969,-1.7334370613098145,-0.9650653004646301,-0.26029717922210693,-0.029907245188951492,-0.22016119956970215,-0.10196173191070557,-0.055999755859375,0.6955073000858338,0.010205356476342384,-0.6963779348233944,-0.17670101281980546,0.26332997248445905,-1.5398163741858106,-0.24220930586299627
1773075912443263488,2.1582095623016357,-0.8377220630645752,0.5264587998390198,-1.8673827648162842,-0.9600244164466858,-0.2774369716644287,-0.037174075841903687,-0.2155584692955017,-0.07960343360900879,-0.024715542793273926,0.6956622420968043,0.01380821394698083,-0.6937018780616468,-0.1861212035364058,0.2811253145532954,-1.5320936519660668,-0.2522625972311167
1773075912453300480,2.1682465076446533,-0.6198161244392395,0.5906804203987122,-1.9851943254470825,-0.9542310237884521,-0.295723557472229,-0.04462007060647011,-0.2278674840927124,-0.047934919595718384,-0.004696372896432877,0.6957983659582803,0.01849748268607163,-0.6909036170075474,-0.19538364089796648,0.3002128725259171,-1.524070123414745,-0.2608157861388602
1773075912463337472,2.178283452987671,-0.3771154284477234,0.6712170243263245,-2.0566203594207764,-0.947708010673523,-0.31484371423721313,-0.05218326672911644,-0.23817455768585205,-0.012762516736984253,-0.01907527446746826,0.6960111291114619,0.024425030110349594,-0.6879765875171848,-0.20410834117903842,0.32029198074475684,-1.5157892754411804,-0.2671033785147233
1773075912473375232,2.188321352005005,-0.24010536074638367,0.7268749475479126,-2.0893542766571045,-0.9405398368835449,-0.3343743681907654,-0.0598202683031559,-0.2337459921836853,0.013222664594650269,-0.024713393300771713,0.6963009250961741,0.03126956172059526,-0.6849175725538909,-0.21230899373486858,0.3409413122164308,-1.5072798270786643,-0.27159596660067686
1773075912483412480,2.1983585357666016,-0.16966688632965088,0.7538671493530273,-2.11897611618042,-0.9327806830406189,-0.35406771302223206,-0.06749969720840454,-0.2216077446937561,0.035250574350357056,0.010065615177154541,0.6965903268188954,0.03858707834363824,-0.6817339567716201,-0.22025376173321393,0.3619170095016519,-1.4985582872679457,-0.2753166176214236
1773075912493450496,2.2083964347839355,-0.10050858557224274,0.7879577875137329,-2.134158134460449,-0.9244394898414612,-0.37384361028671265,-0.07518506050109863,-0.2090139389038086,0.05702534317970276,0.04764294624328613,0.6968520623531526,0.04625220629545324,-0.6784306911302205,-0.22801276228080444,0.383149659880948,-1.4896445098658184,-0.27854962166769526
1773075912503487232,2.218433380126953,-0.029716532677412033,0.8226462602615356,-2.1193442344665527,-0.9155946373939514,-0.3934709429740906,-0.08286988735198975,-0.2033325433731079,0.07328042387962341,0.059569768607616425,0.6971264178858896,0.05420468463372853,-0.6750014123281017,-0.2354779611467287,0.4044040462957954,-1.480532899275646,-0.28121730861508715
1773075912513524480,2.22847056388855,0.033513836562633514,0.8681535124778748,-2.0927011966705322,-0.9063209295272827,-0.4127681851387024,-0.09058088064193726,-0.19762194156646729,0.09288290143013,0.08060163259506226,0.6974460627594942,0.06235324879507876,-0.6714325226244348,-0.24260972536118078,0.4254911356201777,-1.4711836217251872,-0.2833918951913507
1773075912523562496,2.238508462905884,0.08911655843257904,0.9139460921287537,-2.0486979484558105,-0.8966879844665527,-0.4315931797027588,-0.09837830811738968,-0.18871557712554932,0.12145820260047913,0.10986821353435516,0.697860702210562,0.07064498762364545,-0.6676976340424291,-0.24935872997122913,0.4462581837950025,-1.4615203987138097,-0.28508442848794857
1773075912533599488,2.2485454082489014,0.14304769039154053,0.9482331871986389,-1.9872201681137085,-0.8867815136909485,-0.4498177170753479,-0.1062200516462326,-0.174116313457489,0.1493721306324005,0.1358221173286438,0.6983729452821096,0.07899476563887743,-0.6638145836914087,-0.25570550626430505,0.4665612157118687,-1.451582768070842,-0.2863681591031084
1773075912543637504,2.2585835456848145,0.1806844174861908,0.958351194858551,-1.9046626091003418,-0.8767542243003845,-0.46725088357925415,-0.11392484605312347,-0.14930784702301025,0.17191702127456665,0.1586635708808899,0.6989472210583844,0.08728014741669148,-0.6598634348769129,-0.2616014507057307,0.4861788073757734,-1.4415809930006969,-0.2872719149811399
1773075912553674496,2.268620491027832,0.20126479864120483,0.9602422714233398,-1.800788402557373,-0.8667650818824768,-0.48371440172195435,-0.1214018166065216,-0.11442065238952637,0.1884722113609314,0.17946156859397888,0.6995670216252644,0.0953588352341742,-0.6559007421366118,-0.267033250406823,0.5048937004464654,-1.4316384858939062,-0.2879148259854053
1773075912563711488,2.2786574363708496,0.2089119404554367,0.9523400664329529,-1.6880428791046143,-0.8569477796554565,-0.499085932970047,-0.1286606341600418,-0.0821695327758789,0.20338588953018188,0.20080424845218658,0.7002410961266573,0.10311076860734904,-0.6519492692257214,-0.27201589209099747,0.5225436074433226,-1.421771179223994,-0.28845263410590577
1773075912573749248,2.2886953353881836,0.20324526727199554,0.9251830577850342,-1.5713807344436646,-0.8473982810974121,-0.513340413570404,-0.13563838601112366,-0.05393838882446289,0.21702998876571655,0.21837157011032104,0.7009438753581398,0.1104654647033038,-0.6480572427844831,-0.2765806869589483,0.5390726990479374,-1.4120781751979192,-0.288977790538427
1773075912583786496,2.2987325191497803,0.1781403124332428,0.8856232166290283,-1.4466862678527832,-0.8382436037063599,-0.5263988971710205,-0.14230820536613464,-0.028241872787475586,0.22899001836776733,0.23126694560050964,0.7016586169489615,0.11730867550787838,-0.6442705722099491,-0.2807652921252129,0.5543596010687866,-1.4026301875702083,-0.2896543336715476
1773075912593824512,2.3087704181671143,0.1395559012889862,0.8434025645256042,-1.3271242380142212,-0.8295586109161377,-0.5382600426673889,-0.14868921041488647,-0.007645308971405029,0.24223965406417847,0.23625941574573517,0.7023779086572867,0.1235766964911897,-0.640612358361019,-0.2846221857624353,0.568371220638564,-1.3934406512577535,-0.2906200349492099
1773075912603861248,2.318807363510132,0.0937204509973526,0.8142988681793213,-1.2017208337783813,-0.8213809132575989,-0.5489386916160583,-0.15491801500320435,-0.0007015466690063477,0.24881362915039062,0.23577435314655304,0.7031399855315363,0.1292451556812194,-0.6370531235052744,-0.2881893218504548,0.581093988373491,-1.3843793904769552,-0.29198076146113516
1773075912613898496,2.3288445472717285,0.04240826144814491,0.8133678436279297,-1.0824463367462158,-0.8137325644493103,-0.5584414601325989,-0.16119123995304108,-0.004779398441314697,0.2541964054107666,0.23862963914871216,0.7040150678106507,0.13431661800951908,-0.6335324970619638,-0.29147643998283995,0.5925057932525138,-1.3752392148991417,-0.2937884896704728
1773075912623936512,2.3388824462890625,-0.0005435554776340723,0.8135315775871277,-0.958909273147583,-0.806621253490448,-0.5667825937271118,-0.16768981516361237,-0.012607932090759277,0.26131677627563477,0.24949215352535248,0.7050764611737479,0.13882087467571877,-0.6299871905995069,-0.2944694117560561,0.6025953170551195,-1.3658243079387258,-0.2960214446834601
1773075912633973248,2.34891939163208,-0.046609584242105484,0.8019577860832214,-0.8359255790710449,-0.8000789880752563,-0.5740035176277161,-0.1743382215499878,-0.014893054962158203,0.2689344882965088,0.2583836317062378,0.7063036370335666,0.14277723626295552,-0.6264547476481417,-0.29716063130481524,0.6113867296239242,-1.3562487507105163,-0.2985900037960841
1773075912644011520,2.358957529067993,-0.09273788332939148,0.7756264209747314,-0.7191620469093323,-0.7941535115242004,-0.5801213979721069,-0.18105091154575348,-0.008840322494506836,0.27982836961746216,0.2706962823867798,0.707661223592701,0.14616325415158235,-0.6229854285946645,-0.29956821044420934,0.6188777190227476,-1.3466475389723818,-0.3014915351412156
1773075912654048512,2.3689944744110107,-0.12845806777477264,0.7387118339538574,-0.5927143096923828,-0.78890061378479,-0.5851521492004395,-0.18770451843738556,0.0010129809379577637,0.2872089743614197,0.2835449278354645,0.7091085298297319,0.14896976462868872,-0.6196416275199723,-0.30169108007115236,0.6250676895109467,-1.3372078470748525,-0.3046546941361726
1773075912664085504,2.3790314197540283,-0.1618572622537613,0.702921986579895,-0.4781058728694916,-0.7843507528305054,-0.5891231298446655,-0.19423694908618927,0.0032989978790283203,0.29206496477127075,0.29084035754203796,0.7106322516370089,0.1512170134853801,-0.6164535199129443,-0.3035133625604702,0.6299732400305715,-1.328039675766265,-0.30796780203525104
1773075912674123520,2.3890695571899414,-0.18691706657409668,0.6882932186126709,-0.3572303354740143,-0.7804737091064453,-0.5920946002006531,-0.2007109671831131,-0.009580612182617188,0.2941667437553406,0.3013579845428467,0.7122605939631496,0.15296060428957853,-0.613390226252418,-0.3050252135259623,0.633655539156292,-1.3190850438580495,-0.31134063719474536
1773075912684160512,2.399106502532959,-0.18594443798065186,0.6936784982681274,-0.2546830475330353,-0.7772190570831299,-0.5941372513771057,-0.20719914138317108,-0.03131365776062012,0.2922573685646057,0.314697265625,0.7140490421443391,0.15431607919223558,-0.610399033862988,-0.30615934818653867,0.6361926210786465,-1.3102651500026725,-0.3145184477357671
1773075912694198272,2.409144401550293,-0.16898863017559052,0.6891764402389526,-0.15032683312892914,-0.7745127081871033,-0.5953916311264038,-0.2136325091123581,-0.05327653884887695,0.2926420569419861,0.3247165083885193,0.7159782752217284,0.15538871673752008,-0.6074850528989657,-0.30690611507618193,0.6377530246594851,-1.301660225488009,-0.3173126692847192
1773075912704235264,2.4191813468933105,-0.1374053955078125,0.6743264198303223,-0.050710223615169525,-0.7723692059516907,-0.5959360003471375,-0.21978648006916046,-0.06587237119674683,0.2932932376861572,0.33364754915237427,0.717987787070637,0.15624392485840433,-0.6047268789158339,-0.3072242507148385,0.6384307081935998,-1.2935628435125353,-0.3194618167042719
1773075912714272512,2.4292185306549072,-0.09858769923448563,0.6492000222206116,0.04591911658644676,-0.7708016633987427,-0.5958297848701477,-0.22550344467163086,-0.07017123699188232,0.2937973141670227,0.33995962142944336,0.720025976910553,0.1569107648771235,-0.6021854268582567,-0.3071065185690222,0.6382984774247759,-1.286181853075107,-0.3208380596051184
1773075912724310272,2.439256429672241,-0.04423466697335243,0.6199706196784973,0.14830633997917175,-0.7698902487754822,-0.5950151085853577,-0.2307075560092926,-0.07572132349014282,0.29247909784317017,0.34859699010849,0.7220955005839943,0.15738865513007702,-0.5998958510869691,-0.30648306101194633,0.6372844523655238,-1.2796488207125531,-0.321264846328275
1773075912734347264,2.449293375015259,0.019396241754293442,0.5923030376434326,0.24133694171905518,-0.7696181535720825,-0.5935178399085999,-0.2354239672422409,-0.08580482006072998,0.28895241022109985,0.3570975661277771,0.7242081219381644,0.15770511120834965,-0.5978437205643117,-0.30534332600052716,0.6354227742886716,-1.2739381595644945,-0.32069185319237775
1773075912744385536,2.459331512451172,0.0918060839176178,0.5698491334915161,0.3309057056903839,-0.7699338793754578,-0.5914595723152161,-0.23953574895858765,-0.10228902101516724,0.28311002254486084,0.36590903997421265,0.7263238856533695,0.15794447686733273,-0.5960584428868757,-0.30367984965988165,0.6328677696765403,-1.2691763668820364,-0.3189623733278938
1773075912754422528,2.4693684577941895,0.16902577877044678,0.5500922203063965,0.4159548282623291,-0.7707895636558533,-0.5889018774032593,-0.24305953085422516,-0.12171220779418945,0.27663081884384155,0.37155377864837646,0.7284477808730001,0.15816006237045316,-0.5945213451473866,-0.3014855304347168,0.6296994257939195,-1.2653277019097962,-0.3160136373181491
1773075912764460288,2.4794063568115234,0.2548072040081024,0.5280765295028687,0.49727964401245117,-0.7721648216247559,-0.585890531539917,-0.24595491588115692,-0.13445138931274414,0.270125150680542,0.37927091121673584,0.7305664002903869,0.15839214630094825,-0.5932406492016753,-0.2987476973278402,0.6259784950804383,-1.2624306163906793,-0.3117681539381587
1773075912774497536,2.48944354057312,0.33041250705718994,0.49521979689598083,0.5773217082023621,-0.7740596532821655,-0.5824512839317322,-0.2481570690870285,-0.14117765426635742,0.26229143142700195,0.3875766694545746,0.7326444226210777,0.15864016384447163,-0.5922455236072126,-0.29548356587403,0.6217410728694079,-1.2605567581121764,-0.30624218658998625
1773075912784534528,2.4994804859161377,0.39293351769447327,0.4641360342502594,0.6495505571365356,-0.7764365077018738,-0.57858806848526,-0.2497646063566208,-0.14275294542312622,0.25464391708374023,0.3911678194999695,0.734679065851268,0.15885913850885136,-0.5915077955194407,-0.291768829442366,0.6169964775206566,-1.2595695823832955,-0.29967645834352197
1773075912794572288,2.5095183849334717,0.45452097058296204,0.42343494296073914,0.7254540920257568,-0.7793093919754028,-0.5742775201797485,-0.2507631480693817,-0.13698089122772217,0.2414223551750183,0.3982851803302765,0.7366568605154016,0.15903102209257156,-0.5910393941008892,-0.2876076537864348,0.6117213279893952,-1.2594830842061997,-0.29210558049623203
1773075912804609536,2.5195555686950684,0.5042809247970581,0.3378126919269562,0.7970547676086426,-0.7827198505401611,-0.5695303082466125,-0.25096824765205383,-0.12717705965042114,0.22736716270446777,0.40433433651924133,0.7384883071785125,0.1591085956956032,-0.5909317482564047,-0.28305355041503033,0.6059343512955591,-1.2605164729657972,-0.2836257336432476
1773075912814647552,2.5295934677124023,0.5303156971931458,0.24326837062835693,0.8756271004676819,-0.7867549061775208,-0.5642542839050293,-0.25026771426200867,-0.11987656354904175,0.2164149284362793,0.4099966883659363,0.7401028296900871,0.1589660225339844,-0.5912663945630197,-0.2781756800821438,0.599529716246682,-1.262816718793929,-0.2744780487067887
1773075912824684288,2.53963041305542,0.5313404202461243,0.17340806126594543,0.9543106555938721,-0.7913995981216431,-0.558346152305603,-0.24886980652809143,-0.13203173875808716,0.2045406699180603,0.4183797240257263,0.741549245010896,0.1585223071245196,-0.5919761618414235,-0.27301939475411485,0.5923909171915053,-1.2661196139451314,-0.26493724115265394
1773075912834721280,2.5496673583984375,0.5184996724128723,0.11958210915327072,1.0202690362930298,-0.7965593934059143,-0.5517770648002625,-0.24705274403095245,-0.16179931163787842,0.189838707447052,0.42204052209854126,0.7428926310755184,0.15774121129635885,-0.5929513807616965,-0.26765055070450994,0.5844935693486216,-1.2700539862473437,-0.25529114460787694
1773075912844759552,2.5597054958343506,0.4939698278903961,0.06682822108268738,1.0916234254837036,-0.8021506667137146,-0.5445516109466553,-0.24498528242111206,-0.19357681274414062,0.16964322328567505,0.42082756757736206,0.7441693863320401,0.15661436155526667,-0.5941206101812804,-0.2621154512836064,0.5758544147458735,-1.2743831316562657,-0.24571574040788707
1773075912854796288,2.569742441177368,0.44553038477897644,-0.002333009848371148,1.1628118753433228,-0.8081953525543213,-0.536592423915863,-0.24267001450061798,-0.21296852827072144,0.14523500204086304,0.41922950744628906,0.74535980837886,0.15505443407452468,-0.5955024040810991,-0.2564639196535207,0.5663937583057026,-1.2790995716420244,-0.23641697147755497
1773075912864834304,2.579780340194702,0.37800055742263794,-0.08864565938711166,1.2412538528442383,-0.814738929271698,-0.5278066992759705,-0.24004274606704712,-0.215565025806427,0.12534093856811523,0.4199286103248596,0.746418809739558,0.15294745430983922,-0.5971479769401348,-0.2507594614812494,0.5560162318317269,-1.2842776689142221,-0.22763379816008902
1773075912874871552,2.589817523956299,0.3017635643482208,-0.17662771046161652,1.3149762153625488,-0.8217682242393494,-0.5181310176849365,-0.23714417219161987,-0.21445614099502563,0.11252188682556152,0.4209057092666626,0.7473444231118663,0.150224781120477,-0.5990496060330409,-0.24504790068683546,0.5446643075196435,-1.2898511610568473,-0.21956164689470553
1773075912884908544,2.5998544692993164,0.2021757811307907,-0.283460795879364,1.380510926246643,-0.8292626738548279,-0.5075501799583435,-0.23391570150852203,-0.21379774808883667,0.09747010469436646,0.4182113707065582,0.7480977158545827,0.14683287764493771,-0.6012339447385497,-0.23939057299373714,0.5323391109404779,-1.2958629153100951,-0.21237343987499138
1773075912894946304,2.6098923683166504,0.07102441787719727,-0.3964632749557495,1.4399667978286743,-0.8371787071228027,-0.4960634708404541,-0.23033209145069122,-0.20972681045532227,0.0719912052154541,0.40930241346359253,0.748633876996419,0.14268207260281546,-0.6037182968547712,-0.2339089434035474,0.5190592120443502,-1.3023102491369725,-0.20640026007832155
1773075912904983552,2.619929552078247,-0.08632872253656387,-0.5158290863037109,1.486252784729004,-0.8454334139823914,-0.4836832582950592,-0.22647921741008759,-0.20369988679885864,0.04006451368331909,0.3979727625846863,0.748943712923297,0.13768305986256865,-0.6064682741658274,-0.22874201360714,0.5048581278410935,-1.309056514250089,-0.20203471368272258
1773075912915021312,2.629967451095581,-0.2648382782936096,-0.6561757922172546,1.522128939628601,-0.8539789319038391,-0.47044453024864197,-0.22226589918136597,-0.1969243884086609,0.00206071138381958,0.38629788160324097,0.7489701067269284,0.13176830857716973,-0.609511413956111,-0.22400193451227382,0.4897944559294392,-1.3161745059056627,-0.19953893291251004
1773075912925058304,2.6400043964385986,-0.4599480926990509,-0.803935706615448,1.5374736785888672,-0.8627298474311829,-0.4564449191093445,-0.2176126390695572,-0.19479578733444214,-0.03322488069534302,0.364310622215271,0.7486549300941522,0.12489346602074339,-0.612858306974188,-0.2198229955298385,0.4739954930725862,-1.3237131009215466,-0.199189040108226
1773075912935095296,2.650041341781616,-0.675304651260376,-0.9372162818908691,1.539124846458435,-0.8715739250183105,-0.44180434942245483,-0.21252721548080444,-0.19550371170043945,-0.062132418155670166,0.33685582876205444,0.7479817013781728,0.11705927132501505,-0.616468588797316,-0.21630295922742368,0.4576089636880298,-1.331620813973842,-0.20116713349603535
1773075912945133568,2.6600794792175293,-0.9045436978340149,-1.0683343410491943,1.5145262479782104,-0.8803718090057373,-0.4266955554485321,-0.20706647634506226,-0.20320063829421997,-0.08734259009361267,0.30395975708961487,0.7469412928789054,0.108275466059921,-0.62027670290073,-0.2135697945738243,0.4408358681129145,-1.3397915945534717,-0.20570195844744743
1773075912955170304,2.670116424560547,-1.1759799718856812,-1.1824605464935303,1.4787319898605347,-0.8890077471733093,-0.4112592935562134,-0.20132336020469666,-0.21095257997512817,-0.11448225378990173,0.26235848665237427,0.7455283244556281,0.09850356781575517,-0.6242077931269102,-0.2117763599986731,0.4238351824450149,-1.3480940974111808,-0.2131217928088369
1773075912965208576,2.68015456199646,-1.464748501777649,-1.2762964963912964,1.4127808809280396,-0.8973445296287537,-0.3956228792667389,-0.19558963179588318,-0.21541792154312134,-0.1490701138973236,0.22658026218414307,0.7438046371141509,0.08771063940514046,-0.6281019249077411,-0.2110674216822588,0.4067459527017588,-1.3561879756064659,-0.22377105436022082
1773075912975245568,2.6901915073394775,-1.7770867347717285,-1.3715168237686157,1.3137688636779785,-0.9052479863166809,-0.3801373541355133,-0.18979382514953613,-0.2084605097770691,-0.1849108636379242,0.19339489936828613,0.7416936763175019,0.07595221186880799,-0.6319290710240256,-0.2116304006265516,0.3899447955280334,-1.3641302954702204,-0.2378620652681653
1773075912985282304,2.700228452682495,-2.1150131225585938,-1.4479742050170898,1.188714623451233,-0.91262286901474,-0.3650408089160919,-0.18402370810508728,-0.19064861536026,-0.2202710509300232,0.14369477331638336,0.7391710835682803,0.06322814655175998,-0.6356023523001728,-0.21363040232484323,0.3736766351906846,-1.3718217827188943,-0.25567115198909124
1773075912995320320,2.710266351699829,-2.445802927017212,-1.497117280960083,1.0305370092391968,-0.9193527698516846,-0.350666344165802,-0.17839109897613525,-0.16711866855621338,-0.2469898760318756,0.09437622129917145,0.736222278077011,0.04963775012815256,-0.6390152913965793,-0.2171915918088521,0.3582825212629207,-1.3791381663023814,-0.27728650233795515
1773075913005356544,2.7203025817871094,-2.7696189880371094,-1.539719820022583,0.837750256061554,-0.925383985042572,-0.3374032974243164,-0.17269445955753326,-0.1405491828918457,-0.2650288939476013,0.046244874596595764,0.7327326215964789,0.0353419718797396,-0.6421866680265177,-0.2223737202840631,0.344157082669502,-1.3862993598286613,-0.302555973326403
1773075913015394560,2.7303407192230225,-3.0900423526763916,-1.554439663887024,0.6266606450080872,-0.9305714964866638,-0.325566828250885,-0.16745980083942413,-0.1120920181274414,-0.2682136595249176,-0.0007683485746383667,0.728802498609214,0.020469585777436378,-0.6448651768121709,-0.22929618297348367,0.331611144066883,-1.3927482218109417,-0.33160375636121503
1773075913025431552,2.74037766456604,-3.378993034362793,-1.5689479112625122,0.3962366580963135,-0.9348655939102173,-0.31541314721107483,-0.1629134714603424,-0.08432990312576294,-0.2557080388069153,-0.04008947312831879,0.7244427605116244,0.0051679033522738175,-0.6469285548854267,-0.23799030162491172,0.32089199030820825,-1.3982648197396694,-0.364329487197254
1773075913035468544,2.7504146099090576,-3.6223678588867188,-1.5607038736343384,0.15071795880794525,-0.9382806420326233,-0.3071948289871216,-0.15893617272377014,-0.061215758323669434,-0.22933468222618103,-0.07087640464305878,0.7195760828750924,-0.01033110004994086,-0.6484020224724449,-0.24835120268993996,0.3122439118260866,-1.4029982555427665,-0.4002554826033638
1773075913045506816,2.7604527473449707,-3.8026528358459473,-1.5319563150405884,-0.11080445349216461,-0.9408034682273865,-0.3011595904827118,-0.15553687512874603,-0.05118560791015625,-0.19415590167045593,-0.10625819861888885,0.7141783762760557,-0.025736978345653045,-0.6492835835912559,-0.26022619292771837,0.3059084813825539,-1.4069548491384476,-0.4387860206514848
1773075913055543552,2.7704896926879883,-3.92268705368042,-1.4850019216537476,-0.3561178147792816,-0.9424420595169067,-0.2974330484867096,-0.15276364982128143,-0.05446046590805054,-0.14652147889137268,-0.13140077888965607,0.7082568586976957,-0.040785486252139194,-0.6495804204755506,-0.27341205885877734,0.3020028827029219,-1.410100582544188,-0.4792899034139977
1773075913065581568,2.7805275917053223,-3.951479911804199,-1.4214736223220825,-0.5810810327529907,-0.9432639479637146,-0.2958871126174927,-0.15067864954471588,-0.0619240403175354,-0.08991611003875732,-0.1455402374267578,0.7016546008648258,-0.05577075378562636,-0.6492690490776258,-0.2881322741141401,0.30038409337560684,-1.4123928604756932,-0.5225687476689839
1773075913075618816,2.790564775466919,-3.8892617225646973,-1.3432568311691284,-0.7689409255981445,-0.9433419108390808,-0.29641443490982056,-0.14914649724960327,-0.06671369075775146,-0.03773778676986694,-0.16237694025039673,0.6946363864729665,-0.06988912005652208,-0.6484923009607951,-0.30340336082647906,0.3009361712050088,-1.4139899032526235,-0.5659936023941513
1773075913085656576,2.800602674484253,-4.289296627044678,-1.300124168395996,-0.8507888317108154,-0.9428313374519348,-0.2983199656009674,-0.14857427775859833,-0.06838381290435791,0.01714622974395752,-0.18444883823394775,0.6873495470834406,-0.08343088827739811,-0.6471106149556215,-0.31912034056946814,0.30293197288952417,-1.4144985324785146,-0.6098593900745524
1773075913095693568,2.8106396198272705,-4.735055446624756,-0.5830233097076416,-0.7790123820304871,-0.9418290257453918,-0.2989385426044464,-0.15360330045223236,-0.06071925163269043,0.09349414706230164,-0.09896023571491241,0.6805201603368072,-0.098939879638277,-0.642969089297738,-0.33718550031251215,0.30358013871732226,-1.4091292385564078,-0.6614243072651177
1773075913105730560,2.820676565170288,-2.644897222518921,-0.21968503296375275,-0.3817504644393921,-0.9406437873840332,-0.29874786734580994,-0.161055326461792,-0.01945441961288452,0.1475180685520172,0.2818896770477295,0.676019630142384,-0.11079615550265028,-0.6381195400488552,-0.35146129023017164,0.30338034770677114,-1.401222433386717,-0.702460737340518
1773075913115768576,2.830714702606201,-0.35541924834251404,0.4200259745121002,-0.2966020107269287,-0.9396039843559265,-0.2991291582584381,-0.16633188724517822,-0.024522721767425537,0.07599985599517822,-0.6382182836532593,0.6748686655543316,-0.11482144638277944,-0.6353346318685829,-0.35737699198132616,0.30377990352793266,-1.3955880676659864,-0.7187070732277668
1773075913125805568,2.8407516479492188,1.5308926105499268,1.020970344543457,-0.4011390507221222,-0.9372723698616028,-0.3036439120769501,-0.1712338924407959,-0.10648983716964722,0.5766999125480652,-1.029632806777954,0.6769218743030194,-0.11013222982387003,-0.6342349291828647,-0.3569227456796836,0.30851482004574987,-1.3900953195532593,-0.7125759365025667
1773075913135843584,2.8507895469665527,2.7291221618652344,1.1634113788604736,-0.4166351854801178,-0.9340642690658569,-0.31121742725372314,-0.17512266337871552,-0.27640026807785034,1.2752524614334106,-1.197084903717041,0.6808797772956406,-0.09953754258992702,-0.6344532653986898,-0.35208552528956105,0.31647380507948975,-1.3854632531879034,-0.6911379949351346
1773075913145880576,2.8608267307281494,3.297445774078369,1.290298581123352,-0.4752941429615021,-0.9305329322814941,-0.3207959532737732,-0.17663054168224335,-0.22590011358261108,1.455134391784668,-1.1779989004135132,0.6853874990189599,-0.0854436328447867,-0.6359120324317196,-0.34432431886916776,0.3265697422326881,-1.383211455025641,-0.6599302884207802
1773075913155917568,2.870863676071167,2.970219850540161,1.3447402715682983,-0.6817386150360107,-0.9262940883636475,-0.33173173666000366,-0.17869903147220612,-0.12595200538635254,0.9798640608787537,-1.0478177070617676,0.6899036945457064,-0.0704519436970999,-0.6369356389432584,-0.3367230757716264,0.33813867468167724,-1.380219326745656,-0.6281331524495465
1773075913165955584,2.880901575088501,2.4825010299682617,1.199836015701294,-0.8277271389961243,-0.9213927388191223,-0.3437460958957672,-0.18131199479103088,-0.038781821727752686,0.4425467550754547,-0.7610403299331665,0.6935753258076804,-0.05640709882877259,-0.6373085928991558,-0.3310729242186937,0.3509031852556685,-1.3764984879828377,-0.6011756767604478
1773075913175992832,2.8909387588500977,2.1030070781707764,1.0132344961166382,-0.7900761961936951,-0.9165068864822388,-0.3554483950138092,-0.1834980845451355,0.07474052906036377,0.1985880434513092,-0.5704386830329895,0.6963409841323152,-0.04400966113226483,-0.6374277263565413,-0.3268918557985459,0.3633937553115217,-1.3731944037304076,-0.5788833224964413
1773075913186030592,2.9009766578674316,1.8730897903442383,0.901418149471283,-0.6895306706428528,-0.9120706915855408,-0.36587685346603394,-0.18509769439697266,0.18964332342147827,0.18750160932540894,-0.47324275970458984,0.6985668145320367,-0.03318365751164947,-0.6374558778039593,-0.3233469818244727,0.374574821787134,-1.3705732726103836,-0.5596318691001676
1773075913196067584,2.911013603210449,1.8417317867279053,0.8240777850151062,-0.6284622550010681,-0.9080259203910828,-0.3753155469894409,-0.18608395755290985,0.21344584226608276,0.24294555187225342,-0.38314515352249146,0.7005211584689615,-0.02320841616122741,-0.6375103058514353,-0.31986269825071034,0.38473719879182444,-1.3686625772226428,-0.5414864588727357
1773075913206104576,2.921050548553467,1.9130984544754028,0.7977949380874634,-0.560001790523529,-0.9042470455169678,-0.384221613407135,-0.18630892038345337,0.18227744102478027,0.250981867313385,-0.29361051321029663,0.7023405432658021,-0.013412048891298583,-0.6377034254394662,-0.31602564330084126,0.39436457829306404,-1.3676021527921054,-0.5228492880954239
1773075913216142592,2.93108868598938,1.967635154724121,0.7833014726638794,-0.4606291651725769,-0.9007784724235535,-0.39247098565101624,-0.18591588735580444,0.16716647148132324,0.20170560479164124,-0.21445947885513306,0.7041594773851696,-0.003670983044258609,-0.6379879156458735,-0.31163670220200784,0.40331659925552654,-1.3672596693429424,-0.5032356672660542
1773075913226179584,2.9411256313323975,1.9533946514129639,0.7358104586601257,-0.35735899209976196,-0.897749125957489,-0.39976584911346436,-0.1850242018699646,0.18382084369659424,0.13919144868850708,-0.1411782056093216,0.7059686512994682,0.005739233587607445,-0.6383219869386617,-0.30679063761113445,0.41126138906299176,-1.3675443445273348,-0.48316040040401564
1773075913236217856,2.9511637687683105,1.9506274461746216,0.6763916015625,-0.2748931348323822,-0.8951889276504517,-0.4061541259288788,-0.18350936472415924,0.20501863956451416,0.10316038131713867,-0.07753799855709076,0.7076622541991815,0.014720331946539076,-0.6387711890007848,-0.30161040929136296,0.4182414666990488,-1.3686024107825607,-0.4629196631309415
1773075913246254592,2.961200714111328,1.9507544040679932,0.6383834481239319,-0.20792527496814728,-0.8930400609970093,-0.41176411509513855,-0.18146610260009766,0.21106374263763428,0.09699052572250366,-0.046530723571777344,0.7092620770834065,0.023370599199839064,-0.6393127305164754,-0.29610888170082833,0.4243890600190326,-1.3703253653036809,-0.4424280668354939
1773075913256291584,2.9712376594543457,1.9153870344161987,0.6107920408248901,-0.14154784381389618,-0.8912153244018555,-0.4167172312736511,-0.17911477386951447,0.20276927947998047,0.11836209893226624,-0.03397423028945923,0.7107880109992853,0.031701713417196235,-0.6398731257387622,-0.2904097783880615,0.4298310436391579,-1.3724604552982937,-0.4219289822875016
1773075913266329600,2.9812755584716797,1.8191007375717163,0.5801180601119995,-0.07451209425926208,-0.889707624912262,-0.42099103331565857,-0.17659825086593628,0.19044309854507446,0.14758405089378357,-0.01358729600906372,0.7122229514399233,0.039576336705379224,-0.6404175136295124,-0.2846710746290034,0.43453761618506676,-1.3748529195859558,-0.40189206486671397
1773075913276366592,2.9913127422332764,1.675122857093811,0.5628511905670166,-0.019377466291189194,-0.8885143995285034,-0.42445990443229675,-0.1742871105670929,0.18097960948944092,0.16268011927604675,0.017091095447540283,0.7136230883983912,0.04678392861518593,-0.6408336033630226,-0.27908002334393006,0.4383652979567584,-1.3770999798064554,-0.3829817646841199
1773075913286404608,3.0013506412506104,1.4712690114974976,0.5484981536865234,0.009710244834423065,-0.8875236511230469,-0.42724117636680603,-0.1725308746099472,0.17815780639648438,0.15575680136680603,0.0500333309173584,0.7150161334813827,0.053216274965711574,-0.6410168394059399,-0.2738931060826974,0.44143923830629445,-1.3787951662107327,-0.36585216967666895
1773075913296441600,3.011387586593628,1.2421436309814453,0.5277723670005798,0.06006156653165817,-0.8867459893226624,-0.4292641282081604,-0.1715042144060135,0.1783873438835144,0.13426604866981506,0.08663482964038849,0.7164218096403584,0.058714240179970144,-0.6409372310027459,-0.2692430685536686,0.4436778725136629,-1.3797467168116682,-0.3509676543778834
1773075913306478848,3.0214247703552246,1.0079188346862793,0.48310479521751404,0.11021528393030167,-0.8862606883049011,-0.4303991496562958,-0.1711687296628952,0.18977314233779907,0.11463367938995361,0.1148943156003952,0.7178287929864315,0.06314885873537167,-0.6406464359448126,-0.26515327496115915,0.44493492195828505,-1.3800095114753317,-0.3385182814415858
1773075913316516608,3.0314626693725586,0.7989214062690735,0.4392542541027069,0.1476968675851822,-0.8860306143760681,-0.43078145384788513,-0.1713971644639969,0.1964097023010254,0.10517418384552002,0.13181592524051666,0.7191960250006704,0.06658292315005958,-0.640209442600322,-0.2616402457077116,0.44535852271774523,-1.3797126402644808,-0.3284221799132085
1773075913326553600,3.041499614715576,0.6475375294685364,0.4183582663536072,0.18770287930965424,-0.8860164284706116,-0.43053141236305237,-0.17209839820861816,0.18215888738632202,0.1060684323310852,0.14222167432308197,0.7205428182289358,0.06919529778946812,-0.6396583537658297,-0.2585872956919418,0.4450814510827736,-1.3789468645332714,-0.3202376817817978
1773075913336591616,3.0515377521514893,0.5766745209693909,0.41145455837249756,0.23657214641571045,-0.886219322681427,-0.42968329787254333,-0.17316919565200806,0.154712975025177,0.10813483595848083,0.14217859506607056,0.7219346132833838,0.07123887770954099,-0.639015198365001,-0.25572448265841474,0.4441420036371112,-1.3778256225099972,-0.3131710481204682
1773075913346628608,3.061574697494507,0.5744513273239136,0.408917099237442,0.29052963852882385,-0.8866342306137085,-0.4283405542373657,-0.17436736822128296,0.12769263982772827,0.1043660044670105,0.12518830597400665,0.7233812880089167,0.07299312947272907,-0.6383481200999718,-0.25279060518081464,0.442655516300446,-1.3766123210222407,-0.3063784021240586
1773075913356665600,3.0716116428375244,0.610582709312439,0.41165030002593994,0.35306093096733093,-0.8872928619384766,-0.4265110492706299,-0.17549803853034973,0.10047352313995361,0.10084277391433716,0.10433109104633331,0.7248854694718194,0.07462492558537702,-0.6377163147129943,-0.2495796246820057,0.44063184784662635,-1.3755262438549796,-0.2992610524949203
1773075913366703616,3.0816495418548584,0.6873363256454468,0.40871647000312805,0.42005956172943115,-0.8882144093513489,-0.42420968413352966,-0.17641235888004303,0.07966643571853638,0.10412606596946716,0.09088683128356934,0.7264397688826095,0.07625417571095859,-0.6371649071745712,-0.2459501107954525,0.4380889808375674,-1.374733221627379,-0.29140032056389154
1773075913376740608,3.091686725616455,0.7996290326118469,0.39244934916496277,0.47233209013938904,-0.8893997669219971,-0.4215310513973236,-0.17686018347740173,0.06795817613601685,0.11203709244728088,0.07610638439655304,0.7279881358010373,0.07802117519199377,-0.6367751628808784,-0.24179184761363115,0.43513306032347976,-1.3745034985942952,-0.28238308554301456
1773075913386778624,3.101724624633789,0.9304875135421753,0.36005422472953796,0.5051870942115784,-0.8907975554466248,-0.4186801314353943,-0.1765970140695572,0.06090259552001953,0.11731913685798645,0.06833590567111969,0.7294444952143676,0.08006950528813207,-0.6366241961676324,-0.23708462855105128,0.43199145818944895,-1.3750879089261403,-0.27194739681711416
1773075913396815616,3.1117615699768066,1.0699794292449951,0.3119535446166992,0.5312994122505188,-0.8923789262771606,-0.41579630970954895,-0.1754237860441208,0.05480867624282837,0.11974519491195679,0.06530110538005829,0.7307236782039592,0.08246649724314005,-0.6367789112024494,-0.23185117134172492,0.42881822357386223,-1.3766914493594595,-0.26000969352871345
1773075913406852608,3.1217987537384033,1.2004436254501343,0.2485993504524231,0.5483420491218567,-0.8941328525543213,-0.412946492433548,-0.17321032285690308,0.04852128028869629,0.11729216575622559,0.06427782773971558,0.7317598127384636,0.08522867000425814,-0.6372840109432577,-0.226125756828952,0.42568691411652837,-1.3794476329536824,-0.24658514190158365
1773075913416890624,3.1318366527557373,1.318598985671997,0.1820666640996933,0.5615552663803101,-0.8960558176040649,-0.4101223945617676,-0.16995222866535187,0.04022073745727539,0.10871544480323792,0.06576518714427948,0.7325257177347291,0.08831902715811263,-0.6381407640490236,-0.21995967442360886,0.4225882498251314,-1.3833557810516586,-0.2318132387278154
1773075913426927616,3.141873598098755,1.4443308115005493,0.1072310358285904,0.5582020878791809,-0.8981163501739502,-0.4073910117149353,-0.16558855772018433,0.02658015489578247,0.0935177206993103,0.06314104795455933,0.7329772040732269,0.0917580201697003,-0.63936389353227,-0.21339798284154177,0.4195954225617387,-1.388470722173769,-0.2157373446690662
1773075913436965632,3.151911735534668,1.5437085628509521,0.044717323035001755,0.549380898475647,-0.9002589583396912,-0.40481826663017273,-0.16017478704452515,0.005681931972503662,0.07329055666923523,0.050555646419525146,0.7331038649673272,0.09555624013803021,-0.6409224686981602,-0.20650936316764518,0.41678008944979456,-1.3947180711796066,-0.19847671877985604
1773075913447002624,3.1619486808776855,1.5970485210418701,-0.020401492714881897,0.5406476259231567,-0.9024537801742554,-0.4023556411266327,-0.15390709042549133,-0.01917719841003418,0.05727803707122803,0.04375390708446503,0.7329265018515605,0.0995925263948149,-0.6427501743121835,-0.19943023855820252,0.41408851165681315,-1.4018785614001634,-0.18045586130936778
1773075913457040640,3.1719865798950195,1.6193774938583374,-0.09000320732593536,0.5322937965393066,-0.9046964049339294,-0.3999146521091461,-0.14694450795650482,-0.03880023956298828,0.04177561402320862,0.039721012115478516,0.7324627195109757,0.10372755793687491,-0.6448010067788121,-0.19227755962659868,0.4114237413744644,-1.4097783633534247,-0.16207975436475025
1773075913467077632,3.182023763656616,1.5975600481033325,-0.16967272758483887,0.5226108431816101,-0.9069941639900208,-0.3974267542362213,-0.13933277130126953,-0.04887747764587402,0.025036007165908813,0.03368091583251953,0.7316927324321171,0.10781385789159413,-0.6470778834599226,-0.18518136218129555,0.4087109258093582,-1.4183675747452027,-0.14375852789944715
1773075913477114624,3.192060708999634,1.5219875574111938,-0.26204633712768555,0.5218417048454285,-0.9093741774559021,-0.39476433396339417,-0.13114851713180542,-0.05492037534713745,0.011219322681427002,0.028777286410331726,0.7306074562378276,0.11164404442998238,-0.6495855229069583,-0.17828937169548925,0.40581133668180913,-1.427565468021409,-0.1260152153895768
1773075913487152640,3.2020986080169678,1.406602144241333,-0.3457021117210388,0.522773802280426,-0.9118242859840393,-0.39185985922813416,-0.1225646585226059,-0.06025201082229614,-0.005356878042221069,0.024328596889972687,0.7292355734716746,0.11505200265641945,-0.6522888210648501,-0.17174894333474044,0.4026522543560107,-1.437180236523945,-0.10934153655400848
1773075913497189632,3.2121355533599854,1.2513762712478638,-0.42009204626083374,0.5200346112251282,-0.9143276810646057,-0.3886491060256958,-0.11382760107517242,-0.07305330038070679,-0.02234634757041931,0.020123369991779327,0.7276397926284462,0.1178809869233073,-0.6551261493758973,-0.16569275764342076,0.39916498875205714,-1.4469403378817054,-0.09421004535322071
1773075913507227648,3.2221736907958984,1.0543901920318604,-0.4842483699321747,0.5183003544807434,-0.916846752166748,-0.38514119386672974,-0.10515879094600677,-0.08635765314102173,-0.046301066875457764,0.015040397644042969,0.7258758617981261,0.12000965955943209,-0.6580412497681168,-0.1602612001274305,0.3953608108804065,-1.4565991945506749,-0.08105120944074334
1773075913517264640,3.232210636138916,0.8148536682128906,-0.5383545160293579,0.5266717672348022,-0.9193816184997559,-0.3812626302242279,-0.09683017432689667,-0.09926456212997437,-0.07128244638442993,0.00974823534488678,0.7240265102342924,0.12127706685293474,-0.66096655402756,-0.1555653745425283,0.39116171822609586,-1.4658621946593207,-0.07031111014599399
1773075913527301632,3.2422475814819336,0.5425772070884705,-0.5899654626846313,0.5345970988273621,-0.9219235777854919,-0.37700286507606506,-0.08902617543935776,-0.10204792022705078,-0.09884241223335266,0.0014407709240913391,0.7221449005016641,0.12155265189532757,-0.6638613301424168,-0.1517226604723529,0.3865582564131872,-1.4745291363871071,-0.0623839318136321
1773075913537339648,3.2522857189178467,0.24168160557746887,-0.635716438293457,0.5470494627952576,-0.9244886636734009,-0.3723142743110657,-0.081871397793293,-0.0985369086265564,-0.11964434385299683,-0.004127144813537598,0.7202710647299846,0.12070860477903048,-0.6667036339373406,-0.14881307831681073,0.38150131687024014,-1.4824681806577817,-0.057587465908879434
1773075913547376640,3.2623226642608643,-0.055587057024240494,-0.6689227819442749,0.5535439848899841,-0.9270451664924622,-0.3672769367694855,-0.07546510547399521,-0.09411877393722534,-0.13568326830863953,-0.011021673679351807,0.7184357359344761,0.11871351855600662,-0.6694584000868931,-0.14691045873026196,0.37607966234294127,-1.4895715142290424,-0.05609141295941312
1773075913557414656,3.2723605632781982,-0.33072221279144287,-0.6891084313392639,0.5599528551101685,-0.929582953453064,-0.36193522810935974,-0.06984477490186691,-0.08805614709854126,-0.14810502529144287,-0.022394590079784393,0.7166716528324465,0.1156314834367452,-0.6720914921818248,-0.14595899765285067,0.37034301587798346,-1.4958016377189152,-0.057722772891048255
1773075913567451648,3.282397747039795,-0.5660344362258911,-0.7082597613334656,0.5577701330184937,-0.9320784211158752,-0.3563910126686096,-0.0649266168475151,-0.07909101247787476,-0.15786072611808777,-0.03825336694717407,0.7149742500699321,0.11161067305535828,-0.6745959897266536,-0.14586026569813323,0.3644024178986682,-1.5012507729271345,-0.06210365359676605
1773075913577488640,3.2924346923828125,-0.7930851578712463,-0.7160761952400208,0.5396050214767456,-0.9344746470451355,-0.3508246839046478,-0.060657091438770294,-0.067982017993927,-0.15811696648597717,-0.058681901544332504,0.7133296377699414,0.1067889997180199,-0.6769546243779446,-0.1465926609163031,0.3584516079785433,-1.5059768922646966,-0.0689914197053728
1773075913587526656,3.3024725914001465,-0.9881166219711304,-0.7172480821609497,0.5168300271034241,-0.9367491602897644,-0.3453191816806793,-0.05705744028091431,-0.05853581428527832,-0.1533380150794983,-0.0783032700419426,0.7117523210608722,0.10126002597743583,-0.6791300962435318,-0.14811231462087707,0.35257886292588597,-1.5099614328895026,-0.07818539045934263
1773075913597563648,3.312509775161743,-1.1547935009002686,-0.7107142806053162,0.4836848974227905,-0.9388761520385742,-0.3399893343448639,-0.054026540368795395,-0.04134845733642578,-0.1492989957332611,-0.0989122986793518,0.7100946766302807,0.09461164494967111,-0.6812014136459476,-0.15092665012444742,0.34690556831110303,-1.51331587366162,-0.0909831808031837
1773075913607601664,3.322547674179077,-1.2892515659332275,-0.6918408870697021,0.43829596042633057,-0.9408137798309326,-0.3349792957305908,-0.051559995859861374,-0.024136841297149658,-0.14707636833190918,-0.12269538640975952,0.7084827900127535,0.08757206778838679,-0.6830454852386163,-0.1543767636582572,0.3415832699996067,-1.5160474783213862,-0.1053875742084957
1773075913617638656,3.3325846195220947,-1.396064281463623,-0.6596860885620117,0.3763015568256378,-0.9425162672996521,-0.3304482400417328,-0.04966948181390762,-0.0092049241065979,-0.1429404318332672,-0.14405608177185059,0.7069191523858119,0.08028948533204791,-0.684630453202537,-0.15842992396180977,0.33677846646928283,-1.5181462225693678,-0.12114173535327195
1773075913627675648,3.3426215648651123,-1.4549015760421753,-0.6182817816734314,0.2916373908519745,-0.9439225196838379,-0.32660967111587524,-0.04833732917904854,0.004225254058837891,-0.13545700907707214,-0.16398876905441284,0.7054083699308431,0.07300848936424308,-0.68593082474724,-0.1629960718743417,0.33271428378626555,-1.5196320180804674,-0.13776676876573107
1773075913637713664,3.3526597023010254,-1.489137053489685,-0.5735260248184204,0.20383964478969574,-0.9450190663337708,-0.3235461115837097,-0.047506917268037796,0.018612205982208252,-0.12370425462722778,-0.1862119436264038,0.7039395299254003,0.06586841400920522,-0.6869555250699845,-0.16799585556059704,0.32947480088128855,-1.5205677539079474,-0.15494024956366953
1773075913647750656,3.362696647644043,-1.5135656595230103,-0.533643901348114,0.11186497658491135,-0.9457924962043762,-0.32133370637893677,-0.04712947830557823,0.037803053855895996,-0.10736194252967834,-0.19882696866989136,0.702502162827618,0.058990147775347376,-0.6877175463877921,-0.17336498381421617,0.32713753917286975,-1.5210068349785641,-0.1723914282011626
1773075913657788416,3.372734546661377,-1.5155678987503052,-0.49491700530052185,0.01512245461344719,-0.9462363719940186,-0.3200220763683319,-0.04714469239115715,0.057976484298706055,-0.08834889531135559,-0.20448803901672363,0.7010719495503767,0.05243239425985751,-0.6882430519137562,-0.17908231695170998,0.3257527954327002,-1.5210141153746233,-0.1899998865305614
