time,seconds_elapsed,rotationRateX,rotationRateY,rotationRateZ,gravityX,gravityY,gravityZ,accelerationX,accelerationY,accelerationZ,quaternionW,quaternionX,quaternionY,quaternionZ,pitch,roll,yaw
1773065510647112192,0.03264021873474121,0.33539044857025146,-0.12894728779792786,-0.06250014156103134,0.1045348197221756,-0.17560544610023499,-0.9788948893547058,-0.0874602347612381,0.11479917168617249,-0.04850989580154419,-0.018479622661406958,-0.054176185917731004,0.08727828001860735,0.994538049397329,0.1765207429938292,0.10638542578614746,-3.11385759992202
1773065510657149952,0.042678117752075195,0.018944067880511284,-0.05613911896944046,-0.053336478769779205,0.10373175889253616,-0.17722485959529877,-0.9786884188652039,-0.11656440794467926,0.04340529441833496,0.05128979682922363,-0.018049687037558,-0.053752511125512735,0.08812743834726444,0.9944940643726581,0.17816595598240545,0.10559633983992209,-3.1147379063635516
1773065510667188224,0.05271625518798828,-0.1739530861377716,0.006110007409006357,0.03751127049326897,0.10351521521806717,-0.17636725306510925,-0.9788662791252136,-0.05088765174150467,0.0009064376354217529,0.12084931135177612,-0.018026653615811513,-0.05363134080204623,0.08769572270633828,0.994539166071133,0.17729461858423232,0.10535853032534025,-3.1147182488482206
1773065510677225984,0.06275415420532227,-0.2061336487531662,0.04148264601826668,0.08347636461257935,0.10365273803472519,-0.1744806468486786,-0.9791897535324097,0.00885031372308731,-0.0018499195575714111,0.11383330821990967,-0.0184283734976351,-0.05371378163968945,0.08671760066043366,0.9946131238173269,0.1753782953788085,0.1054628667628308,-3.1138207902706823
1773065510687264256,0.07279229164123535,-0.11644824594259262,0.07852242141962051,0.009499875828623772,0.1041712611913681,-0.1728544384241104,-0.9794231653213501,0.030411265790462494,0.031146064400672913,0.0907207727432251,-0.018741183436940995,-0.053982946660635994,0.08587356703041418,0.994665999994785,0.17372700353724743,0.105961447682329,-3.113149722622215
1773065510697302016,0.08283019065856934,0.028142491355538368,0.07946012169122696,-0.0479612834751606,0.10498473793268204,-0.1723860800266266,-0.9794188141822815,0.01163819432258606,0.08800497651100159,0.061068594455718994,-0.018673783019224083,-0.054381545323311055,0.085634283865439,0.9946661976142629,0.17325149534986622,0.10678312101302061,-3.1133313569258867
1773065510707340032,0.09286808967590332,0.20187008380889893,0.08987574279308319,-0.07687469571828842,0.10592205822467804,-0.17346295714378357,-0.9791277647018433,-0.02083905041217804,0.13675031065940857,0.03585994243621826,-0.018364895692888406,-0.054840102529441305,0.08618987790877328,0.9945987723206999,0.17434485238845754,0.10776095443507952,-3.1140943012137545
1773065510717378048,0.1029062271118164,0.3376838266849518,0.11490919440984726,-0.09130183607339859,0.10703986883163452,-0.1760808527469635,-0.9785386919975281,-0.02419990301132202,0.1644994467496872,0.03421807289123535,-0.01790923812169764,-0.05539453141825287,0.08753337330402927,0.994458978497751,0.1770036617776148,0.10895427202800023,-3.1152559010885557
1773065510727416064,0.11294412612915039,0.406599760055542,0.15406964719295502,-0.11245878785848618,0.10853689908981323,-0.17964589595794678,-0.9777254462242126,-0.02533072978258133,0.16571463644504547,0.03683805465698242,-0.017345500748338145,-0.056140466405670296,0.08936169893702575,0.994264493690729,0.1806264810697842,0.11055693142040253,-3.116727189884335
1773065510737454080,0.12298226356506348,0.46932634711265564,0.1959916651248932,-0.11853917688131332,0.1104627400636673,-0.18379640579223633,-0.9767378568649292,-0.0294843390583992,0.15974855422973633,0.0531386137008667,-0.016705668113471246,-0.05710083822264556,0.09149075750262024,0.9940271379583295,0.18484726942518703,0.11261503916673295,-3.1184327006315784
1773065510747492096,0.13302016258239746,0.5448622703552246,0.2439029961824417,-0.10723619908094406,0.11280114948749542,-0.1886066496372223,-0.9755528569221497,-0.02771814912557602,0.15506784617900848,0.06855523586273193,-0.01610792849262847,-0.05827885122603147,0.0939528213201133,0.9937388906191041,0.18974313679596297,0.11511670692126058,-3.120142847754364
1773065510757530112,0.14305830001831055,0.6697930097579956,0.2924838364124298,-0.10957738012075424,0.11560891568660736,-0.19439567625522614,-0.9740867018699646,-0.01859353482723236,0.15218986570835114,0.0717429518699646,-0.01552754785607159,-0.059704562414869614,0.09691240813528636,0.9933792117096015,0.19564133379657855,0.11813182341826138,-3.1219392278851092
1773065510767568128,0.15309619903564453,0.790676474571228,0.27961865067481995,-0.1862223595380783,0.1187158077955246,-0.20137813687324524,-0.9722928404808044,-0.013735339045524597,0.15633419156074524,0.07902806997299194,-0.01475827060333521,-0.061273653226043175,0.10049431653679299,0.992939454966939,0.20276467136187135,0.12149743522263917,-3.1242435543719393
1773065510777605888,0.16313409805297852,0.6909160614013672,0.2587788999080658,-0.4383139908313751,0.12183822691440582,-0.20846067368984222,-0.9704120755195618,-0.025356896221637726,0.16285215318202972,0.08651620149612427,-0.013054548887670157,-0.06275059273610399,0.1041936872240484,0.992489650540552,0.21000079134331676,0.12489952786276659,-3.128467356378
1773065510787644160,0.1731722354888916,0.3766324818134308,0.3981670141220093,-0.5322059988975525,0.1260131597518921,-0.21303163468837738,-0.968885064125061,-0.09117734432220459,0.13061891496181488,0.11187517642974854,-0.010597056370698918,-0.06464545334843882,0.10666980790246611,0.9921342223530922,0.21467677795137635,0.12933397965361396,-3.13418661715612
1773065510797681920,0.18321013450622559,0.2461724728345871,0.560188889503479,-0.4900044798851013,0.13182727992534637,-0.21519573032855988,-0.9676323533058167,-0.21010486781597137,0.056550100445747375,0.16598135232925415,-0.008552950107452441,-0.06738651260773533,0.10790218450127607,0.9918382316669648,0.21689225192036288,0.13540333267711618,-3.1391105152124474
1773065510807720192,0.19324827194213867,0.49285393953323364,0.6263619065284729,-0.43572700023651123,0.13860085606575012,-0.21793903410434723,-0.9660705924034119,-0.19508889317512512,0.10703817009925842,0.19129031896591187,-0.006882700032798377,-0.0706571061667036,0.1094179065658492,0.99145753493727,0.2197022492124333,0.14249629644089257,3.1397334669162595
1773065510817757184,0.20328521728515625,1.0345827341079712,0.6627194285392761,-0.5079244375228882,0.14588211476802826,-0.2245529294013977,-0.9634803533554077,-0.08409929275512695,0.2189529538154602,0.14481580257415771,-0.005094784712923887,-0.07419796104806017,0.11293576822250288,0.990814879398673,0.22648421963982993,0.1502702185848662,3.134754742627096
1773065510827794944,0.21332311630249023,1.6831401586532593,0.6593561172485352,-0.6865453720092773,0.15365120768547058,-0.2367367446422577,-0.9593471884727478,-0.02308174967765808,0.3086056113243103,0.0766567587852478,-0.0024430812331985023,-0.0779134532784019,0.1193980817669699,0.9897815655423008,0.23900573153804378,0.15881345584124032,3.1274201194626094
1773065510837833216,0.22336125373840332,2.298798084259033,0.6594690084457397,-0.8657611608505249,0.1618659496307373,-0.2546198070049286,-0.9533982276916504,-0.039948225021362305,0.3800317943096161,0.01930093765258789,0.0013944877418399823,-0.08171083508428952,0.12893498236295503,0.9882798742429653,0.2574545318709049,0.16817428413887087,3.1169510231488458
1773065510847870976,0.2333991527557373,2.905547618865967,0.6617544293403625,-0.9962961673736572,0.17065492272377014,-0.27785101532936096,-0.9453442096710205,-0.06596435606479645,0.43580999970436096,-0.007078886032104492,0.0062262950546512616,-0.08562679967034006,0.14140697310322653,0.9862218023922776,0.28155630048719166,0.1785979814451218,3.1035900204984626
1773065510857909248,0.2434372901916504,3.49432635307312,0.6466002464294434,-1.0586954355239868,0.17984889447689056,-0.30628812313079834,-0.9347951412200928,-0.07654689252376556,0.47219693660736084,-0.012119531631469727,0.011780456092160618,-0.08955570753306338,0.15678712437827164,0.98349317282459,0.3112912879826677,0.19007143815740007,3.0877245368845694
1773065510867947008,0.2534751892089844,4.0263543128967285,0.6728819012641907,-1.1412041187286377,0.18950097262859344,-0.33931049704551697,-0.9213890433311462,-0.07152001559734344,0.48962482810020447,-0.00945812463760376,0.017885664552140697,-0.09349470554650013,0.17482625325978393,0.979987057339802,0.34618381694211436,0.20284033070394633,3.069511607994637
1773065510877985024,0.26351308822631836,4.491270542144775,0.7087402939796448,-1.2483545541763306,0.2001095712184906,-0.3760627508163452,-0.90472811460495,-0.0487576425075531,0.4966071844100952,0.004123866558074951,0.0246359967070308,-0.09762983991619359,0.19520336793005516,0.9755804143436166,0.38554344830676235,0.2176774609912222,3.048446282031698
1773065510888023040,0.27355122566223145,4.9361186027526855,0.752352774143219,-1.377201795578003,0.21193134784698486,-0.4156923294067383,-0.8844687938690186,-0.04037676751613617,0.5017518997192383,0.025124311447143555,0.03211389840396522,-0.1020218552997588,0.2176169820863654,0.970156257987831,0.42870387024027895,0.23518022778027436,3.0239894474955187
1773065510898061056,0.28358912467956543,5.362424373626709,0.7617126703262329,-1.527177095413208,0.2249230295419693,-0.45761188864707947,-0.8602331280708313,-0.0435112863779068,0.5285347700119019,0.0344427227973938,0.0404002426193957,-0.10656914701694825,0.24192241962063799,0.9635789952363445,0.47530750246471326,0.2557421765573894,2.995518701189559
1773065510908099072,0.2936272621154785,5.74402379989624,0.7484802603721619,-1.692061424255371,0.2390957474708557,-0.5010388493537903,-0.8317411541938782,-0.05617338418960571,0.5644391179084778,0.038299381732940674,0.04960786897217919,-0.11118067957244852,0.267896035176723,0.9557247131042579,0.5247987517001834,0.27991669664673324,2.962231542957657
1773065510918137088,0.3036651611328125,6.0916008949279785,0.7010189890861511,-1.8913334608078003,0.2544510066509247,-0.5450669527053833,-0.7988470792770386,-0.07377171516418457,0.5929796099662781,0.05963510274887085,0.0598533609880477,-0.11574688774235667,0.29526110306088055,0.9464887579885833,0.5764689665798555,0.3083623699865356,2.9231932790647117
1773065510928175104,0.3137032985687256,6.349308967590332,0.652151346206665,-2.122681140899658,0.271144837141037,-0.5885632634162903,-0.7616257667541504,-0.09481427073478699,0.6024945378303528,0.08686685562133789,0.07129624471810629,-0.12021631477825029,0.32362808923199904,0.9358044010163129,0.6292805087706317,0.3420170662761838,2.8772225462805845
1773065510938213120,0.32374119758605957,6.509523868560791,0.60591059923172,-2.3751211166381836,0.2896125316619873,-0.6301185488700867,-0.7204687595367432,-0.1145942211151123,0.5979377627372742,0.08800721168518066,0.0846735284660402,-0.12446382953490066,0.3525257242349466,0.9236150421000927,0.6817058617287631,0.3822103162341851,2.8217224891155674
1773065510948251136,0.33377909660339355,6.576778888702393,0.527907133102417,-2.605123281478882,0.3098353445529938,-0.6685225963592529,-0.6760766506195068,-0.12955275177955627,0.5923507213592529,0.09125304222106934,0.09926198479595313,-0.12863721041188741,0.38133206887648596,0.9100469270728521,0.7322204138594708,0.42972180760487755,2.75735738579674
1773065510958289152,0.34381723403930664,6.639281272888184,0.4084199070930481,-2.754626750946045,0.3314140737056732,-0.7031481862068176,-0.6290845274925232,-0.12625965476036072,0.5798876881599426,0.10378551483154297,0.11482195507226935,-0.13255324285807804,0.40974060364213755,0.8951861281554412,0.7798153880085136,0.48487238525364007,2.683894521791932
1773065510968327168,0.3538551330566406,6.790072917938232,0.24383148550987244,-2.890632390975952,0.35375168919563293,-0.7341594696044922,-0.5795425772666931,-0.08101612329483032,0.550962507724762,0.11668246984481812,0.1311986460112339,-0.1358686644694797,0.43791371713708954,0.8789528914648294,0.824427939077089,0.5480301067658877,2.6006551203093284
1773065510978365184,0.3638932704925537,6.9937591552734375,-0.0019961223006248474,-3.0595951080322266,0.3767711818218231,-0.7615302801132202,-0.527366042137146,-0.051682740449905396,0.511042058467865,0.09172767400741577,0.14864020841525907,-0.1383195813621925,0.4660307517411904,0.8611556261961951,0.8656709615869382,0.620351360730879,2.5056887693276497
1773065510988403200,0.3739311695098877,7.16502571105957,-0.2956355810165405,-3.2140274047851562,0.4004013240337372,-0.7848665714263916,-0.47293052077293396,-0.017817676067352295,0.4634401798248291,0.07302820682525635,0.1673548008179754,-0.13963068549284227,0.4940020357576872,0.8416992530695712,0.9024807520575714,0.7025394545998684,2.397546714159768
1773065510998441216,0.3839693069458008,7.27101469039917,-0.5557242035865784,-3.3468079566955566,0.42467430233955383,-0.8035413026809692,-0.4171009063720703,0.03148719668388367,0.43191349506378174,0.08366584777832031,0.18720015869959766,-0.13978982735624168,0.5214483151459101,0.8206745027606159,0.9332208576883971,0.7943948487868195,2.2765776022039126
1773065511008479232,0.39400720596313477,7.334201812744141,-0.7815169095993042,-3.466506004333496,0.44980570673942566,-0.8170878887176514,-0.3606136441230774,0.08162739872932434,0.42107653617858887,0.10516625642776489,0.20795836837498807,-0.13897909849748466,0.5480675007246129,0.7981604790364983,0.9563415639846456,0.8950136703071327,2.1441907055527563
1773065511018515968,0.40404415130615234,7.279938220977783,-1.041215181350708,-3.557898759841919,0.47582873702049255,-0.8251804113388062,-0.30440783500671387,0.11940130591392517,0.4123387336730957,0.12594106793403625,0.22947824945828177,-0.1372839016237276,0.5735409379914505,0.774301965467206,0.9705215131301799,1.0016658569627002,2.003336367533872
1773065511028554240,0.41408228874206543,6.599552154541016,-1.396176815032959,-3.4894726276397705,0.5017755031585693,-0.8273654580116272,-0.2523639500141144,0.1695501208305359,0.37742966413497925,0.18321111798286438,0.2513604576095432,-0.13457096888775077,0.5964131824229334,0.7503331158709047,0.9744007905391922,1.1047979331388833,1.8637877139556642
1773065511038592000,0.4241201877593994,5.310479164123535,-1.7862462997436523,-3.3589415550231934,0.5264468789100647,-0.8236419558525085,-0.2108732908964157,0.2682461142539978,0.24866032600402832,0.3980986475944519,0.2728659809285167,-0.1312025617275987,0.6142875896525503,0.7286842447837079,0.9678033258522276,1.1898077107294032,1.7415919558730795
1773065511048630016,0.4341580867767334,3.311290979385376,-1.9767554998397827,-3.323730707168579,0.5501033663749695,-0.8142363429069519,-0.18548786640167236,0.3493870496749878,-0.054263532161712646,0.6417714357376099,0.29363324888844344,-0.12857513065272028,0.6250795981669075,0.711704721240338,0.9514125262147197,1.2455812280174232,1.6503075755304564
1773065511058668032,0.4441962242126465,1.1728514432907104,-1.8175321817398071,-3.398005723953247,0.5738136172294617,-0.7993670701980591,-0.17818568646907806,0.36060404777526855,-0.41009026765823364,0.8134548664093018,0.31289963912023216,-0.1290407152779402,0.62789780526182,0.7008470726603792,0.9262411102528945,1.2697082456765174,1.596889720245743
1773065511068706048,0.45423412322998047,-0.4948018491268158,-1.4802830219268799,-3.466827869415283,0.5980605483055115,-0.779688835144043,-0.18549677729606628,0.288826048374176,-0.6206865310668945,0.8723101615905762,0.33025089123648566,-0.1336503776639405,0.6240105659688927,0.6954731028820786,0.8941686977055474,1.270041165140637,1.575731961220623
1773065511078744064,0.46427226066589355,-1.2545356750488281,-1.1729798316955566,-3.4126174449920654,0.6221110224723816,-0.7567328214645386,-0.2008316069841385,0.16719555854797363,-0.5634881258010864,0.7864334583282471,0.34568271719335425,-0.1414305207504557,0.6161019406208169,0.6934834272721815,0.8583007229282347,1.2585349060465925,1.5736166512420635
1773065511088782080,0.47431015968322754,-0.8694002032279968,-1.0186347961425781,-3.223945140838623,0.6447035670280457,-0.7332062125205994,-0.21625474095344543,0.08547526597976685,-0.32760006189346313,0.5512309074401855,0.35968815706014484,-0.14993326306222052,0.6077768092399207,0.6919190215910703,0.8230250466626177,1.2471574415046256,1.5744195816786373
1773065511098820096,0.4843482971191406,0.24642489850521088,-0.9853777885437012,-2.9793758392333984,0.6650101542472839,-0.7120345234870911,-0.22531814873218536,0.07220298051834106,-0.06739968061447144,0.21385884284973145,0.37321053417214567,-0.15653257235515677,0.6023607521884728,0.6880210169164584,0.7923915272307867,1.244116715787779,1.564744446148588
1773065511108858112,0.4943861961364746,1.7242612838745117,-1.0081193447113037,-2.6808652877807617,0.6827352046966553,-0.695074737071991,-0.2252633422613144,0.11589449644088745,0.17053866386413574,-0.15024015307426453,0.38667341586419307,-0.1598447995163307,0.6015130673563391,0.6805257099831943,0.7685238617506026,1.2521006526128835,1.539260123733494
1773065511118896128,0.5044240951538086,3.5113589763641357,-1.1530190706253052,-2.422640323638916,0.6980004906654358,-0.6831648349761963,-0.21466532349586487,0.20681512355804443,0.3399641513824463,-0.32677751779556274,0.400668344283615,-0.1587609200330193,0.6061866943159768,0.668429206460294,0.7520877162354919,1.2724335952656824,1.4940436383877367
1773065511128934144,0.5144622325897217,5.19364595413208,-1.4021637439727783,-2.161654233932495,0.7110438942909241,-0.6758959889411926,-0.19385872781276703,0.2976841330528259,0.3761675953865051,-0.4200023412704468,0.4155998088502717,-0.15262152661521064,0.6162607439493643,0.6513111117802302,0.742179750924544,1.3046258705068579,1.4278384701848394
1773065511138972160,0.5245001316070557,6.523177623748779,-1.6384332180023193,-1.9125112295150757,0.7220470905303955,-0.6718730330467224,-0.16502894461154938,0.3734118342399597,0.3574656844139099,-0.33462005853652954,0.43126467106070693,-0.14155851823951265,0.630433748150312,0.6297024939593001,0.7367347425607628,1.3460988325723942,1.343545675502944
1773065511149010176,0.5345382690429688,7.432165622711182,-1.7631163597106934,-1.7038078308105469,0.7316680550575256,-0.6690692901611328,-0.13041479885578156,0.3961089849472046,0.2779254913330078,-0.16513268649578094,0.44704498630668416,-0.1266363945477744,0.6471134575316242,0.6044485596170732,0.7329557447462086,1.3944056498146105,1.24593823033263
1773065511159048192,0.5445761680603027,8.034700393676758,-1.8159375190734863,-1.4861019849777222,0.7403761744499207,-0.6659045815467834,-0.0917293056845665,0.35601359605789185,0.18227726221084595,0.007241427898406982,0.4622728083105624,-0.10889082600445694,0.6650399501494217,0.5763406398167095,0.7287056563064142,1.4475289507804134,1.1393986637122975
1773065511169086208,0.5546143054962158,8.377447128295898,-1.8400275707244873,-1.2268502712249756,0.7481277585029602,-0.6616227626800537,-0.05059928447008133,0.3057968020439148,0.12112593650817871,0.10591238737106323,0.4763712277030519,-0.08897187563417876,0.6832161911324884,0.546232707266629,0.7229808725586028,1.5032646271120564,1.0278246166898437
1773065511179124224,0.5646522045135498,8.495455741882324,-1.8323267698287964,-0.9265676736831665,0.7547273635864258,-0.6559832096099854,-0.00853540189564228,0.27328789234161377,0.09648919105529785,0.14410972595214844,0.4889456235536746,-0.06735126144870418,0.700853841014404,0.514975735951757,0.7154845711223323,1.5594875565840294,0.9145442591731404
1773065511189161984,0.5746901035308838,8.487980842590332,-1.8624619245529175,-0.6063042879104614,0.7599623799324036,-0.6491228938102722,0.03311705216765404,0.23048561811447144,0.05822628736495972,0.12760376930236816,0.49981576713362985,-0.04435363134627615,0.717350180007711,0.48334842889447044,0.7064307957227376,1.614345998173188,0.8021222342519223
1773065511199200256,0.5847282409667969,8.293362617492676,-1.8985894918441772,-0.3287009596824646,0.7639672756195068,-0.6410966515541077,0.07313795387744904,0.18702149391174316,-0.014100492000579834,0.12789666652679443,0.508900420591357,-0.020697189156416333,0.7322162283861268,0.4521630446990144,0.6959263117775315,1.666239861815893,0.6933914920455596
1773065511209238016,0.5947661399841309,7.7655181884765625,-1.7819486856460571,-0.17099466919898987,0.7672359943389893,-0.631799042224884,0.11035937815904617,0.13474160432815552,-0.05670809745788574,0.1777266412973404,0.5166631431411843,0.003191724933242444,0.7450969741160616,0.4217578169227974,0.683871967947402,1.7136566361345174,0.5896953396442309
1773065511219276288,0.604804277420044,7.136654853820801,-1.6320120096206665,-0.10027948766946793,0.7702354192733765,-0.6212924718856812,0.14398989081382751,0.06443560123443604,-0.03646814823150635,0.22499823570251465,0.5228111553722791,0.02557928518818498,0.7558707873505605,0.39328558659310137,0.6703910375680687,1.7556058533075678,0.49548473615247923
1773065511229313024,0.6148412227630615,6.746474742889404,-1.5944736003875732,-0.08189301937818527,0.7733628153800964,-0.6095157861709595,0.17435790598392487,0.028639256954193115,-0.026409566402435303,0.22728396952152252,0.5278683675551317,0.04658292156522074,0.7648588020976013,0.3663005928565598,0.6554496387839154,1.7925430572725414,0.40924527703886043
1773065511239351040,0.6248791217803955,6.4584197998046875,-1.5327929258346558,-0.09885735809803009,0.7768247723579407,-0.5963850021362305,0.2021598070859909,0.03501921892166138,-0.04277521371841431,0.16113677620887756,0.5321712418191944,0.0665900824920097,0.7724284222637385,0.3401676598507316,0.6389899641302131,1.8253878820654437,0.32878067220996604
1773065511249389056,0.6349172592163086,6.267176628112793,-1.5616306066513062,-0.24831221997737885,0.7811389565467834,-0.5813871622085571,0.227620467543602,0.08108943700790405,-0.06996476650238037,0.13067114353179932,0.5360297903728228,0.08549253423771325,0.7787819082231346,0.31442310165315485,0.6204325343963695,1.8543406202531778,0.253332070694515
1773065511259427072,0.6449551582336426,6.266003608703613,-1.6301252841949463,-0.3303152024745941,0.7867369651794434,-0.5639211535453796,0.2510731816291809,0.12961429357528687,-0.12223601341247559,0.14660128951072693,0.5397812095641943,0.10361680785548226,0.7840919263260251,0.28826999573987594,0.5991263024515058,1.879711987781472,0.18106782028576443
1773065511269465088,0.6549932956695557,6.132826328277588,-1.5744448900222778,-0.19834893941879272,0.7924841642379761,-0.545465886592865,0.2728295922279358,0.12754452228546143,-0.11583477258682251,0.14938116073608398,0.5430259901561199,0.12166945834267809,0.7884233269174677,0.26212221689199816,0.5769448887596368,1.9023585850289824,0.11097891034091326
1773065511279503104,0.6650311946868896,5.955165386199951,-1.5053894519805908,-0.09399242699146271,0.7976197600364685,-0.5271245241165161,0.29315948486328125,0.057391226291656494,-0.08676707744598389,0.18450164794921875,0.545323118701101,0.1395356981254025,0.791902479997065,0.23673396669071053,0.5552132326995668,1.9230133029687744,0.04378452468940216
1773065511289541120,0.6750690937042236,5.66517448425293,-1.4903110265731812,-0.011018048971891403,0.802446186542511,-0.5090630650520325,0.31134384870529175,-0.031236469745635986,-0.11825627088546753,0.19567513465881348,0.5470272551288463,0.1569404211828439,0.7943812857984179,0.21234242358504996,0.5340959096374098,1.9409095433161394,-0.019783215282035072
1773065511299579136,0.6851072311401367,5.380009174346924,-1.4935816526412964,0.0412539467215538,0.8071649074554443,-0.49149495363235474,0.32698312401771545,-0.01584392786026001,-0.14658194780349731,0.2345404326915741,0.5484064057967776,0.17370084900140634,0.7958137843893683,0.18910053543744362,0.5138055101020844,1.9556921741115347,-0.07938144839802004
1773065511309617152,0.6951451301574707,4.982840061187744,-1.4599636793136597,0.08004314452409744,0.8118044137954712,-0.4746256470680237,0.3401530086994171,0.010155975818634033,-0.11361593008041382,0.2626759707927704,0.5495125139192785,0.1895443017003557,0.7963350184234514,0.1672108465737429,0.49453866074700703,1.967581265972176,-0.13459628655275424
1773065511319655168,0.7051832675933838,4.567548751831055,-1.37236487865448,0.06673400104045868,0.81640625,-0.45868921279907227,0.3508348762989044,-0.001373291015625,-0.024907559156417847,0.30893993377685547,0.5504498170566816,0.2041593354148566,0.7960756228661755,0.14692716804276135,0.4765195138539029,1.9766671186528548,-0.18482389310682706
1773065511329693184,0.7152211666107178,4.199437618255615,-1.2432700395584106,0.07723351567983627,0.8207449913024902,-0.44360455870628357,0.3599904775619507,-0.04305005073547363,0.025116920471191406,0.2885386645793915,0.5509616732969069,0.21742569913838597,0.7954378091964768,0.12824264740426333,0.4596166303568451,1.9841416597697112,-0.2303037564849666
1773065511339731200,0.7252593040466309,3.7778022289276123,-1.2731858491897583,0.16313430666923523,0.8248165845870972,-0.43003082275390625,0.3670841455459595,-0.05435466766357422,0.006477445363998413,0.20226699113845825,0.5514430106303174,0.22974142640440934,0.794204606039544,0.11121328378002525,0.4445269056600103,1.9895257554059524,-0.27167707690187953
1773065511349769216,0.7352972030639648,3.1788675785064697,-1.153893232345581,0.11927404254674911,0.8287165760993958,-0.4183591902256012,0.37175893783569336,-0.012096583843231201,-0.02710595726966858,0.24298718571662903,0.5521252495210314,0.24061032564011084,0.7924557698213351,0.09632405722876186,0.43163805900115854,1.992482092930594,-0.307574338680179
1773065511359806976,0.7453351020812988,2.66164231300354,-0.9958505630493164,0.07297764718532562,0.8323662877082825,-0.4081686735153198,0.3749193251132965,-0.07340943813323975,-0.06093224883079529,0.30563780665397644,0.5527546597565436,0.24950976354589674,0.7906987676669381,0.08368124419350065,0.4204471305342536,1.9940043703075605,-0.33723736770175766
1773065511369845248,0.7553732395172119,2.2807304859161377,-0.9202388525009155,0.1607104241847992,0.8354933261871338,-0.39983052015304565,0.3769432306289673,-0.10633701086044312,-0.06945347785949707,0.25980597734451294,0.553350710680486,0.2571873968285452,0.7888765761109523,0.07301577485789584,0.4113319428556728,1.9946165170543038,-0.3624268183629635
1773065511379883008,0.7654111385345459,1.9967801570892334,-0.8463313579559326,0.18611645698547363,0.8381452560424805,-0.39327284693717957,0.3779538571834564,-0.06330394744873047,-0.030707865953445435,0.18752169609069824,0.5540190663403824,0.2641363248347933,0.7868982992432793,0.06392167556148699,0.4041885615506548,1.9944323214205881,-0.38449769095975905
1773065511389921280,0.775449275970459,1.9000810384750366,-0.7637772560119629,0.1424490064382553,0.8405321836471558,-0.3872714042663574,0.3788493871688843,-0.07545638084411621,0.021167218685150146,0.138072669506073,0.5545064064426725,0.27040176806209687,0.7850525975993168,0.055660197502740115,0.3976701904563778,1.9942535313963359,-0.4044802610451654
1773065511399959040,0.785487174987793,1.9128711223602295,-0.720069169998169,0.19091959297657013,0.8427344560623169,-0.3814164102077484,0.37989503145217896,-0.11215883493423462,0.06684115529060364,0.043627917766571045,0.5547846876635465,0.2765393245758471,0.7832455039596499,0.047607587969832825,0.3913280706833228,1.9943057974007468,-0.4240760744752066
1773065511409997056,0.795525074005127,1.8835924863815308,-0.6868314743041992,0.2033630907535553,0.8446376919746399,-0.3758861720561981,0.38117778301239014,-0.08772563934326172,0.09376645088195801,-0.005384385585784912,0.5548275868121754,0.282805658867651,0.7814152897326965,0.0397160193040739,0.3853528907560449,1.9947237282736339,-0.4438234518264664
1773065511420035072,0.80556321144104,1.7389484643936157,-0.6606640219688416,0.12062160670757294,0.8466140627861023,-0.3702949583530426,0.3822643756866455,-0.06397563219070435,0.10941550135612488,-0.013734161853790283,0.554832184378051,0.2886249635354173,0.7796331272836694,0.032077993537266626,0.3793265442480473,1.9949147196626658,-0.46247360233392754
1773065511430072064,0.8156001567840576,1.5320982933044434,-0.6272361278533936,0.09963975101709366,0.8487164378166199,-0.3648653030395508,0.38282307982444763,-0.012748539447784424,0.09135153889656067,-0.013102710247039795,0.5549439610502089,0.2936790381896836,0.7779229796143324,0.025011785002762233,0.3734881274551598,1.9945324177554706,-0.47904946185044683
1773065511440110080,0.8256382942199707,1.2737998962402344,-0.608970046043396,0.14636652171611786,0.8506472706794739,-0.36051544547080994,0.3826589286327362,0.08483850955963135,0.02688199281692505,-0.015486717224121094,0.5552575289248614,0.29812909244057506,0.7761755632565155,0.01896387149285811,0.3688204282134266,1.9935208513432094,-0.49336091007419886
1773065511450148096,0.8356761932373047,1.0574746131896973,-0.5680274367332458,0.16157449781894684,0.852370023727417,-0.35736581683158875,0.3817788064479828,0.152634859085083,-0.039286404848098755,0.008220553398132324,0.5558011966469956,0.30199893432521885,0.7743939914464256,0.013987110700808289,0.3654459239562469,1.9919047518809851,-0.5053979490222769
1773065511460186112,0.8457140922546387,1.0528947114944458,-0.4998142719268799,0.17497365176677704,0.8538122177124023,-0.3547928035259247,0.3809555470943451,0.1425563097000122,-0.056202709674835205,0.035594165325164795,0.5562646406508466,0.3055814461857122,0.772721008251317,0.009592391355928834,0.36269243136636137,1.9904705743551145,-0.5163445389836586
1773065511470224128,0.8557522296905518,1.1385538578033447,-0.4597667455673218,0.22185461223125458,0.8549290299415588,-0.35229262709617615,0.3807706832885742,0.11240190267562866,-0.011492162942886353,0.012372016906738281,0.5564064789081936,0.30944457061453834,0.7711221705501555,0.005147499718805417,0.3600196570929987,1.9898039697424188,-0.5280041003739046
1773065511480262144,0.8657901287078857,1.3941891193389893,-0.4777987599372864,0.20343539118766785,0.8559845685958862,-0.349342942237854,0.38111644983291626,0.10711956024169922,0.046272873878479004,0.02493506669998169,0.556274816677134,0.31379844787946315,0.769473035019485,0.00014723418111457637,0.3568697632816001,1.9896827219397053,-0.5412600382508855
1773065511490300160,0.8758282661437988,1.410686731338501,-0.43849822878837585,0.12078472226858139,0.8571566343307495,-0.3453252911567688,0.3821426033973694,0.09006321430206299,0.055438846349716187,-0.028123408555984497,0.5557855664070108,0.31836826705203913,0.7679276968095946,-0.005575847988604878,0.3525853638824168,1.9901736383530624,-0.5558003482916222
1773065511500338176,0.8858661651611328,1.4704434871673584,-0.4531208276748657,0.024362312629818916,0.858608067035675,-0.3404344618320465,0.38327112793922424,0.0799601674079895,0.137324720621109,-0.05531388521194458,0.5551839574084033,0.3226544915294346,0.7665048181063355,-0.011631188734953219,0.34737892975646767,1.9906412657685995,-0.5701875477491603
1773065511510376192,0.8959043025970459,1.488205909729004,-0.4839092493057251,-0.021249782294034958,0.860409140586853,-0.33470866084098816,0.3842739164829254,0.12890982627868652,0.14978739619255066,-0.11066848039627075,0.5545597083000257,0.32671436415562843,0.7651108980406577,-0.01807357305017177,0.341296050696579,1.990833943955791,-0.5845440545365419
1773065511520414208,0.9059422016143799,1.5505059957504272,-0.581869900226593,0.04904355853796005,0.8624324202537537,-0.3289373219013214,0.38472169637680054,0.2103216052055359,0.10457205772399902,-0.1754778027534485,0.5540998739364166,0.3309225697352627,0.7634468575654323,-0.024750243516597017,0.33517805016438856,1.9903931806813502,-0.5993466760665818
1773065511530451968,0.9159801006317139,1.5657362937927246,-0.6206262111663818,0.1171732097864151,0.8644788861274719,-0.32360514998435974,0.38465017080307007,0.2807694673538208,0.01844465732574463,-0.18788817524909973,0.5537880939906284,0.335513555646931,0.7614169251772954,-0.03152127873172026,0.32953718880651967,1.9894430112085995,-0.6149093834738911
1773065511540490240,0.926018238067627,1.4968589544296265,-0.6471084356307983,0.127099871635437,0.8665076494216919,-0.3188117742538452,0.38408756256103516,0.2580191493034363,-0.03854900598526001,-0.10894113779067993,0.5536310906685438,0.34012196379965426,0.7591843150480085,-0.03806217835866053,0.3244755746891507,1.9880305415050374,-0.6302263145584197
1773065511550528000,0.9360561370849609,1.3479642868041992,-0.6951720714569092,0.10119371116161346,0.8687379956245422,-0.31426721811294556,0.3827933669090271,0.17775565385818481,-0.05287453532218933,0.05182284116744995,0.5537429292667783,0.3444605790568552,0.7567982482157174,-0.044409467824500296,0.31968465171630306,1.985832187471912,-0.6447610402481563
1773065511560566272,0.946094274520874,1.0292773246765137,-0.7198401093482971,0.05586431175470352,0.871218204498291,-0.3104415535926819,0.3802695572376251,0.13314580917358398,-0.08415073156356812,0.07399988174438477,0.5544162403853621,0.34784302880562695,0.7544136871376175,-0.04987852672946983,0.31565750967554745,1.9823505576314142,-0.6564331723579234
1773065511570604032,0.956132173538208,0.9242095351219177,-0.7397288680076599,0.12776993215084076,0.8737243413925171,-0.307474821805954,0.37691569328308105,0.09395772218704224,-0.07907611131668091,0.09178861975669861,0.5554825486554454,0.3506820890723162,0.7519839847867418,-0.05460272285142543,0.31253814823185083,1.978066629858925,-0.6662156874476318
1773065511580642048,0.966170072555542,0.7539211511611938,-0.7728410363197327,0.18704895675182343,0.876066267490387,-0.3057612180709839,0.3728512227535248,0.08752626180648804,-0.08797657489776611,0.016263127326965332,0.5568978379535986,0.35343198227605205,0.7493406687534576,-0.05864475403384505,0.31073783162955904,1.9731725645537832,-0.6750407770248581
1773065511590679552,0.9762077331542969,0.6129761934280396,-0.8295077681541443,0.16233962774276733,0.8785085082054138,-0.3047831356525421,0.3678724467754364,0.09283548593521118,-0.06422016024589539,-0.04003739356994629,0.5587512430149285,0.35575836214245304,0.7465736501528103,-0.062135670057647134,0.3097107341667844,1.9673584035300007,-0.6823791307418295
1773065511600717568,0.9862456321716309,0.4801853895187378,-0.8475469946861267,0.1681855320930481,0.8810873627662659,-0.3042169213294983,0.36212846636772156,0.10612577199935913,-0.06509152054786682,-0.09790733456611633,0.5609645692848856,0.3576347785535943,0.7437483483548553,-0.06522633372617338,0.309116281950338,1.9607508807708143,-0.6883579599474906
1773065511610755584,0.996283769607544,0.3199513554573059,-0.8943119049072266,0.16286492347717285,0.8837226033210754,-0.3042316138744354,0.3556368947029114,0.15959709882736206,-0.07136347889900208,-0.13707005977630615,0.5635421949949948,0.35910797563046415,0.7408507994296074,-0.06783645830205316,0.3091316943491138,1.953396169320069,-0.6929765727048665
1773065511620793600,1.006321668624878,0.10995018482208252,-0.9009365439414978,0.14432533085346222,0.8864225149154663,-0.3048763573169708,0.3482893407344818,0.18700271844863892,-0.10006138682365417,-0.1413191854953766,0.5665540627392569,0.35997517140395163,0.7379448080848527,-0.06979819896340793,0.30980860041933383,1.9451806817786694,-0.6956489900028043
1773065511630830592,1.0163586139678955,0.13553406298160553,-0.8897753953933716,0.1724172830581665,0.8890561461448669,-0.3058652877807617,0.3406258523464203,0.17525988817214966,-0.14014914631843567,-0.148807555437088,0.5697307635610421,0.36051629714625244,0.7350788554873436,-0.07137271642510166,0.31084715507006505,1.936677287391538,-0.6972550175505092
1773065511640868608,1.0263967514038086,0.2661850154399872,-0.9530438184738159,0.25230786204338074,0.89150071144104,-0.30707255005836487,0.3330662250518799,0.15551161766052246,-0.17208394408226013,-0.18589520454406738,0.5728097909830934,0.3615616116793773,0.7319879212312846,-0.07318394187118575,0.31211542170114664,1.9283405792428263,-0.7000898310182598
1773065511650906624,1.0364346504211426,0.2412983626127243,-0.8999711871147156,0.27967092394828796,0.8937720060348511,-0.30861663818359375,0.3254648745059967,0.16360104084014893,-0.16556549072265625,-0.14202368259429932,0.5758746995948026,0.3629496565283713,0.7286974554118069,-0.07507259408379864,0.3137383285163037,1.9200187271813034,-0.7036545638748722
1773065511660944640,1.0464727878570557,0.2982628345489502,-0.8219136595726013,0.28035905957221985,0.8956665396690369,-0.31030112504959106,0.31858184933662415,0.1405576467514038,-0.14061132073402405,-0.048379212617874146,0.5786351609142582,0.364375881784973,0.7256177662925826,-0.07674857799130434,0.315509782730487,1.9125333588256956,-0.7071681175033749
1773065511670982656,1.0565106868743896,0.6251066327095032,-0.802562415599823,0.31432273983955383,0.897323727607727,-0.3115428388118744,0.31265175342559814,0.12173444032669067,-0.10744822025299072,-0.004332691431045532,0.5808891802722562,0.36643058136763973,0.7225333897655608,-0.07900553090181565,0.316816259232945,1.9060690446788446,-0.7126538086809138
1773065511681020416,1.0665485858917236,1.1008621454238892,-0.7626887559890747,0.3210589587688446,0.8987508416175842,-0.31182292103767395,0.30824199318885803,0.14104390144348145,-0.08333387970924377,-0.00314253568649292,0.5822857607627706,0.3697882061237486,0.7192897076004843,-0.08259667681788423,0.3171110255134256,1.9011920939126787,-0.7223144086282315
1773065511691058688,1.0765867233276367,1.505675196647644,-0.7377514839172363,0.23210778832435608,0.9001816511154175,-0.31028780341148376,0.305605411529541,0.1435806155204773,-0.038985878229141235,0.034406185150146484,0.5826356523525077,0.37434715753200515,0.7160076232772653,-0.08793774864845987,0.31549576411257196,1.8980803589982589,-0.7364947339340775
1773065511701096448,1.0866246223449707,1.3953372240066528,-0.7258138656616211,0.18919654190540314,0.9017945528030396,-0.30759701132774353,0.30356305837631226,0.13421612977981567,0.009318232536315918,0.011027306318283081,0.5825592141429128,0.37906756379404044,0.7128038419147347,-0.09403821391403014,0.3126665603571658,1.8955029383529818,-0.7519791112472094
1773065511711134720,1.0966627597808838,1.2073980569839478,-0.6477980017662048,0.25119638442993164,0.9032292366027832,-0.3056105375289917,0.3012956976890564,0.13534492254257202,-7.718801498413086e-06,0.09074839949607849,0.582652951274131,0.38326394868871755,0.7097581247360704,-0.0993360990265533,0.31057957605857905,1.8927653734951153,-0.7655864112645496
1773065511721172480,1.1067006587982178,1.209545612335205,-0.5664634704589844,0.4109186828136444,0.9040663242340088,-0.3049508333206177,0.29944750666618347,0.10128933191299438,-0.09905612468719482,0.17384952306747437,0.582658548300685,0.38765269484832293,0.7067171598261194,-0.10385164868534807,0.30988679802281377,1.8906463294629057,-0.7787613625593168
1773065511731210752,1.1167387962341309,1.1090389490127563,-0.37874341011047363,0.5583568811416626,0.9039751291275024,-0.30594512820243835,0.29870834946632385,0.07510507106781006,-0.18328216671943665,0.18632280826568604,0.5823224637059199,0.39255381760447633,0.703744037530762,-0.10745433026102946,0.3109309971541529,1.8899394234199907,-0.7920461756494802
1773065511741248512,1.1267766952514648,1.10385000705719,-0.25905269384384155,0.540168821811676,0.9031898379325867,-0.30773231387138367,0.29924720525741577,0.028588056564331055,-0.11405110359191895,0.2528921067714691,0.5815612903606271,0.39753500613991355,0.7011344482647053,-0.1102852870128846,0.3128087689383877,1.890736118323247,-0.8048110991188981
1773065511751286528,1.1368145942687988,1.526214361190796,-0.1881868988275528,0.5314438939094543,0.9022248983383179,-0.3086344599723816,0.3012223243713379,0.0038419365882873535,0.008143126964569092,0.2612929344177246,0.5800529690094494,0.4029980171036808,0.6987157909681518,-0.11369854532148982,0.31375706550510435,1.8930262975987044,-0.8194033529474505
1773065511761324544,1.146852731704712,2.1082990169525146,-0.12109708040952682,0.6652536392211914,0.9008553624153137,-0.30845627188682556,0.30547451972961426,0.07502061128616333,0.02284225821495056,0.16774633526802063,0.5772135384570735,0.41030582881484046,0.6959787309117704,-0.11869033230788258,0.313569735923146,1.897722376786474,-0.8397076193367984
1773065511771362560,1.156890630722046,2.291238307952881,-0.003155529499053955,0.7570184469223022,0.8988304734230042,-0.3080193102359772,0.31181442737579346,0.17384731769561768,-0.09511792659759521,0.12660115957260132,0.5732227056763801,0.41921586083545476,0.6929395911976984,-0.12453378671853597,0.3131104243406287,1.9047168505537773,-0.8644537299852388
1773065511781400576,1.166928768157959,1.9041022062301636,0.08456553518772125,0.7613180875778198,0.8963007926940918,-0.3082091510295868,0.3188292384147644,0.1554112434387207,-0.2417939007282257,0.16725468635559082,0.5690202114006285,0.4280218394300627,0.6900810968038879,-0.12962027818074112,0.3133099621203267,1.9125549350435629,-0.8883480343136845
1773065511791438592,1.176966667175293,1.090427279472351,0.17213745415210724,0.5596856474876404,0.8938413262367249,-0.30933183431625366,0.3245941400527954,0.07811295986175537,-0.29860880970954895,0.1954253613948822,0.5657661818012542,0.4347456865263672,0.6879631179620256,-0.13270840781705326,0.3144903253513508,1.9191333932217691,-0.905830543447092
1773065511801476608,1.187004804611206,0.4154219925403595,0.30071941018104553,0.345869243144989,0.8916407823562622,-0.3110809326171875,0.328946053981781,-0.010384619235992432,-0.3024749755859375,0.20854473114013672,0.5636957357518343,0.4384568221629166,0.6871889423576341,-0.13331963523715493,0.3163301763911314,1.924227881189263,-0.9144315118084645
1773065511811514624,1.19704270362854,0.5827950239181519,0.3060469329357147,0.013324707746505737,0.8899976015090942,-0.3112655580043793,0.33319371938705444,-0.09091007709503174,-0.14532318711280823,0.24615192413330078,0.5617209732135041,0.44064841113415576,0.6873324081814741,-0.13368884950926344,0.31652444866008617,1.9290197921104073,-0.9197516966229047
1773065511821552640,1.207080602645874,0.7423655390739441,0.19113631546497345,-0.11350434273481369,0.8893247842788696,-0.3083433210849762,0.33767735958099365,-0.15879499912261963,0.3435453772544861,-0.05226171016693115,0.5592496025323213,0.44250165470151015,0.687772464904765,-0.13565128443088897,0.31345099575689334,1.9336818845795034,-0.9262213260326515
1773065511831589632,1.2171177864074707,1.1039310693740845,0.06751025468111038,0.050496045500040054,0.8890037536621094,-0.3049587309360504,0.34157395362854004,0.027591824531555176,0.774990439414978,-0.22424909472465515,0.556798754296634,0.44491997903492353,0.6876286671464649,-0.1385217488036319,0.3098950939116558,1.9376265832202957,-0.9347603441832629
1773065511841627648,1.2271556854248047,1.518943190574646,-0.1630856841802597,0.16846954822540283,0.8888007998466492,-0.30134811997413635,0.3452863395214081,0.3563622236251831,0.6544822454452515,-0.24943065643310547,0.553992701245288,0.44911702675684884,0.6862485469716318,-0.1429999304873853,0.3061061830801232,1.9413372967723588,-0.9486497725564951
1773065511851665408,1.2371935844421387,0.8974171876907349,-0.27053597569465637,0.09462329000234604,0.8891663551330566,-0.29823219776153564,0.3470459282398224,0.41202694177627563,0.29624852538108826,-0.2834624946117401,0.5520264659409008,0.45293656919147024,0.6843766694690719,-0.14745808211660122,0.3028400398658088,1.9429169484967144,-0.9615490433822577
1773065511861703680,1.2472317218780518,0.11288747936487198,-0.36460334062576294,-0.07790054380893707,0.8902608156204224,-0.2965964078903198,0.34563910961151123,0.22042644023895264,0.18725189566612244,-0.07288825511932373,0.5520276443763495,0.4540431787244215,0.6831283574394494,-0.14981984413926064,0.3011267086219399,1.9411280005634777,-0.9662696445849068
1773065511871741440,1.2572696208953857,-0.3136635422706604,-0.39782747626304626,-0.11824676394462585,0.8919410705566406,-0.2960484027862549,0.34175539016723633,0.0199090838432312,0.144635409116745,0.012889474630355835,0.5535754106284002,0.45302377818818,0.6823834301019926,-0.1505878004649933,0.3005529433796116,1.9367009578111212,-0.9646256242077853
1773065511881779712,1.2673077583312988,-0.3444262444972992,-0.33061355352401733,-0.09727304428815842,0.8934880495071411,-0.2963181734085083,0.33745327591896057,-0.07489985227584839,0.0514909029006958,0.020044922828674316,0.555533389867372,0.4514425478370901,0.6818550179500443,-0.15051927798063022,0.3008353752182514,1.931915203032253,-0.9608633098960815
1773065511891817472,1.2773456573486328,-0.22244520485401154,-0.290403813123703,-0.21201613545417786,0.894962728023529,-0.29594647884368896,0.33385294675827026,-0.1226542592048645,-0.030286461114883423,0.0783633291721344,0.5571188114395388,0.4498917967223334,0.6815598605722966,-0.15063965971861706,0.3004462280707464,1.9278436568286688,-0.9574658469786088
1773065511901855744,1.287383794784546,0.022702496498823166,-0.18076041340827942,-0.29506227374076843,0.8965620994567871,-0.29393020272254944,0.33133256435394287,-0.16845858097076416,-0.08270245790481567,0.15707072615623474,0.5579998538667188,0.4484953452667385,0.681555722146041,-0.15155801663481333,0.298336093054071,1.9247882491263963,-0.9554225928172311
1773065511911893504,1.2974216938018799,0.24729712307453156,-0.12307435274124146,-0.15066982805728912,0.8977285623550415,-0.2913051247596741,0.3304917514324188,-0.142372727394104,-0.15176430344581604,0.1539442241191864,0.5579703468333458,0.44799120340143217,0.6815788702239054,-0.1530464784095588,0.29559084655116635,1.923541152514491,-0.9560198069560919
1773065511921931520,1.3074595928192139,0.26133251190185547,-0.1454097479581833,0.00684257410466671,0.8983738422393799,-0.2898704409599304,0.3299993872642517,-0.026044130325317383,-0.2295081913471222,0.10316717624664307,0.5578062738959304,0.4484154756790169,0.6811191168692488,-0.15444251161008968,0.2940914598241607,1.9228254329585301,-0.958410228475224
1773065511931969536,1.317497730255127,0.12154673784971237,-0.12186074256896973,0.0031189422588795424,0.8987693786621094,-0.2893366515636444,0.32939019799232483,0.02396005392074585,-0.2143559753894806,0.05772528052330017,0.5578170536354335,0.4489254101173148,0.6805593800314372,-0.15538677657584676,0.29353376622222915,1.9220855679645896,-0.9604427018258802
1773065511942007552,1.327535629272461,-0.1585586816072464,-0.1146845817565918,-0.13049371540546417,0.8993306159973145,-0.2888011634349823,0.32832637429237366,-0.01764732599258423,-0.11400032043457031,0.019940227270126343,0.5581827687161067,0.44858916515244945,0.680390288749476,-0.15578435723243444,0.2929744002849019,1.920840544446532,-0.9601068215786096
1773065511952045568,1.337573766708374,-0.42323964834213257,-0.15674376487731934,-0.24678929150104523,0.9003361463546753,-0.28803879022598267,0.32623377442359924,-0.03284353017807007,0.015318453311920166,0.003783315420150757,0.5591650538376743,0.4469969319559282,0.680669251122632,-0.15561988982902872,0.29217818684155716,1.9184277566555243,-0.9565043310053262
1773065511962083584,1.347611665725708,-0.4950943887233734,-0.14950236678123474,-0.26762744784355164,0.9016150236129761,-0.287174254655838,0.3234521150588989,0.0019799470901489258,0.10573196411132812,0.005725741386413574,0.5605512506341258,0.44463517839018646,0.6811942532570628,-0.1551006617289826,0.2912755203825381,1.915242643025322,-0.9508916452567275
1773065511972121600,1.357649803161621,-0.34026288986206055,-0.13698722422122955,-0.19271473586559296,0.9027374982833862,-0.2864774763584137,0.320929616689682,0.02119743824005127,0.12160629034042358,-0.015830159187316895,0.5618145374601471,0.44252562889077324,0.6816420422771303,-0.15459520535139656,0.29054818811346694,1.912368821060285,-0.9458366260775766
1773065511982159616,1.367687702178955,-0.11711874604225159,-0.12132304906845093,-0.09061606973409653,0.9035627245903015,-0.28589874505996704,0.3191179037094116,0.019944965839385986,0.08637481927871704,-0.02170884609222412,0.5626394909761033,0.44131068908423204,0.6817652246713096,-0.1545245289226903,0.28994418740371436,1.910298939414533,-0.9431443880383525
1773065511992197632,1.377725601196289,0.017470229417085648,-0.05899549275636673,-0.04155558720231056,0.90402752161026,-0.28548943996429443,0.31816715002059937,0.017115116119384766,0.09188589453697205,0.0423676073551178,0.5630054888688912,0.44088837660711017,0.6816898211347241,-0.15472999579575364,0.28951706857811615,1.9092020214835044,-0.942439903822559
1773065512002235648,1.3877637386322021,0.19827862083911896,0.011269348673522472,-0.04344909265637398,0.9042196869850159,-0.28477156162261963,0.31826454401016235,0.02278238534927368,0.13929429650306702,0.1642489731311798,0.5628174518225826,0.4410211569742084,0.6816396464437606,-0.15525596636524347,0.28876811637533323,1.909231302900413,-0.9433239884487178
1773065512012273664,1.3978016376495361,0.3559361696243286,0.01977495290338993,-0.04970858618617058,0.9042950868606567,-0.2834339141845703,0.31924259662628174,0.03268623352050781,0.14964482188224792,0.18184080719947815,0.5620882982524034,0.44167429653011425,0.6815754664811524,-0.15631870522736535,0.28737298323606697,1.9101672388334285,-0.9459595376591705
1773065512022310400,1.4078385829925537,0.33628734946250916,0.001057990943081677,-0.09216629713773727,0.9044610261917114,-0.28165575861930847,0.32034415006637573,0.030704379081726074,0.13671252131462097,0.09808242321014404,0.5612073660898639,0.44245184086778416,0.6814752001307745,-0.1577157197838985,0.2855192952102208,1.9111922285544565,-0.949243497322498
1773065512032348672,1.4178767204284668,0.3360346257686615,0.020747005939483643,-0.11384682357311249,0.904726505279541,-0.2796231806278229,0.32137346267700195,0.0027747750282287598,0.10175147652626038,0.035483866930007935,0.5603564332901286,0.44300349313971404,0.6814944193283826,-0.1591036663019585,0.283401624728361,1.9121104758339784,-0.9520623331359106
1773065512042386432,1.4279146194458008,0.39341774582862854,0.004084406886249781,-0.0425015389919281,0.9048939347267151,-0.2777095139026642,0.32255956530570984,-0.004777848720550537,0.055053263902664185,-0.04913732409477234,0.5594131279357824,0.4437847829601738,0.6814212000311095,-0.16055308141407892,0.28140902020837655,1.9132155749233843,-0.9554246420679899
1773065512052424704,1.4379527568817139,0.35847172141075134,-0.04228881746530533,-0.04924586042761803,0.905053436756134,-0.27612271904945374,0.3234727084636688,0.05945461988449097,0.04795807600021362,-0.11145186424255371,0.5585895292634735,0.4446984555276733,0.6811605122636832,-0.16199197388268677,0.27975765144047465,1.9140547957515497,-0.9590078824484837
1773065512062462464,1.4479906558990479,0.3793948292732239,-0.09887726604938507,-0.1338329166173935,0.9055458307266235,-0.2740996778011322,0.3238154947757721,0.11477905511856079,0.0657866895198822,-0.11010083556175232,0.5579492278721273,0.44534654389748835,0.6808628398080849,-0.16366133108000883,0.27765340650132314,1.914218119529587,-0.9622729484973237
1773065512072500736,1.458028793334961,0.37758785486221313,-0.11428111791610718,-0.14843089878559113,0.9063150882720947,-0.2715121805667877,0.32384246587753296,0.11664927005767822,0.05090060830116272,-0.10196438431739807,0.5573518699811102,0.4458319309519922,0.6805550079184127,-0.16564300167420493,0.2749638781441688,1.9139753571992646,-0.9655486384914748
1773065512082538496,1.468066692352295,0.4251718819141388,-0.07068437337875366,-0.11770255118608475,0.9069578051567078,-0.26899948716163635,0.3241405189037323,0.09443086385726929,0.017412543296813965,-0.0185222327709198,0.5566417962109274,0.44641720911064137,0.6802807751332289,-0.16757012830431892,0.2723540710916234,1.9140422376050668,-0.968991373292353
1773065512092576512,1.478104591369629,0.5297796726226807,-0.026694810017943382,-0.10763074457645416,0.9074116349220276,-0.26644986867904663,0.32497480511665344,0.05891221761703491,-0.00805574655532837,0.06980058550834656,0.5556503473595412,0.4473210695725542,0.6799935793650056,-0.16960333769020705,0.2697078441894914,1.914698874874994,-0.9732491155372927
1773065512102614528,1.488142728805542,0.5679478049278259,0.013432901352643967,-0.11248062551021576,0.9077291488647461,-0.2636142075061798,0.3263976275920868,0.038025856018066406,-0.0024532675743103027,0.09263920783996582,0.5543235557059716,0.4484922821335952,0.679745159021842,-0.17183311432574433,0.266767042503173,1.9159764995308741,-0.9783308428626316
1773065512112652544,1.498180627822876,0.5291879773139954,0.04224231094121933,-0.11839137226343155,0.9079407453536987,-0.2607547640800476,0.32810166478157043,0.04268181324005127,0.0034610629081726074,0.10215044021606445,0.5528886299620068,0.44964698324548513,0.6796090179105494,-0.1739637417051342,0.2638039205387271,1.9175633271880255,-0.9832940757847413
1773065512122690560,1.508218765258789,0.4680759012699127,0.03376121073961258,-0.10975607484579086,0.9081102013587952,-0.25804781913757324,0.32976850867271423,0.06367629766464233,-0.019707918167114258,0.07400953769683838,0.5515204553326102,0.45067354220945555,0.6795422056731498,-0.17590044218667827,0.26100102710328826,1.9191263002094823,-0.98777249685381
1773065512132728576,1.518256664276123,0.38765260577201843,0.03587016463279724,-0.09660245478153229,0.9082608222961426,-0.2556915581226349,0.3311859369277954,0.07762479782104492,-0.025604188442230225,0.024099677801132202,0.5503455867808227,0.4515268258156732,0.6794972340684998,-0.17755777829025157,0.2585629677174735,1.9204512424862812,-0.9915544676650587
1773065512142766592,1.5282948017120361,0.36036771535873413,0.040588755160570145,-0.1075294017791748,0.9083979725837708,-0.253506064414978,0.33248695731163025,0.0676456093788147,-0.005664408206939697,-0.003095567226409912,0.5492790535506197,0.45222945673357196,0.679508642338736,-0.1790221989908623,0.2563030142406474,1.9216662493499812,-0.9947989406359743
1773065512152804608,1.5383327007293701,0.3953588008880615,0.0622200146317482,-0.09341838210821152,0.9084914922714233,-0.25130125880241394,0.33390235900878906,0.059632837772369385,5.003809928894043e-05,-0.01050761342048645,0.5481555203532555,0.4529665859972933,0.6795384071246567,-0.18048355500347624,0.25402441850544594,1.9230062610863228,-0.9981197157609352
1773065512162842624,1.548370599746704,0.4682777523994446,0.09231533110141754,-0.09143512696027756,0.9084631204605103,-0.24901020526885986,0.3356914222240448,0.07041871547698975,0.00041399896144866943,0.020936965942382812,0.5468265577151709,0.4539053140543931,0.67957021247283,-0.18203030772596968,0.2516581401845069,1.9247502219498454,-1.0019784463752064
1773065512172880640,1.5584087371826172,0.5091956853866577,0.15658806264400482,-0.09168306738138199,0.9082753658294678,-0.2464975267648697,0.33804556727409363,0.07884621620178223,0.004416823387145996,0.09057378768920898,0.5451963133814861,0.45504816525364306,0.6796719464553997,-0.18367952056069958,0.24906459919114338,1.9270959186006364,-1.0064176935127997
1773065512182918656,1.5684466361999512,0.5538675785064697,0.2319139689207077,-0.0790061503648758,0.9078248739242554,-0.24389691650867462,0.3411277234554291,0.08126503229141235,-0.0035243183374404907,0.13824233412742615,0.5432379307756553,0.45637946337087987,0.6799129731697983,-0.18527985453108023,0.24638209756839755,1.9302364682717899,-1.0112424953193617
1773065512192956672,1.5784847736358643,0.592668354511261,0.27344968914985657,-0.07418982684612274,0.9071295857429504,-0.24120165407657623,0.34487295150756836,0.10461950302124023,-0.03461621701717377,0.13898319005966187,0.5409616022533389,0.45793393206534383,0.680244798849468,-0.1868795573559564,0.24360387248832877,1.9341010084288077,-1.0165723119352879
1773065512202994688,1.5885226726531982,0.5587298274040222,0.3046230673789978,-0.06154194474220276,0.9062814116477966,-0.23854446411132812,0.3489282727241516,0.13275068998336792,-0.06325913965702057,0.11025455594062805,0.5385609228089318,0.4595478190594146,0.6806467049861203,-0.1883829987982231,0.2408667664513161,1.9383147021527962,-1.0219347192025867
1773065512213032448,1.5985605716705322,0.4972645044326782,0.3281935155391693,-0.0647575706243515,0.9053266048431396,-0.23609767854213715,0.3530462682247162,0.14752984046936035,-0.056901589035987854,0.08840572834014893,0.5362086822342639,0.4610359856609056,0.6811526679932168,-0.1896236537861769,0.23834802965890797,1.9426225816218499,-1.026740379715696
1773065512223070720,1.6085987091064453,0.5116152763366699,0.36477577686309814,-0.057340942323207855,0.9042581915855408,-0.23366142809391022,0.3573789596557617,0.14652317762374878,-0.028026819229125977,0.06603720784187317,0.5337863133800128,0.4624901014783831,0.6817568360904646,-0.19074275265147822,0.23584165178434108,1.94717334704238,-1.031352015300987
1773065512233107456,1.618635654449463,0.5327156782150269,0.40617790818214417,-0.02616317942738533,0.9029560685157776,-0.231320321559906,0.3621617555618286,0.14710795879364014,-0.030154258012771606,0.0429743230342865,0.5311747431503905,0.46410476735552775,0.6824130986117144,-0.19176151100269034,0.23343460047093975,1.9522373266612005,-1.0362077312741753
1773065512243145728,1.628673791885376,0.5481345653533936,0.474408894777298,-0.00795967411249876,0.9013851881027222,-0.22916145622730255,0.36740967631340027,0.1403781771659851,-0.04687000811100006,0.09482479095458984,0.5283773408276231,0.4659131883194575,0.683103018639243,-0.19264625777255376,0.2312161330855669,1.9578420312670681,-1.0413388029876516
1773065512253183488,1.63871169090271,0.5256486535072327,0.5529507398605347,-0.03324918448925018,0.8995237946510315,-0.2269708216190338,0.3732847571372986,0.11436182260513306,-0.06395328044891357,0.17735913395881653,0.5253356884673314,0.4677550862358031,0.6839938288432099,-0.1933395066709672,0.2289661959788424,1.9641497729504933,-1.0463683318663273
1773065512263221504,1.648749589920044,0.504099428653717,0.6158117055892944,-0.07861053943634033,0.8974319100379944,-0.22450220584869385,0.3797559142112732,0.07940518856048584,-0.08172638714313507,0.21950238943099976,0.522043423342543,0.4694948557177055,0.6851660706546527,-0.19388817255978436,0.22643217517188116,1.9711061728957757,-1.0510713929072026
1773065512273259520,1.658787727355957,0.4571590721607208,0.6661255955696106,-0.1092628613114357,0.8951826691627502,-0.22176173329353333,0.3866126537322998,0.06065821647644043,-0.0886935442686081,0.16335979104042053,0.5185963195903165,0.4710504440544973,0.6865987183951311,-0.1942971343636082,0.2236208123498957,1.978481029227947,-1.0552670608528867
1773065512283297536,1.668825626373291,0.40376773476600647,0.7571950554847717,-0.0889597162604332,0.8926268219947815,-0.21917520463466644,0.39392825961112976,0.05830085277557373,-0.08278094232082367,0.11428087949752808,0.515036227018816,0.47249994202277845,0.688264441366088,-0.19435405915827172,0.22096903463995676,1.9864031331331178,-1.0588773807091527
1773065512293335552,1.678863763809204,0.520767867565155,0.836223840713501,-0.058561064302921295,0.8896030783653259,-0.2167070358991623,0.4020497500896454,0.07650691270828247,-0.07349984347820282,0.09926238656044006,0.5111329059366877,0.47418236801441427,0.6900550429446712,-0.19421159463180507,0.21844008679313284,1.9952647511187434,-1.0628029654455808
1773065512303373568,1.688901662826538,0.6836017966270447,0.9619373083114624,-0.04271285980939865,0.8860587477684021,-0.21377533674240112,0.41133955121040344,0.09062594175338745,-0.06529268622398376,0.09497767686843872,0.5065276071856345,0.4764403122864672,0.6918629944310764,-0.1943195448900486,0.215438015157605,2.005424883121208,-1.0682908287517183
1773065512313411840,1.6989398002624512,0.7581396102905273,1.0410224199295044,-0.027134567499160767,0.8818973898887634,-0.21041694283485413,0.4218791723251343,0.0999753475189209,-0.06791862845420837,0.042247474193573,0.5012224072980496,0.47915428531973947,0.6937944664832965,-0.19451638498082544,0.21200143428939516,2.016996159337448,-1.0749213395192987
1773065512323449600,1.7089776992797852,0.5595905780792236,1.0096445083618164,-0.040543582290410995,0.8775587677955627,-0.20725291967391968,0.4323621690273285,0.1369372010231018,-0.09497791528701782,-0.05403560400009155,0.49597800484285115,0.48176095499175126,0.6957639428834229,-0.194486040314167,0.2087660764188356,2.028576768144034,-1.0810792959739408
1773065512333487616,1.7190155982971191,0.2064271867275238,1.0359594821929932,-0.09924657642841339,0.873234748840332,-0.20498749613761902,0.4420875012874603,0.16063982248306274,-0.11181551218032837,-0.05475836992263794,0.49143803426932686,0.48343722152526303,0.6980918318326218,-0.1935070516910398,0.2064509271564752,2.039442728103381,-1.084203427878493
1773065512343525632,1.7290537357330322,0.06347322463989258,1.1560536623001099,-0.060513030737638474,0.8684873580932617,-0.20372755825519562,0.4519125819206238,0.10488617420196533,-0.11025255918502808,0.07144862413406372,0.48723174535592,0.48445752947546206,0.700897423997613,-0.19143929445592606,0.2051638319089135,2.050586727441251,-1.0847882122082266
1773065512353563648,1.7390916347503662,0.19832874834537506,1.2324724197387695,0.024700799956917763,0.8630102276802063,-0.2030678540468216,0.4625764787197113,0.08166152238845825,-0.0904502123594284,0.14460128545761108,0.4827050402273872,0.48583713853975824,0.7037403768422905,-0.18896472498736724,0.2044900460700405,2.0628301881033635,-1.0857796514655171
1773065512363601664,1.7491297721862793,0.40977999567985535,1.28996741771698,0.03009955957531929,0.8569914698600769,-0.20187081396579742,0.4741457998752594,0.09997886419296265,-0.03323663771152496,0.10204142332077026,0.47749151134478796,0.48788695834437484,0.706427079745149,-0.18689328258782703,0.20326768218779204,2.0761449674520267,-1.0887206242097869
1773065512373639680,1.7591676712036133,0.44064781069755554,1.3675625324249268,0.030172530561685562,0.8505470752716064,-0.20000898838043213,0.4863806962966919,0.10916972160339355,0.0030332952737808228,0.014397501945495605,0.4717411071117336,0.4902601795966917,0.7091088094351896,-0.1851216399257795,0.2013670945611182,2.0902559498115227,-1.0927498731541885
1773065512383677696,1.7692058086395264,0.45715010166168213,1.4525318145751953,0.06065933406352997,0.8434669971466064,-0.19819553196430206,0.4992814064025879,0.14177775382995605,-0.005463525652885437,0.02488851547241211,0.4656494346978769,0.4927684373239353,0.7119128926535548,-0.1831116980030466,0.19951658768355895,2.1052678750992873,-1.096905683260568
1773065512393715712,1.7792437076568604,0.3814728260040283,1.5200634002685547,0.06895828247070312,0.835781455039978,-0.1966058611869812,0.5126551389694214,0.17195463180541992,-0.0427740216255188,0.04894453287124634,0.4593278763443958,0.495377414215579,0.714792826971876,-0.1808044560114329,0.19789500287628334,2.1209990790454576,-1.1010538934885206
1773065512403753472,1.7892816066741943,0.2770654559135437,1.6037559509277344,0.03582002967596054,0.8275406956672668,-0.19533415138721466,0.5263281464576721,0.14641273021697998,-0.07897312939167023,0.051262855529785156,0.4529487972670627,0.49771570697676587,0.7179436971926189,-0.17797030021821306,0.19659815293004781,2.1372772366977983,-1.1041683075917836
1773065512413790720,1.799318790435791,0.24247166514396667,1.6522303819656372,0.04332708194851875,0.8187404274940491,-0.19425936043262482,0.5403032302856445,0.0946965217590332,-0.10499599575996399,0.03022289276123047,0.4464485507490757,0.4998706084033967,0.7213050703693255,-0.1747344307362293,0.19550236616979688,2.1541136757183414,-1.106578508006093
1773065512423828480,1.809356689453125,0.2288392037153244,1.6996666193008423,0.07892049103975296,0.8093906044960022,-0.19347430765628815,0.5544862151145935,0.10111671686172485,-0.09949447214603424,-0.03161323070526123,0.43982159131575327,0.5020551842348929,0.724695594374759,-0.17121334451755127,0.19470213558110958,2.1714291845641758,-1.108869317279182
1773065512433866496,1.819394588470459,0.34865307807922363,1.7861804962158203,0.14307883381843567,0.799331545829773,-0.19275322556495667,0.5691353678703308,0.1328125,-0.05765873193740845,-0.043760061264038086,0.43283466964805856,0.5045443683427889,0.7280128158624471,-0.16759002041524418,0.1939672192373273,2.1895400250151096,-1.1118489065766308
1773065512443904512,1.829432725906372,0.4839523136615753,1.8147014379501343,0.22777988016605377,0.7885639071464539,-0.19171905517578125,0.5843032002449036,0.16329443454742432,-0.01541900634765625,-0.02818155288696289,0.42530474539195856,0.5076471794588757,0.7310580934553795,-0.16420750909704324,0.19291339102715427,2.208493952037889,-1.116533159164568
1773065512453942528,1.839470624923706,0.4741828441619873,1.8594530820846558,0.2615286707878113,0.7771962285041809,-0.19080714881420135,0.599632203578949,0.18488579988479614,0.03248192369937897,-0.008491456508636475,0.417539574794155,0.5110641924445709,0.7339138193923243,-0.16076268067362925,0.19198433294840403,2.2279364607712933,-1.12196880957869
1773065512463980800,1.8495087623596191,0.48589247465133667,1.8596495389938354,0.26040056347846985,0.7653273344039917,-0.1898537576198578,0.6150038838386536,0.1734696626663208,0.05136500298976898,0.03457808494567871,0.40961054551471465,0.5145215946286859,0.7367289043126047,-0.15721738897509577,0.19101318789426053,2.2477180983271956,-1.1275203515706447
1773065512474018560,1.8595466613769531,0.428208589553833,1.7886830568313599,0.2762010991573334,0.7534089088439941,-0.18905122578144073,0.6297895312309265,0.16927480697631836,0.014185518026351929,-0.0031110048294067383,0.40187567768088844,0.5178647443269159,0.739398988633004,-0.15362697710842663,0.19019586045120274,2.2670591595831873,-1.1328538860707358
1773065512484056832,1.8695847988128662,0.4041072428226471,1.752366065979004,0.2648871839046478,0.7416022419929504,-0.18848273158073425,0.643817126750946,0.16248100996017456,-0.014916926622390747,0.01202094554901123,0.39444805777916075,0.5210592365607782,0.7418934102412658,-0.15000731891870467,0.18961695051220942,2.2857297529933387,-1.1378917322736772
1773065512494094592,1.8796226978302002,0.43025100231170654,1.778473138809204,0.23307985067367554,0.7295739650726318,-0.18765756487846375,0.6576521992683411,0.14029908180236816,-0.01705433428287506,0.023118674755096436,0.3869643673354247,0.5241020667859385,0.7444078954260839,-0.14639829072483262,0.18877679592003782,2.3043951244691376,-1.1426948309614335
1773065512504132608,1.8896605968475342,0.4188838303089142,1.7196699380874634,0.27402248978614807,0.7174399495124817,-0.18656733632087708,0.6711724400520325,0.15730059146881104,-0.03820987045764923,-0.04753047227859497,0.37945348410862245,0.5271360788639559,0.7468023681424925,-0.14292931724380795,0.18766697053642986,2.3228875959980715,-1.147676763149066
1773065512514170624,1.8996987342834473,0.40027156472206116,1.7074134349822998,0.32421013712882996,0.7052311897277832,-0.18593953549861908,0.6841603517532349,0.19522041082382202,-0.06691382825374603,-0.03363245725631714,0.37215519927074553,0.5302600239732733,0.7489355694980074,-0.13935678772594512,0.18702799064120512,2.3410301374657143,-1.1528480819174682
1773065512524208640,1.9097366333007812,0.5725022554397583,1.775104284286499,0.3453769385814667,0.6924652457237244,-0.18501107394695282,0.697325587272644,0.1282440423965454,-0.03526480495929718,0.15643423795700073,0.36453012224475356,0.5336196758542058,0.7509413035363772,-0.1358493761325468,0.18608313303929558,2.359691656222378,-1.158729407674159
1773065512534246656,1.9197747707366943,0.6902093291282654,1.7681844234466553,0.33527132868766785,0.6793060302734375,-0.1828741878271103,0.7107040882110596,0.0255279541015625,0.03359745442867279,0.15973353385925293,0.35635988952766773,0.5372745742190248,0.7527868774672639,-0.13287427918652814,0.1839091500941681,2.378779018171932,-1.165810978019188
1773065512544284672,1.9298126697540283,0.7279196977615356,1.8568944931030273,0.27588310837745667,0.6657071113586426,-0.17977431416511536,0.7242340445518494,-0.041637957096099854,0.06635573506355286,0.019036710262298584,0.3477716948382916,0.5408899285683927,0.7546887491203794,-0.13014510929269912,0.18075702353556805,2.3982771084742542,-1.1730833872733815
1773065512554322688,1.9398508071899414,0.5628223419189453,1.8972513675689697,0.316728413105011,0.6513646841049194,-0.17688822746276855,0.737858235836029,-0.08117425441741943,-0.0070564597845077515,-0.030537009239196777,0.33903160274210403,0.5443341040665605,0.7567228648587178,-0.12699807440581273,0.1778239255015703,2.4183745930235143,-1.179751936438499
1773065512564360704,1.9498887062072754,0.4263952970504761,1.9641313552856445,0.427350252866745,0.6363275647163391,-0.17557959258556366,0.7511715888977051,0.023965835571289062,-0.10167255997657776,-0.0005307793617248535,0.3305881880173497,0.5477833488669009,0.7586298096047799,-0.12298608120165752,0.1764944779612071,2.4387767518711985,-1.1859160528606723
1773065512574398464,1.9599266052246094,0.38460013270378113,2.007984161376953,0.5101011991500854,0.6203089952468872,-0.17559807002544403,0.7644490599632263,0.08412832021713257,-0.12216195464134216,0.12465023994445801,0.3221887789358346,0.5514423820605967,0.7603524364380343,-0.11819454528966655,0.17651324936736912,2.4599114008801073,-1.192189902044677
1773065512584436736,1.9699647426605225,0.5268722772598267,2.016359567642212,0.5336560606956482,0.60386723279953,-0.17534512281417847,0.7775593400001526,0.02699214220046997,-0.07135897874832153,0.1383800506591797,0.3135895548673429,0.5553144281567018,0.7618435285474853,-0.11349868651790405,0.17625631747783937,2.481271981551177,-1.1991889471838997
1773065512594473984,1.9800021648406982,0.6741869449615479,2.0586867332458496,0.5552220940589905,0.5868362188339233,-0.1737683117389679,0.790839672088623,-0.05277872085571289,0.01822023093700409,0.09278136491775513,0.304362841013598,0.5594817945348131,0.7631513294326802,-0.10928541889039911,0.17465491363567112,2.5032041701220358,-1.2073668762476297
1773065512604512000,1.9900400638580322,0.753826916217804,2.04409122467041,0.5836742520332336,0.5694466233253479,-0.171388179063797,0.8039630055427551,-0.044605374336242676,0.0754561573266983,-0.06374400854110718,0.29481357866928404,0.5638310537209886,0.7642486855968911,-0.10537271867632347,0.17223852343013787,2.5253182492664945,-1.2162996484408142
1773065512614549760,2.000077962875366,0.788443922996521,2.0871999263763428,0.6453620791435242,0.5515885353088379,-0.16842319071292877,0.8169358372688293,0.00721895694732666,0.03443574905395508,-0.038081347942352295,0.2849625400836361,0.5683899747163781,0.765114867353465,-0.10162951520249593,0.1692297941619887,2.5477110975955433,-1.2259655015492774
1773065512624588032,2.0101161003112793,0.7260804176330566,2.1284780502319336,0.6905617713928223,0.5330447554588318,-0.16592900454998016,0.8296569585800171,0.03478050231933594,-0.02022819221019745,0.02524709701538086,0.27506881197819594,0.5730806067769532,0.7657722163407668,-0.09751215453651865,0.1667000019330742,2.5705163053041145,-1.2358732749777295
1773065512634625792,2.0201539993286133,0.7294999361038208,2.194913387298584,0.6958080530166626,0.5137659311294556,-0.16343790292739868,0.8422186374664307,0.026517152786254883,-0.02630510926246643,0.10954815149307251,0.26498185612900466,0.5777660725499204,0.7663521970188675,-0.09314068918695062,0.16417442121970124,2.5938417887302347,-1.2457886913375595
1773065512644664064,2.0301921367645264,0.7122719287872314,2.2200775146484375,0.7170091867446899,0.49383652210235596,-0.1608511507511139,0.8545480370521545,0.013975977897644043,-0.03131803870201111,0.07162988185882568,0.25471358724384285,0.5824365449698753,0.7668387688222,-0.08858306325084392,0.16155297087300735,2.6175876307170083,-1.255733268886662
1773065512654701824,2.0402300357818604,0.595695972442627,2.267958164215088,0.6730507016181946,0.4733477830886841,-0.1585926115512848,0.8664817214012146,0.026942193508148193,-0.026954278349876404,0.016880154609680176,0.244463321120674,0.5869185429490469,0.767311865538576,-0.08364753634691233,0.15926506740982288,2.6416045134532844,-1.2651945238492304
1773065512664740096,2.0502681732177734,0.6582309603691101,2.3140499591827393,0.6279810070991516,0.4522641897201538,-0.1562422662973404,0.8780920505523682,0.0003725290298461914,-0.0236130952835083,0.009206533432006836,0.23409163528184418,0.5910785055795262,0.7679011808378271,-0.07845462998537675,0.15688503668654674,2.665975081070826,-1.2739197788717105
1773065512674778112,2.0603060722351074,0.6389288902282715,2.3642032146453857,0.6789188385009766,0.430499404668808,-0.15324939787387848,0.889485776424408,-0.009524703025817871,-0.07219918072223663,-0.002492368221282959,0.2233481394384177,0.5952456500634605,0.768391511551726,-0.07329897197790386,0.15385568409771003,2.690837444911728,-1.282859932509541
1773065512684815872,2.0703439712524414,0.5292823314666748,2.421616315841675,0.678962230682373,0.40796440839767456,-0.15096105635166168,0.9004310965538025,0.0442604124546051,-0.1145419031381607,0.027669668197631836,0.21263880156028966,0.5993540947005463,0.7687588748207227,-0.06759650030278168,0.1515403961980726,2.716183025408993,-1.2916149165240982
1773065512694854144,2.0803821086883545,0.5787797570228577,2.4232680797576904,0.6757789850234985,0.38488301634788513,-0.1486644446849823,0.9109139442443848,0.052479714155197144,-0.1069813072681427,0.10436022281646729,0.20183729584789903,0.6033123937739012,0.7690716041654502,-0.06168309873683315,0.1492175722000141,2.7418210548840687,-1.300112937896581
1773065512704891904,2.0904200077056885,0.5674610137939453,2.4329681396484375,0.7256083488464355,0.36158227920532227,-0.14594139158725739,0.9208471179008484,0.03601595759391785,-0.07172520458698273,0.05823308229446411,0.19092897416898333,0.6073015398289495,0.7691608448782017,-0.05588007109082854,0.14646448887744487,2.767427524546868,-1.3089167990209314
1773065512714930176,2.1004581451416016,0.6349934935569763,2.498194694519043,0.7401134967803955,0.3376300632953644,-0.1430673450231552,0.9303426742553711,0.02411004900932312,-0.0066824257373809814,0.034394145011901855,0.17982051232905835,0.6113502398765438,0.769039809258735,-0.049931932071018974,0.14355994723092827,2.7934639048127368,-1.318025135800875
1773065512724967936,2.1104960441589355,0.741483747959137,2.526097297668457,0.7128989100456238,0.313035249710083,-0.13892535865306854,0.9395257234573364,0.018889158964157104,0.025842487812042236,0.0800359845161438,0.16816493246911624,0.6153496001537647,0.7688353126171116,-0.04424555820018365,0.13937616159972174,2.819976211199857,-1.327284312476499
1773065512735006208,2.1205341815948486,0.6514542698860168,2.5807435512542725,0.7209993004798889,0.2878352999687195,-0.13429680466651917,0.9482167959213257,0.05904272198677063,-0.02386052906513214,-0.010259091854095459,0.15623381801117336,0.619208092691408,0.7685634268890541,-0.038504100478706754,0.1347038019875703,2.846878222598887,-1.3363526300719013
1773065512745043968,2.1305720806121826,0.46191123127937317,2.6182992458343506,0.7178375720977783,0.26203733682632446,-0.13107453286647797,0.9561150074005127,0.12495607137680054,-0.10027924180030823,-0.018889665603637695,0.14464003712045823,0.6228696991811682,0.7681736957753451,-0.03196494870117281,0.1314527806692196,2.874096215654593,-1.344925316853007
1773065512755081984,2.1406099796295166,0.5338857173919678,2.6622731685638428,0.6972634792327881,0.2356710135936737,-0.12818577885627747,0.9633418917655945,0.1269998848438263,-0.11296413838863373,0.08934664726257324,0.13304668071594747,0.6262977216417701,0.7677383065464367,-0.025052736784899943,0.12853944540110712,2.901665952774872,-1.3530504761785722
1773065512765120000,2.1506481170654297,0.6222243309020996,2.6649727821350098,0.7202316522598267,0.20894263684749603,-0.12400761991739273,0.9700337052345276,0.08315639197826385,-0.06445369869470596,0.05245792865753174,0.12100037276135643,0.6296961602265999,0.7671372751252988,-0.01849689812524466,0.12432766916940971,2.9294367756707818,-1.3613832616900883
1773065512775156992,2.1606850624084473,0.5529757738113403,2.7122068405151367,0.7152804136276245,0.18181650340557098,-0.11972416937351227,0.9760169982910156,0.0993267148733139,0.005191691219806671,-0.055438876152038574,0.10886711905769428,0.633013673563846,0.7663564379818263,-0.011812115641626687,0.12001204755185553,2.9574195197616913,-1.3696986154655573
1773065512785194752,2.1707229614257812,0.6068355441093445,2.7390859127044678,0.6740533709526062,0.15419581532478333,-0.11521506309509277,0.9812998175621033,0.13141819834709167,-0.014713525772094727,-0.019980788230895996,0.09656740411615489,0.6360916146393327,0.7655307738848853,-0.004987630283025672,0.11547150182052247,2.985732843764528,-1.3775928066695864
1773065512795233024,2.1807610988616943,0.5481868386268616,2.746994733810425,0.675193190574646,0.1263858824968338,-0.11038868874311447,0.985819935798645,0.1472957581281662,-0.11643321812152863,0.04024207592010498,0.08418228766155189,0.6389681373883669,0.7646108097721137,0.0018369385632509996,0.11061411682507676,3.014084380979099,-1.3851715298770775
1773065512805270784,2.1907989978790283,0.4661484360694885,2.7982256412506104,0.6640633344650269,0.09817127138376236,-0.10621970146894455,0.9894845485687256,0.14430613815784454,-0.13976722955703735,0.02249354124069214,0.07193626521581936,0.6416636142893475,0.7635509596817234,0.00910347594535554,0.10642046396068218,3.042701726324884,-1.392479513322687
1773065512815309056,2.2008371353149414,0.5449991822242737,2.851059675216675,0.66655033826828,0.06936121731996536,-0.10180800408124924,0.9923831224441528,0.12355566024780273,-0.08427292853593826,0.030733942985534668,0.05945803172944404,0.6442002123091515,0.762363192621542,0.016529032307985435,0.10198470152397641,3.0718125439796142,-1.3996105792845353
1773065512825347072,2.2108750343322754,0.6324669718742371,2.91660213470459,0.6160852909088135,0.03997068107128143,-0.0962865948677063,0.9945504665374756,0.12633484601974487,-0.046871334314346313,0.04406923055648804,0.046463196801030164,0.6465188955681025,0.7611100817119939,0.023786259848700787,0.09643599844466522,3.101424574147997,-1.4064013615626
1773065512835385088,2.2209131717681885,0.6264291405677795,2.9344396591186523,0.5995532870292664,0.010240272618830204,-0.089988112449646,0.9958900809288025,0.11543111503124237,-0.04959928244352341,0.05978912115097046,0.03313999000841836,0.6485649228218516,0.7598082444491927,0.030929673662506287,0.09011000879908734,3.131310482877653,-1.4126857714381817
1773065512845423104,2.2309510707855225,0.5401363372802734,2.9742069244384766,0.6177384257316589,-0.0198032446205616,-0.08411085605621338,0.9962596297264099,0.1235782653093338,-0.08593309670686722,0.019014477729797363,0.019883528978643386,0.6504491763970583,0.7583176653075681,0.038403698407328976,0.0842103486131186,-3.1217176758639935,-1.4187930486683227
1773065512855460864,2.2409889698028564,0.4772826135158539,3.007936716079712,0.6179918050765991,-0.05021870881319046,-0.07879039645195007,0.9956253170967102,0.14456380903720856,-0.10625291615724564,0.04961681365966797,0.0067107902227095395,0.6522060707358194,0.7565975790813866,0.04628402381989545,0.0788721464032418,-3.091195999272964,-1.4248566707362291
1773065512865499136,2.2510271072387695,0.4077725112438202,3.025994300842285,0.6042507290840149,-0.08082779496908188,-0.07406792789697647,0.99397212266922,0.14143571257591248,-0.10552801191806793,0.06300407648086548,-0.006308899431184136,0.6537527109121722,0.7547141468420665,0.05453511856484006,0.07413582198647664,-3.0604532161592455,-1.4306881549429107
1773065512875536896,2.2610650062561035,0.4517787992954254,3.0090134143829346,0.6140086650848389,-0.1113412156701088,-0.06924344599246979,0.9913668036460876,0.13683867454528809,-0.09571931511163712,-0.010760903358459473,-0.01930149646911088,0.6551396149241367,0.7526456609199675,0.06280099577490529,0.06929889680808843,-3.0297505147401536,-1.43637395091305
1773065512885575168,2.2711031436920166,0.4878920614719391,3.0225400924682617,0.6220799088478088,-0.14166533946990967,-0.0637570470571518,0.9878590106964111,0.16510288417339325,-0.08420740067958832,-0.04430156946182251,-0.03242223756757184,0.6564091596808475,0.7503709222498423,0.07084599925547452,0.06380032235780621,-2.9991573389616817,-1.441963099278339
1773065512895612928,2.2811410427093506,0.5159438252449036,3.0212411880493164,0.5832792520523071,-0.17196199297904968,-0.05789225921034813,0.9834009408950806,0.17748568952083588,-0.05944782495498657,-0.005480468273162842,-0.045659255089934236,0.6574530523694404,0.7479678891873979,0.07883352635875192,0.05792464601201435,-2.9684783834282755,-1.447193544731101
1773065512905651200,2.2911791801452637,0.506862998008728,3.039231777191162,0.5527218580245972,-0.20207050442695618,-0.05173880606889725,0.9780032634735107,0.17307883501052856,-0.05826179310679436,-0.03150069713592529,-0.058945571268208374,0.6581787429023621,0.7455215404662465,0.08673944619475656,0.051761918254020045,-2.9378443263809286,-1.451802684189048
1773065512915688960,2.3012170791625977,0.5241417288780212,3.0532779693603516,0.5375943779945374,-0.2321241945028305,-0.045678336173295975,0.9716130495071411,0.182456836104393,-0.07605628669261932,-0.03786671161651611,-0.07220891786847804,0.65866773438285,0.742942347256539,0.09475950848486833,0.04569423430005037,-2.9070823425013472,-1.4560704313815338
1773065512925726976,2.3112549781799316,0.6726163625717163,3.0483860969543457,0.5055773258209229,-0.2620246410369873,-0.03844314068555832,0.9642951488494873,0.1814735233783722,-0.06974166631698608,0.03520125150680542,-0.08585910241612202,0.6588482287705869,0.7403151837300118,0.10237489216842484,0.038452614436833746,-2.876272243101612,-1.4596085598613062
1773065512935764992,2.3212931156158447,0.594961941242218,3.053901195526123,0.482229083776474,-0.291599839925766,-0.030881816521286964,0.9560416340827942,0.19034254550933838,-0.053163595497608185,-0.01854175329208374,-0.0995585065084496,0.6587606982804591,0.7376009441164437,0.10985091678181864,0.0308867280299931,-2.84554821050011,-1.4625996006954984
1773065512945803008,2.3313310146331787,0.5537716150283813,3.059666156768799,0.4736369252204895,-0.32090845704078674,-0.024036990478634834,0.9468050003051758,0.21696561574935913,-0.06383837014436722,0.021151423454284668,-0.1129784121925017,0.6584849253775614,0.7347108950133415,0.11761507432174396,0.024039305671952133,-2.8148061653329406,-1.4654425551931323
1773065512955840000,2.3413679599761963,0.5594050288200378,3.0353593826293945,0.4526064693927765,-0.34978821873664856,-0.01713130995631218,0.9366722106933594,0.23775818943977356,-0.10306216776371002,0.10159683227539062,-0.12633532850186668,0.6579832896019064,0.731706283156183,0.12531283698997336,0.017132148355481918,-2.7841928377726766,-1.4678903596747124
1773065512965878016,2.3514060974121094,0.5215452909469604,3.0267364978790283,0.4638471305370331,-0.37819212675094604,-0.010419340804219246,0.9256684184074402,0.24817198514938354,-0.0716119036078453,-0.02109694480895996,-0.13952034520232182,0.65734219595886,0.7285159165266929,0.13304071775415224,0.010419529202039339,-2.753727839510408,-1.4702185769149487
1773065512975916032,2.3614439964294434,0.49889180064201355,3.007758855819702,0.4351281225681305,-0.406109094619751,-0.0038784993812441826,0.9138163328170776,0.23696544766426086,-0.019925206899642944,0.015230238437652588,-0.15255029713203389,0.6565298189652323,0.7251736046307197,0.1407843143319172,0.003878509204662311,-2.7233970984954348,-1.4723398475760145
1773065512985954048,2.3714821338653564,0.48828017711639404,2.979423999786377,0.43221330642700195,-0.4333455264568329,0.0023491578176617622,0.9012248516082764,0.21689960360527039,-0.027816075831651688,-0.007334470748901367,-0.16531017475162021,0.6555458098759565,0.7217147145489455,0.14852657329071775,-0.0023491600463467943,-2.693389704130902,-1.4742470357357822
1773065512995992064,2.3815200328826904,0.6106570959091187,2.9751839637756348,0.40980973839759827,-0.4599928557872772,0.009158976376056671,0.8878752589225769,0.21261745691299438,-0.047138094902038574,0.012362658977508545,-0.17816487930718594,0.6543298866919189,0.7181852340073379,0.1559473961970294,-0.009159104175670429,-2.663583717947172,-1.4755829206827336
1773065513006030080,2.3915581703186035,0.6294499635696411,2.920822858810425,0.4092768430709839,-0.48586106300354004,0.016632527112960815,0.8738778829574585,0.21335428953170776,-0.030334914103150368,-0.036765336990356445,-0.1910898002147939,0.6528514508352018,0.714649517916949,0.16292880134005805,-0.016633294923795047,-2.634167734564061,-1.4761637017135383
1773065513016068096,2.4015960693359375,0.645378828048706,2.9123172760009766,0.36257869005203247,-0.5111343860626221,0.023973440751433372,0.85916668176651,0.2193862795829773,-0.004487968981266022,-0.017156004905700684,-0.203869966240216,0.6512002962151533,0.71100035910991,0.1698641367804832,-0.023975737261740647,-2.6049177196182405,-1.4764607101994762
1773065513026105856,2.4116339683532715,0.5896306037902832,2.884441614151001,0.35394924879074097,-0.5357958078384399,0.031184539198875427,0.8437716960906982,0.21874862909317017,-0.014552470296621323,0.02521646022796631,-0.21653356513842265,0.6492704561102294,0.7073427190046991,0.1767128916177587,-0.031189595300576526,-2.5758339694191688,-1.4761683613702616
1773065513036144128,2.4216721057891846,0.4526127874851227,2.8575353622436523,0.3878343999385834,-0.5597811937332153,0.037660546600818634,0.8277841806411743,0.24134552478790283,-0.04953189939260483,-0.024805665016174316,-0.2287644355938059,0.6473938122736175,0.7034012674296503,0.1837790361722241,-0.03766945431954123,-2.546991249054424,-1.4763761749519846
1773065513046181888,2.4317100048065186,0.4063182771205902,2.8380355834960938,0.3844689428806305,-0.5830168724060059,0.04327003285288811,0.8113068342208862,0.25238949060440063,-0.06718054413795471,-0.01653766632080078,-0.240471107664775,0.6456050120911578,0.699176368442732,0.1911024780815488,-0.04328354526272974,-2.5184826744214406,-1.4772242997830127
1773065513056220160,2.4417481422424316,0.6275761127471924,2.776399850845337,0.3438938558101654,-0.605460524559021,0.04961804673075676,0.7943270802497864,0.19528907537460327,-0.008693967014551163,0.03472864627838135,-0.25232743461676815,0.643473545747366,0.6950577921872915,0.19790729136041,-0.04963843022324904,-2.4903097172616855,-1.4769944579944292
1773065513066257920,2.4517860412597656,0.633362352848053,2.683234214782715,0.3830966353416443,-0.6267526149749756,0.05698337033390999,0.7771316766738892,0.1853007674217224,0.034813493490219116,-0.132402241230011,-0.26425910788722157,0.6411555961072997,0.6910031508061026,0.20396364511828508,-0.057014252474114215,-2.462904043708438,-1.4758630986097547
1773065513076296192,2.4618241786956787,0.5154008865356445,2.6720657348632812,0.354347825050354,-0.647200345993042,0.06373387575149536,0.7596511244773865,0.22732418775558472,0.03268640488386154,-0.1379469633102417,-0.27573616556785324,0.638878025954023,0.6867753934666179,0.21010484813543348,-0.06377710175616301,-2.4359557231791,-1.4750742653168414
1773065513086333952,2.4718620777130127,0.5340368747711182,2.602576732635498,0.3195442855358124,-0.6668298244476318,0.0699082612991333,0.7419238090515137,0.20256590843200684,-0.0247269868850708,-0.08118772506713867,-0.28683190335751496,0.6364639279755598,0.6825507921670299,0.2162535476474786,-0.06996532703825512,-2.4094493474922927,-1.4741134601473915
1773065513096371968,2.4818999767303467,0.4464001953601837,2.620652198791504,0.3473495543003082,-0.6858022809028625,0.07577303051948547,0.7238327860832214,0.17705899477005005,-0.06355073302984238,-0.04524385929107666,-0.29767701208122915,0.6340148839663574,0.6781898891651525,0.22242316359585243,-0.0758457283355447,-2.3831669338669244,-1.4732556335753406
1773065513106409984,2.4919381141662598,0.48709729313850403,2.5859880447387695,0.28649845719337463,-0.7042728662490845,0.08136945962905884,0.7052509188652039,0.19154703617095947,-0.04065901041030884,0.08375054597854614,-0.30838964123634716,0.6314164227325672,0.6737497799787261,0.228627241466789,-0.08145952052345543,-2.356888365604073,-1.4722246775456673
1773065513116448000,2.5019760131835938,0.3957936465740204,2.5621252059936523,0.3374332785606384,-0.7219411134719849,0.08662784844636917,0.6865108609199524,0.21479982137680054,-0.02095402032136917,-0.05961853265762329,-0.31878770692346425,0.6287590880350264,0.6692663458999283,0.2347746049280968,-0.08673656751605553,-2.3310443496946167,-1.471171943613052
1773065513126486016,2.512014150619507,0.43726277351379395,2.5328638553619385,0.34462353587150574,-0.738959014415741,0.09195325523614883,0.6674460768699646,0.2234712839126587,0.011623412370681763,-0.0887565016746521,-0.3290100796538921,0.6262546850781098,0.6644758232389854,0.24089285099025445,-0.09208333586280898,-2.3053902089631406,-1.470654067108928
1773065513136523008,2.5220510959625244,0.5393913984298706,2.505567789077759,0.29336488246917725,-0.7552664279937744,0.09755063056945801,0.6481178402900696,0.16066193580627441,0.014692991971969604,0.013518571853637695,-0.3392893501519331,0.6234058325484166,0.6598667142482099,0.2466250230368185,-0.09770601607356193,-2.279992161062821,-1.469053944486498
1773065513146561024,2.5320889949798584,0.4852280020713806,2.420386552810669,0.33191627264022827,-0.7706824541091919,0.1032903864979744,0.6287923455238342,0.12811946868896484,0.0156823992729187,-0.09709984064102173,-0.349414694692827,0.6204538917319614,0.6553114952556828,0.25201833770825716,-0.10347494016257447,-2.2551516848854685,-1.467008509396311
1773065513156599040,2.5421271324157715,0.3856234848499298,2.365018844604492,0.3349458873271942,-0.785210132598877,0.10864393413066864,0.6096245050430298,0.19261962175369263,-0.018662840127944946,-0.12682104110717773,-0.35905900094739995,0.6177062788412059,0.6505776003614533,0.2574189931445587,-0.1088588101845007,-2.2309704226836966,-1.4656324302172692
1773065513166637056,2.5521650314331055,0.26560625433921814,2.3503878116607666,0.3289968967437744,-0.7990322709083557,0.11314566433429718,0.5905466675758362,0.19534891843795776,-0.06428702920675278,-0.11346536874771118,-0.36811840535109014,0.6151301979969559,0.645668778599053,0.26308832374563457,-0.11338847728400307,-2.20727022261138,-1.465123692616841
1773065513176675072,2.5622031688690186,0.30679306387901306,2.3053510189056396,0.32202064990997314,-0.812264084815979,0.11744455248117447,0.5713441371917725,0.15660905838012695,-0.05683663487434387,-0.038705527782440186,-0.37697125201292264,0.6125198532351732,0.6406961036569889,0.2687391078470467,-0.11771623284175678,-2.1837985226662844,-1.4646666755829987
1773065513186713088,2.5722410678863525,0.25349628925323486,2.253509759902954,0.32983461022377014,-0.8247163891792297,0.12165140360593796,0.5523079037666321,0.15316182374954224,-0.044380903244018555,-0.043442487716674805,-0.3855545736821536,0.6099117045523347,0.6357371013660631,0.2742148340332125,-0.12195347751316267,-2.1608920965511413,-1.4641761843962227
1773065513196750848,2.5822789669036865,0.26340094208717346,2.2338645458221436,0.34890177845954895,-0.8364830613136292,0.125843808054924,0.5333474278450012,0.17579275369644165,-0.02467803657054901,-0.0792611837387085,-0.3938983531339891,0.6073933714074359,0.6306718745941874,0.2795896811110307,-0.12617834810184478,-2.138410015870052,-1.4639393944219603
1773065513206789120,2.5923171043395996,0.2728820741176605,2.1637325286865234,0.3554573953151703,-0.8475547432899475,0.1302521526813507,0.5144756436347961,0.17822808027267456,-0.017642304301261902,-0.09748345613479614,-0.4021390466090979,0.6048446288286135,0.6256203274807564,0.2846863493091106,-0.13062329261004516,-2.116355538378994,-1.463444140852824
1773065513216826880,2.6023550033569336,0.2291851043701172,2.147876501083374,0.37086647748947144,-0.8579758405685425,0.13462364673614502,0.49573591351509094,0.14612281322479248,0.0011032968759536743,-0.11928629875183105,-0.4101370737297301,0.6023831547463793,0.6204856919695054,0.2896889360589048,-0.1350336439950865,-2.094730129657806,-1.4631812759937968
1773065513226865152,2.6123931407928467,0.16720402240753174,2.132833242416382,0.41149061918258667,-0.8679163455963135,0.13894064724445343,0.4768821597099304,0.11542922258377075,0.009512126445770264,-0.06179741024971008,-0.4179480970229476,0.6000357269221076,0.6151408057719259,0.2947511638747542,-0.13939160210659934,-2.0732220857845416,-1.4633924507804823
1773065513236902912,2.6224310398101807,0.3201795816421509,2.0859334468841553,0.34638309478759766,-0.8772385716438293,0.14343667030334473,0.4581248462200165,0.11114060878753662,0.0002400726079940796,0.04097485542297363,-0.42569131584450953,0.5976066440561648,0.6098595872427365,0.2995404609925547,-0.1439331300111389,-2.052073417658592,-1.4631946779997
1773065513246941184,2.6324691772460938,0.20686475932598114,1.947153925895691,0.317809522151947,-0.8858775496482849,0.14748337864875793,0.43985220789909363,0.12780553102493286,-0.041907817125320435,-0.04696887731552124,-0.4331647196954294,0.5948958848139062,0.6049999902336324,0.30404334471988015,-0.148023339644287,-2.03165268639053,-1.462082770677131
1773065513256978944,2.6425070762634277,0.0003794815856963396,1.8315825462341309,0.46122661232948303,-0.8934024572372437,0.1513994336128235,0.42297765612602234,0.20913738012313843,-0.08227711915969849,-0.2925608456134796,-0.4397210780719108,0.5929847107312707,0.5998816199532488,0.3084744627901431,-0.15198387128458876,-2.0129758167112137,-1.462920832828964
1773065513267016960,2.6525449752807617,-0.09458697587251663,1.809092402458191,0.43514811992645264,-0.9002323746681213,0.15525953471660614,0.40678754448890686,0.2151128053665161,-0.10417313873767853,-0.17126813530921936,-0.44567416613553146,0.5916679979162544,0.5944095811251179,0.31301880106869484,-0.15589016808883197,-1.9952038182997374,-1.4654297060244537
1773065513277054976,2.662583112716675,-0.06512637436389923,1.7203590869903564,0.3868356943130493,-0.9065844416618347,0.15844205021858215,0.3911529779434204,0.06185793876647949,-0.07514435052871704,-0.1131378710269928,-0.4511770509199792,0.5903069974249352,0.5891639343532387,0.3175889363635445,-0.15911256703671323,-1.9781241039533146,-1.4679687768121867
1773065513287092992,2.672621011734009,0.008721211925148964,1.650223970413208,0.4265977740287781,-0.9123484492301941,0.16193433105945587,0.37602874636650085,0.04136151075363159,-0.01850174367427826,-0.11313512921333313,-0.4566141738477641,0.5888756717885693,0.5841573613153124,0.321697242777398,-0.16265054249161018,-1.9617368459834603,-1.469821726490806
1773065513297129984,2.6826579570770264,-0.014225204475224018,1.5728793144226074,0.4341038763523102,-0.9175558686256409,0.16587059199810028,0.3613562285900116,0.13249105215072632,-0.02083580195903778,-0.0975012481212616,-0.46196805184776607,0.5875434633186993,0.5791984068946532,0.32543427113460033,-0.16664077066425673,-1.9459679199891986,-1.4714893727755605
1773065513307168000,2.6926960945129395,-0.04248214513063431,1.4784338474273682,0.43055787682533264,-0.9222239255905151,0.16970837116241455,0.34742215275764465,0.16026103496551514,-0.025970563292503357,-0.11622107028961182,-0.4669665801509814,0.5863606625531267,0.5743624740648267,0.32898501521133355,-0.17053374118073653,-1.9310759571519613,-1.4733304489862629
1773065513317206016,2.7027339935302734,-0.04458444193005562,1.4250285625457764,0.47640153765678406,-0.9263910055160522,0.17376765608787537,0.3340723216533661,0.1230311393737793,-0.010666444897651672,-0.17269542813301086,-0.47173408294199504,0.5853823324050855,0.5695293491395339,0.3323111824050455,-0.17465424456573286,-1.9168979783256477,-1.4754091740317905
1773065513327244032,2.7127721309661865,-0.0606510303914547,1.343544363975525,0.44841039180755615,-0.9301322102546692,0.17791791260242462,0.32124611735343933,0.06759876012802124,0.0016322731971740723,-0.1469755470752716,-0.476316380207386,0.5844836467975377,0.5648025508736475,0.33540956602630817,-0.17887020011243884,-1.9033465773871865,-1.4774143685085608
1773065513337282048,2.7228100299835205,-0.11353332549333572,1.228509783744812,0.4101061522960663,-0.9334102272987366,0.18164652585983276,0.3094349205493927,0.030120432376861572,-0.012472361326217651,-0.2377338409423828,-0.4803704242097436,0.5837835241047625,0.5602805201304464,0.33841810714965864,-0.18266058051646916,-1.8909050896647617,-1.4798195044418199
1773065513347320064,2.7328481674194336,-0.28599220514297485,1.0717164278030396,0.32528072595596313,-0.9362780451774597,0.1844717413187027,0.29892075061798096,0.06651180982589722,-0.05037751793861389,-0.22978317737579346,-0.48369435975642977,0.5832552174907341,0.5561238397486608,0.3414372442301191,-0.18553434611451047,-1.879832343946663,-1.4827046267048793
1773065513357358080,2.7428860664367676,-0.48652034997940063,0.8588929772377014,0.3896484076976776,-0.9384575486183167,0.18662580847740173,0.29063448309898376,0.11217886209487915,-0.10654769837856293,-0.29466283321380615,-0.48581297722840133,0.5835466630968916,0.5520783695817528,0.34448304777213556,-0.18772648228077404,-1.8711226059433774,-1.4876316231201963
1773065513367395840,2.7529239654541016,-0.5064849853515625,0.7515252232551575,0.4123196601867676,-0.9399992227554321,0.18900004029273987,0.2840423285961151,0.13537293672561646,-0.08435529470443726,-0.2656555771827698,-0.48723010512648357,0.5845392978328219,0.5480282657443508,0.34725421364489134,-0.19014373165061113,-1.864245467013403,-1.4938789429924066
1773065513377434112,2.7629621028900146,-0.4594588875770569,0.6604214906692505,0.370042622089386,-0.9412397742271423,0.19132556021213531,0.2783203423023224,0.05989217758178711,-0.023829862475395203,-0.2131805419921875,-0.48841957799147917,0.5855692253853922,0.5443058469244815,0.3496943816299442,-0.19251247234753696,-1.8582993478389076,-1.4997808154419563
1773065513387471872,2.7730000019073486,-0.2965272068977356,0.5618334412574768,0.34597963094711304,-0.9422490000724792,0.1935960054397583,0.27328982949256897,0.013080358505249023,0.04703506827354431,-0.17874637246131897,-0.48957845581583687,0.5863907097243799,0.5411015192562459,0.3516646077152877,-0.19482618306422494,-1.8530905809749318,-1.5045394043003968
1773065513397510144,2.7830381393432617,-0.25469139218330383,0.46961361169815063,0.37112852931022644,-0.9429351091384888,0.1962963342666626,0.26896241307258606,0.037143051624298096,0.0662464052438736,-0.20502811670303345,-0.4908308263450953,0.5871073712614461,0.5383178789003388,0.3529926020633858,-0.19757933150424303,-1.8486570382899647,-1.5081346978805044
1773065513407547904,2.7930760383605957,-0.217194601893425,0.3642810583114624,0.3784972131252289,-0.9433290958404541,0.19915840029716492,0.2654546797275543,0.0841066837310791,0.05157400667667389,-0.19762933254241943,-0.491916421588779,0.5879478477721486,0.5357654906663103,0.3539645761609613,-0.20049903449133533,-1.8451045987062338,-1.5115220832192169
1773065513417586176,2.803114175796509,-0.2774774432182312,0.26206615567207336,0.40282773971557617,-0.9433667063713074,0.20224498212337494,0.262975811958313,0.08254212141036987,0.010081067681312561,-0.2225552797317505,-0.4927500019953571,0.5890335575818101,0.5334110734715841,0.3545554410417651,-0.20364972843649684,-1.8426576642917072,-1.5149541140627139
1773065513427623936,2.8131520748138428,-0.33233749866485596,0.15250663459300995,0.37550875544548035,-0.9431148171424866,0.20513315498828888,0.2616390883922577,0.06002753973007202,-0.009378105401992798,-0.2174343764781952,-0.49307963351795076,0.5904833919358352,0.5311769063764202,0.3550394574752244,-0.20659974601484815,-1.841411161467443,-1.5191222339359591
1773065513437661952,2.8231899738311768,-0.35042035579681396,0.029073646292090416,0.3379637897014618,-0.942615270614624,0.2075820118188858,0.2615080177783966,0.030093789100646973,-0.012269467115402222,-0.19623085856437683,-0.492932239555745,0.592110941098354,0.5293001464740343,0.35533631380004427,-0.20910248505263251,-1.84141858265787,-1.5234666188129686
1773065513447699968,2.83322811126709,-0.35096311569213867,-0.08074446022510529,0.3429100811481476,-0.9418373107910156,0.20986489951610565,0.26248669624328613,0.037372589111328125,0.0026137083768844604,-0.21638989448547363,-0.49242226162477903,0.5939261891974618,0.5277262789966866,0.35535472720861766,-0.21143677934913052,-1.8425958173475243,-1.5278782789879712
1773065513457737984,2.843266010284424,-0.3158845007419586,-0.20199179649353027,0.3334033787250519,-0.9407481551170349,0.21217724680900574,0.2645260989665985,0.052076101303100586,0.03779226541519165,-0.217696875333786,-0.49165281758645735,0.595900372060032,0.5264653841247618,0.3549853077732942,-0.21380239218483515,-1.8449053585706288,-1.532130179039134
1773065513467774976,2.8533029556274414,-0.2728707194328308,-0.349622517824173,0.3205360472202301,-0.9393174052238464,0.21448571979999542,0.2677290439605713,0.040345847606658936,0.06447544693946838,-0.2419264316558838,-0.49063955574456247,0.5979698936825237,0.5256391664953816,0.3541304235434848,-0.216165270171222,-1.848458716877869,-1.535930707773292
1773065513477812992,2.8633410930633545,-0.2785949110984802,-0.4942159354686737,0.29261282086372375,-0.9375123381614685,0.2166408747434616,0.2722817063331604,0.016827523708343506,0.07652625441551208,-0.24925625324249268,-0.4892528320604814,0.6002006865249956,0.5252618358152875,0.35283250908775454,-0.21837230209168004,-1.8534503655663395,-1.5395116633996369
1773065513487851008,2.8733789920806885,-0.25705206394195557,-0.6439050436019897,0.19711585342884064,-0.9353957772254944,0.21823455393314362,0.2782241702079773,-0.009489595890045166,0.08184482157230377,-0.23725435137748718,-0.48737828952801554,0.6025217135214834,0.525432845608398,0.35121277318126864,-0.22000504924753464,-1.859902908731239,-1.542885699872752
1773065513497889024,2.8834171295166016,-0.33128660917282104,-0.8153852224349976,0.14989107847213745,-0.9329649806022644,0.21899694204330444,0.2856866717338562,-0.021182477474212646,0.05521875619888306,-0.25272759795188904,-0.48488266326559193,0.6049435140845019,0.5262002272911919,0.3493501885384347,-0.22078634462191316,-1.867943974658555,-1.5462012974900492
1773065513507927040,2.8934550285339355,-0.4610323905944824,-0.96207594871521,0.1324901133775711,-0.9300500750541687,0.2191603034734726,0.2949161231517792,0.013302087783813477,0.0241563618183136,-0.28437235951423645,-0.48155335300498436,0.6078500760605084,0.5272346189785349,0.3473445868703182,-0.22095376721851784,-1.877863741970719,-1.5505630386720042
1773065513517965056,2.9034931659698486,-0.5593270659446716,-1.0770771503448486,0.1082279235124588,-0.9267102479934692,0.21874293684959412,0.3055484890937805,0.04620170593261719,0.00044958293437957764,-0.24918243288993835,-0.4774991882927725,0.6111683464090488,0.5284387368612427,0.34528301477278583,-0.22052602392200105,-1.8892851289955794,-1.5559299842236396
1773065513528003072,2.9135310649871826,-0.6984341144561768,-1.1541423797607422,0.10124830901622772,-0.9229824542999268,0.2177601456642151,0.31730735301971436,0.04869961738586426,-0.002870604395866394,-0.21095359325408936,-0.4727787115325534,0.614880259836245,0.5296941906173973,0.3432588623514373,-0.2195189510989338,-1.9019235206494984,-1.5624035855363891
1773065513538040832,2.9235689640045166,-0.7221201658248901,-1.194610357284546,0.01860588975250721,-0.9190384745597839,0.21599771082401276,0.3297169506549835,0.029939353466033936,0.05006980895996094,-0.13383984565734863,-0.46752431162723884,0.6187766074859007,0.5310122210827184,0.3414125726429799,-0.2177135541543875,-1.9152563383342178,-1.569663658087482
1773065513548079104,2.9336071014404297,-0.6270788908004761,-1.2676734924316406,-0.051335375756025314,-0.9149307608604431,0.21352434158325195,0.34250396490097046,-0.004365503787994385,0.09064437448978424,-0.11282873153686523,-0.4620993747944095,0.6223971746219713,0.5327980265410276,0.3394291345243188,-0.21518108900325203,-1.9289966654307267,-1.576099413174758
1773065513558116864,2.9436450004577637,-0.6184263825416565,-1.3672540187835693,-0.11101815104484558,-0.9104916453361511,0.21064504981040955,0.3558564782142639,0.011840403079986572,0.10257212817668915,-0.20017096400260925,-0.4565154338063777,0.6258366579874194,0.5350296390256393,0.33714313574196597,-0.21223476464453053,-1.9433812211696908,-1.581715570289051
1773065513568155136,2.9536831378936768,-0.6669326424598694,-1.5026144981384277,-0.20239654183387756,-0.9055957198143005,0.20688830316066742,0.37026166915893555,0.05844300985336304,0.09700575470924377,-0.29337263107299805,-0.4503804803352958,0.6292847446621105,0.5377095329639406,0.33470377918551153,-0.20839337806849992,-1.9589170319399307,-1.5872038497085665
1773065513578192896,2.9637210369110107,-0.7878150939941406,-1.6575127840042114,-0.2303818315267563,-0.9000346064567566,0.20217613875865936,0.386086642742157,0.09115082025527954,0.028490960597991943,-0.35157114267349243,-0.44345559151368824,0.6329489368670278,0.5407577683940664,0.3321203743091741,-0.20357944550497653,-1.9760236666870934,-1.5931156505086248
1773065513588231680,2.973759889602661,-0.9142323732376099,-1.7615197896957397,-0.2874450981616974,-0.8937597870826721,0.19646210968494415,0.40323200821876526,0.1138678789138794,-0.022618725895881653,-0.34329548478126526,-0.43562824551514345,0.636989487452914,0.54393050069679,0.329563350999557,-0.1977483974140421,-1.9946175963480977,-1.6001068827405533
1773065513598269952,2.983798027038574,-0.9565601944923401,-1.816216230392456,-0.3528708517551422,-0.8869790434837341,0.1897229254245758,0.42103803157806396,0.09442245960235596,-0.024805948138237,-0.27650687098503113,-0.42719981920057976,0.6410829843529838,0.54729482112226,0.327079783643055,-0.1908799400994148,-2.0139898013758635,-1.6074064406202473
1773065513608307712,2.993835926055908,-0.9006708264350891,-1.82909095287323,-0.43116751313209534,-0.8798394799232483,0.18219901621341705,0.43895989656448364,0.06704968214035034,0.023580998182296753,-0.17148858308792114,-0.41770909681317747,0.6463247058721923,0.5493125904488309,0.325636444375743,-0.18322244507475993,-2.0335708046681535,-1.6191740843269726
1773065513618345728,3.003873825073242,-0.7011703848838806,-1.8822402954101562,-0.4782191812992096,-0.8723323941230774,0.17456555366516113,0.45668724179267883,0.04994469881057739,0.09655262529850006,-0.10253071784973145,-0.4084854720614273,0.6510076558224017,0.551844767416271,0.3237221896960856,-0.17546452231882068,-2.053085805954713,-1.628935308014194
1773065513628384000,3.0139119625091553,-0.552238404750824,-1.989638328552246,-0.5209088921546936,-0.8641510605812073,0.16732582449913025,0.474599689245224,0.06515520811080933,0.14526571333408356,-0.18106645345687866,-0.39955962450152815,0.6552418703725315,0.5549395761687194,0.3210174437292108,-0.16811662361562646,-2.073032180291043,-1.6365584050977224
1773065513638421760,3.0239498615264893,-0.5707380175590515,-2.138115167617798,-0.5870416760444641,-0.8550638556480408,0.15989038348197937,0.493255615234375,0.09188014268875122,0.14105874300003052,-0.2701568007469177,-0.390462618707787,0.6592183519894546,0.558622388609715,0.3176652683401771,-0.16057960944523053,-2.0940303698133524,-1.6427433068880537
1773065513648459008,3.033987045288086,-0.742554247379303,-2.2615203857421875,-0.6350443363189697,-0.844892680644989,0.15133947134017944,0.5130816698074341,0.10908335447311401,0.05172450840473175,-0.3002673387527466,-0.3804901115618185,0.6633579006404869,0.5625807896273278,0.31414401322341634,-0.1519232098465356,-2.1165474911663265,-1.6492396741708792
1773065513658496768,3.04402494430542,-0.9280377626419067,-2.3600876331329346,-0.6757782101631165,-0.833710253238678,0.14143937826156616,0.5337808728218079,0.12098747491836548,-0.05193130671977997,-0.20373332500457764,-0.3695393581817102,0.6677596132676276,0.566557620597336,0.3107252763682889,-0.14191525262543808,-2.1402850523401677,-1.6566702681897125
1773065513668534784,3.054062843322754,-1.0973339080810547,-2.368203639984131,-0.716154158115387,-0.8216916918754578,0.13011033833026886,0.5548816919326782,0.11228024959564209,-0.08903370797634125,-0.19565939903259277,-0.3577390787556394,0.672293228880729,0.5704933465403631,0.3075415173764607,-0.13048026670102925,-2.16474645443231,-1.6648532521190311
1773065513678572800,3.064100980758667,-1.0762834548950195,-2.2996044158935547,-0.8232506513595581,-0.8093879222869873,0.1175679862499237,0.5753859281539917,0.0832068920135498,-0.003737427294254303,-0.0426710844039917,-0.34559819747136244,0.6765847844962076,0.5743918468886358,0.3047440330106981,-0.1178405286460138,-2.1887938060391754,-1.6729529515203139
1773065513688610816,3.074138879776001,-0.741008996963501,-2.302116632461548,-0.9639286398887634,-0.796934962272644,0.10496819764375687,0.594874918460846,0.014021813869476318,0.11437690258026123,0.10397756099700928,-0.33404352645450175,0.6798868880848254,0.5789570654850636,0.30162463466920525,-0.10516192497736929,-2.2120238230658464,-1.6780403144469462
1773065513698648832,3.084177017211914,-0.694417417049408,-2.389646530151367,-0.9536601305007935,-0.7836699485778809,0.09313436597585678,0.6141555905342102,0.03858339786529541,0.12691262364387512,-0.10187238454818726,-0.3229817955428532,0.6825354972419092,0.5841430475659545,0.29766571455663243,-0.09326953520744873,-2.235513742409236,-1.6804103544586924
1773065513708686848,3.094214916229248,-0.9041192531585693,-2.476177930831909,-0.9407802820205688,-0.7692644000053406,0.08081821352243423,0.6337990760803223,0.15027618408203125,0.07851406186819077,-0.18172675371170044,-0.3113401359453668,0.6853464513655859,0.5892366142231199,0.2935437903527261,-0.08090645446184372,-2.259943163161591,-1.6831345698530398
1773065513718724864,3.104253053665161,-0.936633288860321,-2.545548677444458,-1.0144479274749756,-0.7537632584571838,0.06730777025222778,0.6536903381347656,0.151025652885437,0.010985061526298523,-0.2300298810005188,-0.2989161956228321,0.6881864647464673,0.5943437996839067,0.28948934058397274,-0.06735869556348338,-2.285211821869036,-1.6861221058707547
1773065513728762880,3.114290952682495,-0.8536955118179321,-2.6146914958953857,-1.0853558778762817,-0.7372305989265442,0.05349748954176903,0.6735202670097351,0.11297821998596191,-0.04156512767076492,-0.18494898080825806,-0.2863369566011097,0.6905869968042833,0.5998747682966518,0.2850458849059793,-0.05352304059994815,-2.3110645803065877,-1.687551317685828
1773065513738800640,3.124328851699829,-0.8698052167892456,-2.57627272605896,-1.0991013050079346,-0.7198294997215271,0.0395645909011364,0.693022608757019,0.13471591472625732,-0.028456203639507294,-0.15896493196487427,-0.27367839369457586,0.6926334435189258,0.6056155804586247,0.2803370951774081,-0.03957492063821337,-2.3372231907581504,-1.6878145579577783
1773065513748838912,3.134366989135742,-0.7646905183792114,-2.429819345474243,-1.1365901231765747,-0.7025882005691528,0.025819499045610428,0.711128294467926,0.16990381479263306,0.04180743545293808,-0.025383055210113525,-0.26145053933400064,0.6942249854791893,0.6112412149188479,0.2758252272726717,-0.025822369306250943,-2.362235293364442,-1.6871531708979464
1773065513758876928,3.144404888153076,-0.6003813743591309,-2.4245707988739014,-1.2074170112609863,-0.6853288412094116,0.01279382687062025,0.7281213998794556,0.12089097499847412,0.12537451088428497,0.12496697902679443,-0.24991129085108918,0.6950725472590783,0.6171992095635715,0.2710787074392878,-0.012794176164860711,-2.386460511404881,-1.684267963237811
1773065513768914944,3.1544430255889893,-0.6133208870887756,-2.443610429763794,-1.2148016691207886,-0.6674352884292603,0.00013546441914513707,0.7446675896644592,0.07682865858078003,0.13205143809318542,-0.14621800184249878,-0.23853858620746346,0.6954937275029054,0.6233957614373377,0.26601778279556276,-0.00013546442639379063,-2.410833174282281,-1.6799670338427763
1773065513778952960,3.1644809246063232,-0.7713223695755005,-2.529634475708008,-1.1894476413726807,-0.6485881209373474,-0.013012787327170372,0.7610284686088562,0.12515056133270264,0.043240442872047424,-0.22523128986358643,-0.2267085349105539,0.6958637642348721,0.6295139910844444,0.26093883594210904,0.013013154387858177,-2.4357925627506485,-1.6756279919893455
1773065513788990720,3.1745188236236572,-0.8602533340454102,-2.604307174682617,-1.1924349069595337,-0.628523051738739,-0.027133813127875328,0.7773177027702332,0.17021000385284424,-0.01699463091790676,-0.2637220621109009,-0.21407383965034404,0.6963538597094938,0.6354133748035224,0.25595629191965613,0.027137144115766888,-2.4616422363271364,-1.6718500063464403
1773065513799028992,3.1845569610595703,-0.6442720890045166,-2.629401683807373,-1.2039928436279297,-0.6074631214141846,-0.040429092943668365,0.7933184504508972,0.1912185549736023,-0.016577735543251038,-0.11927664279937744,-0.20156242249100384,0.6966068808601206,0.6414032163866836,0.25042642763972156,0.04044011319668969,-2.4881037986567085,-1.6669721171701153
1773065513809066752,3.1945948600769043,-0.4302956759929657,-2.5980725288391113,-1.1840615272521973,-0.5858075618743896,-0.05206003785133362,0.8087761998176575,0.20604687929153442,-0.002047598361968994,0.0409550666809082,-0.18970641669299368,0.6963870750951384,0.6476365792117492,0.2441787883062974,0.0520835817114593,-2.5147345730709008,-1.66019290347235
1773065513819104000,3.204632043838501,-0.44100719690322876,-2.5635766983032227,-1.1053674221038818,-0.5640838146209717,-0.06191151216626167,0.8233932852745056,0.20472407341003418,0.026724737137556076,0.12909090518951416,-0.17864381076959399,0.6958410143449645,0.653836305056049,0.23746531755634978,0.061951130511769474,-2.5409557625515635,-1.6522112358930998
1773065513829141760,3.214669942855835,-0.6057149171829224,-2.5589191913604736,-1.062387466430664,-0.5420688986778259,-0.07244011014699936,0.8372059464454651,0.16651958227157593,0.05658622831106186,0.005613207817077637,-0.16718487794760065,0.6954000650940728,0.6595617648914904,0.23118446188510863,0.07250361921682068,-2.5669953947406428,-1.6451148045096464
1773065513839179776,3.224707841873169,-0.5563420057296753,-2.5836904048919678,-1.1089905500411987,-0.5194369554519653,-0.08309458196163177,0.850459098815918,0.07475006580352783,0.08935068547725677,-0.12687206268310547,-0.15538563367074357,0.6952109767004666,0.6647640531608575,0.22500177344103056,0.08319050780965156,-2.5932898757309624,-1.6389729214141002
1773065513849217792,3.234745979309082,-0.5371466875076294,-2.595451831817627,-1.1441307067871094,-0.4961487650871277,-0.09362532198429108,0.8631747961044312,0.027734488248825073,0.01073957234621048,-0.19363439083099365,-0.14351335500248016,0.6947280756154439,0.6700300776605174,0.21866990900537153,0.09376264262348906,-2.6199122629946534,-1.6320306461782312
1773065513859255808,3.244783878326416,-0.5071420669555664,-2.6301403045654297,-1.1205874681472778,-0.4722341299057007,-0.10366412252187729,0.8753564953804016,0.09088638424873352,-0.0521586537361145,-0.07167589664459229,-0.13166664619295299,0.6940664879613866,0.6752406766267078,0.2120984029572371,0.1038506952546669,-2.6468649095403016,-1.6245396436434416
1773065513869293824,3.254822015762329,-0.30688780546188354,-2.5742557048797607,-1.0767347812652588,-0.44801566004753113,-0.1126231774687767,0.8869039416313171,0.18106302618980408,-0.07928665727376938,-0.01622188091278076,-0.12012436572442337,0.6933586015945508,0.6802248305230089,0.20522751211720958,0.11286262912064984,-2.6738369973018266,-1.6168343451979974
1773065513879331840,3.264859914779663,-0.14609651267528534,-2.5632128715515137,-1.0011926889419556,-0.42382776737213135,-0.11869315057992935,0.8979320526123047,0.20089685916900635,-0.08495064079761505,0.2068958282470703,-0.10970298980391784,0.692454935258062,0.6851804134578122,0.197482222483084,0.11897362283411003,-2.7005914124982935,-1.6080543939437564
1773065513889369856,3.274898052215576,-0.5392645597457886,-2.4415359497070312,-0.8728099465370178,-0.3999093174934387,-0.125959113240242,0.9078581929206848,0.18173924088478088,-0.04339815676212311,-0.03191232681274414,-0.09881511563684044,0.6919022174076536,0.6893478106088398,0.19054234887177124,0.12629457898392588,-2.7266689913707767,-1.6011125223138052
1773065513899407872,3.28493595123291,-0.138406440615654,-2.4150710105895996,-0.9468255639076233,-0.37669333815574646,-0.1327301561832428,0.9167794585227966,0.07896387577056885,0.07271735370159149,0.14004415273666382,-0.08838506297060411,0.6911899311444739,0.6932865364329138,0.18384309458088524,0.13312300019080864,-2.7517357762830725,-1.594088104818496
1773065513909445888,3.294973850250244,-0.2712814211845398,-2.4593563079833984,-0.9632210731506348,-0.3528076410293579,-0.13769157230854034,0.9255095720291138,-0.025595098733901978,0.04005056619644165,-0.09541606903076172,-0.07845293957336678,0.6901064728469765,0.6975011393954833,0.17632468130963083,0.13813040544245023,-2.777394278717876,-1.5856126606023178
1773065513919483904,3.3050119876861572,-0.4935835599899292,-2.5054047107696533,-0.9570947289466858,-0.3283527195453644,-0.14478515088558197,0.9333925843238831,0.02242925763130188,-0.02205444872379303,-0.24377167224884033,-0.0675151580268705,0.689041581981344,0.7013686518482722,0.16954468818990442,0.1452958373400734,-2.803329278483241,-1.577918841582896
1773065513929521920,3.315049886703491,-0.39255839586257935,-2.5876095294952393,-0.9480761885643005,-0.3028967082500458,-0.15212024748325348,0.9408044219017029,0.09188291430473328,-0.12713085114955902,-0.14913272857666016,-0.05611626411124298,0.6879550772790199,0.7050673979321334,0.16263068223597618,0.1527131326556839,-2.830117305796563,-1.5702518443946023
1773065513939559936,3.3250880241394043,-0.13735049962997437,-2.484250783920288,-0.954391360282898,-0.27736222743988037,-0.15753136575222015,0.9477624893188477,0.12149375677108765,-0.15527378022670746,-0.06060141324996948,-0.045390703326803374,0.6866834539807396,0.7087644735969516,0.15510755538599477,0.1581902982986692,-2.8568930038611833,-1.561869791527029
1773065513949597952,3.3351259231567383,0.25813743472099304,-2.3935060501098633,-0.9560204148292542,-0.2525462508201599,-0.15931853652000427,0.9543783068656921,0.1195201575756073,-0.055021658539772034,0.2822244167327881,-0.03624009766761811,0.6850838385942932,0.7126354445446695,0.146620231846276,0.16000033542981193,-2.8829033177179206,-1.5522328838846973
1773065513959635712,3.3451638221740723,0.16361133754253387,-2.2670223712921143,-0.8345111608505249,-0.2287127673625946,-0.15931490063667297,0.9603694081306458,0.14262264966964722,0.00990082323551178,0.2737157344818115,-0.02801887640403592,0.6834898967541464,0.7162585232484023,0.13795028658303116,0.15999664981385806,-2.907796866493709,-1.5428127524696382
1773065513969673984,3.3552019596099854,0.12584291398525238,-2.230405569076538,-0.7323600053787231,-0.20586469769477844,-0.15977543592453003,0.9654489755630493,0.12532879412174225,0.056458160281181335,0.16718053817749023,-0.019883189733651767,0.6821746535598628,0.7192789666445563,0.12992390002822898,0.16046316736948538,-2.931506905537323,-1.5348113327747366
1773065513979711744,3.3652398586273193,0.0810619443655014,-2.272219657897949,-0.7075566649436951,-0.182845339179039,-0.15991999208927155,0.9700478911399841,0.05389335751533508,0.04830199480056763,-0.025452733039855957,-0.0117307951943181,0.6809877368280903,0.7219969775369557,0.12181286713085944,0.16060959768967595,-2.9552874901545136,-1.527389568079941
1773065513989748992,3.375277042388916,-0.17432720959186554,-2.3403139114379883,-0.7068325281143188,-0.15930087864398956,-0.16158872842788696,0.9739157557487488,0.01043616235256195,0.01113709807395935,-0.21556943655014038,-0.0028174961541368557,0.6797878729031199,0.7244627936721424,0.11416689039749833,0.16230032762740085,-2.979460981064395,-1.5204042975218386
1773065513999786752,3.38531494140625,-0.29942643642425537,-2.4855308532714844,-0.7176114916801453,-0.1344459354877472,-0.165091410279274,0.9770718812942505,0.03512647747993469,-0.06337845325469971,-0.24544334411621094,0.007239991256892116,0.6785302666602787,0.7267273313381015,0.10682569891966795,0.1658506990210782,-3.0048504931148203,-1.5136110206610724
1773065514009824768,3.395352840423584,-0.1747547835111618,-2.495192527770996,-0.7397764921188354,-0.10870123654603958,-0.1685311198234558,0.9796844124794006,0.08714056760072708,-0.14872963726520538,-0.23360586166381836,0.017623822098876467,0.6771581572544252,0.7289026156095149,0.09923334147215745,0.1693392774466127,-3.031089287237194,-1.5066157417286077
1773065514019862784,3.405390977859497,0.395159512758255,-2.3881189823150635,-0.8019739389419556,-0.08336268365383148,-0.16833579540252686,0.9821984767913818,0.09239588677883148,-0.11288368701934814,0.08700013160705566,0.026611596760113824,0.675507056749097,0.7312930014240268,0.09051306802102488,0.1691411214632141,-3.0569220112131177,-1.4987109249418815
