time,seconds_elapsed,rotationRateX,rotationRateY,rotationRateZ,gravityX,gravityY,gravityZ,accelerationX,accelerationY,accelerationZ,quaternionW,quaternionX,quaternionY,quaternionZ,pitch,roll,yaw
1773062714410025216,0.023060083389282227,0.0815979391336441,-0.04602700471878052,-0.04791047424077988,0.1102859303355217,-0.2126884162425995,-0.9708762168884277,-0.0659591555595398,0.02741621434688568,-0.03426593542098999,0.3744610265296664,-0.011034994956613975,0.12016702393062201,0.9193569255957393,0.214325511296115,0.11310937932846976,2.3558320027385515
1773062714420061184,0.0330960750579834,0.0344390794634819,-0.03912389278411865,-0.007289634086191654,0.10990694910287857,-0.21318304538726807,-0.9708107113838196,-0.04879550635814667,-0.034131377935409546,0.0056618452072143555,0.37465839309156257,-0.010737765755937944,0.12033012395347263,0.9192587521906693,0.21483175211082575,0.11273152849651676,2.3554010780305656
1773062714430097152,0.04313206672668457,0.04854957014322281,-0.0069044362753629684,0.02977384626865387,0.1096847653388977,-0.21356646716594696,-0.9707515835762024,0.008113086223602295,-0.02512677013874054,0.007448971271514893,0.37459234478572756,-0.010569311290566846,0.12046785810395132,0.9192694304799698,0.2152242116467157,0.1125123487503997,2.3555335717681327
1773062714440133120,0.05316805839538574,0.07021818310022354,-0.021411839872598648,-0.05153321847319603,0.10960207134485245,-0.2141517996788025,-0.9706319570541382,0.033418551087379456,0.01432269811630249,0.0025991201400756836,0.3746401792989598,-0.010412025669183061,0.12072949840435547,0.9192174509804824,0.21582339896216937,0.11244197748781062,2.3553783687290406
1773062714450170368,0.06320524215698242,0.05733700469136238,-0.024775944650173187,-0.09636220335960388,0.1095191016793251,-0.21472063660621643,-0.9705156683921814,0.0147026926279068,0.02274981141090393,0.0031542181968688965,0.3750040217889937,-0.01021613299548497,0.12098681968147006,0.9190373806222675,0.2164057870293807,0.11237092632102191,2.354537043453767
1773062714460206336,0.0732412338256836,0.023522648960351944,-0.004443741869181395,-0.09401654452085495,0.10959529131650925,-0.21497942507266998,-0.9704497456550598,-0.008917801082134247,0.013365045189857483,0.0067504048347473145,0.37547031574322903,-0.010140300812737221,0.12112926006888294,0.9188291271154352,0.21667075779854236,0.11245600977670035,2.3534843356851716
1773062714470242304,0.08327722549438477,-0.006791581399738789,-0.001960344146937132,-0.045598942786455154,0.10972107201814651,-0.21494576334953308,-0.9704430103302002,-0.007624506950378418,0.005412071943283081,0.012328386306762695,0.37578861269104075,-0.01016333000762866,0.12114127628304214,0.9186971544266473,0.21663629569650433,0.11258476154816008,2.3527779687345314
1773062714480278272,0.09331321716308594,-0.0011072640772908926,-0.011284170672297478,-0.030140576884150505,0.1097477525472641,-0.21488836407661438,-0.9704526662826538,0.003380902111530304,-0.012589648365974426,0.010354459285736084,0.3759579892443791,-0.010164481876577838,0.12112117922847708,0.918630439834759,0.21657752610440967,0.11261079801353639,2.3524116375802824
1773062714490314240,0.10334920883178711,-0.04332342743873596,-0.0047301314771175385,-0.038450438529253006,0.10976611822843552,-0.21463550627231598,-0.9705065488815308,-0.0019627735018730164,-0.02215038239955902,0.012208819389343262,0.3761069329277448,-0.010202205581186643,0.12100673986351423,0.9185841379609924,0.21631862009107816,0.11262327890721198,2.3521119644765833
1773062714500350208,0.11338520050048828,-0.031756650656461716,-0.0036416309885680676,-0.04069308936595917,0.1098094955086708,-0.214231938123703,-0.9705908298492432,-0.013801202178001404,-0.002397090196609497,0.007745981216430664,0.3762849372435904,-0.01027688055637253,0.12082621119904506,0.9185341508656336,0.21590543761333603,0.11265771644030646,2.3517616870944202
1773062714510386176,0.12342119216918945,-0.032241079956293106,0.01053624041378498,-0.005297012627124786,0.10987439751625061,-0.21390467882156372,-0.9706556797027588,-0.012324966490268707,0.01923304796218872,0.01692032814025879,0.37638932020331844,-0.010356547587493097,0.12068519437671657,0.9185089980925577,0.21557042582988145,0.11271627531935345,2.3515605733778155
1773062714520423168,0.13345813751220703,-0.04405966028571129,0.015149500221014023,-0.005388536490499973,0.1100204735994339,-0.21354027092456818,-0.9707193374633789,-0.001469448208808899,0.006753161549568176,0.023163795471191406,0.37639166783550165,-0.010494558964304745,0.12054123963425219,0.9185254521801895,0.21519738453965737,0.11285751647136594,2.351574863969715
1773062714530459136,0.1434941291809082,-0.05870997533202171,-0.001630811020731926,-0.030812405049800873,0.11010134220123291,-0.2130349576473236,-0.9708212018013,-0.003915421664714813,-0.01628938317298889,0.01777249574661255,0.3764762450738278,-0.01061868179120139,0.12031891990538417,0.918518548425384,0.21468017551486748,0.11292801694296274,2.3514338968637887
1773062714540495104,0.15353012084960938,-0.0647965669631958,0.011813391931355,-0.018624579533934593,0.11020044982433319,-0.21240641176700592,-0.9709476828575134,-0.008668459951877594,-0.02396748960018158,0.022507131099700928,0.37658992052804074,-0.010771315346557935,0.1200422508429571,0.9185064066456496,0.21403691209561138,0.11301420555869085,2.3512402483503196
1773062714550531072,0.16356611251831055,-0.03788957744836807,0.007440747693181038,-0.0009214836172759533,0.11031967401504517,-0.21187084913253784,-0.9710511565208435,-0.002516336739063263,-0.010251343250274658,0.021176278591156006,0.37662799350923354,-0.01092523995700848,0.1198126513262768,0.9185188194383548,0.21348887077717837,0.11312348430204743,2.351198186987007
1773062714560567040,0.17360210418701172,0.024955296888947487,-0.0004053909797221422,0.00647926377132535,0.11033370345830917,-0.21183018386363983,-0.9710584282875061,-0.005643151700496674,0.0009232014417648315,0.0077405571937561035,0.3766072242854297,-0.010942330347221895,0.11979589896661294,0.9185293958936965,0.2134472668602251,0.11313690963493896,2.3512460338156527
1773062714570603008,0.1836380958557129,0.05419893190264702,0.0036221076734364033,0.009734179824590683,0.11033033579587936,-0.21223516762256622,-0.9709703922271729,-0.007684454321861267,-0.0018456429243087769,6.890296936035156e-05,0.37657879719006854,-0.010866238612614555,0.11998641721715542,0.9185171075161987,0.2138616647389,0.11314365224252039,2.351265198989139
1773062714580639232,0.19367408752441406,0.08927842229604721,0.01949138566851616,0.032165586948394775,0.11038980633020401,-0.21294720470905304,-0.970807671546936,-0.006904706358909607,0.006633132696151733,-0.00831824541091919,0.3764832104375521,-0.010768838846844025,0.12033364613224369,0.9185119357550245,0.21459036475486729,0.1132229324532471,2.3513890175593524
1773062714590675968,0.20371103286743164,0.123355433344841,0.033903881907463074,0.02311136946082115,0.110630102455616,-0.21401341259479523,-0.9705458283424377,-0.0018959790468215942,0.01775488257408142,-0.0030411481857299805,0.37634784775953517,-0.01069238527361665,0.12088320933506816,0.9184961292778181,0.21568172444981437,0.11349763365827285,2.3515368867262425
1773062714600711936,0.2137470245361328,0.1235194206237793,0.029431335628032684,0.0066051422618329525,0.11089739948511124,-0.2152530997991562,-0.970241129398346,-0.0019649043679237366,0.014264330267906189,-0.005634725093841553,0.3762715426797188,-0.010587273504435326,0.12152095030338102,0.9184444422082398,0.21695100140654933,0.11380492237198282,2.3515331337015977
1773062714610748416,0.22378325462341309,0.10359204560518265,0.02989312633872032,-0.01135335210710764,0.11119263619184494,-0.216397225856781,-0.9699528217315674,-0.004915177822113037,0.008480966091156006,0.006222963333129883,0.376253708918626,-0.010505882663476625,0.12211971729586064,0.9183733322128037,0.2181227424473435,0.11413891151795547,2.351407934095795
1773062714620784384,0.23381924629211426,0.029590262100100517,0.03576832637190819,-0.03421170637011528,0.11156602203845978,-0.21705783903598785,-0.9697623252868652,-0.001824803650379181,0.000459328293800354,0.012395381927490234,0.37634733403407616,-0.01053937220134419,0.12250620456842252,0.9182831422388268,0.21879943287041248,0.11454115268292868,2.351081029998137
1773062714630820352,0.24385523796081543,-0.0443073995411396,0.010432875715196133,-0.03771030157804489,0.11188484728336334,-0.21689866483211517,-0.9697611927986145,0.0017778724431991577,-0.008427873253822327,0.008854210376739502,0.37649516078265244,-0.010698683184879475,0.12249467783832486,0.9182222178884416,0.21863637725247384,0.11486573994020916,2.35073249792587
1773062714640856320,0.2538912296295166,-0.03323616832494736,0.0038368580862879753,-0.04828567057847977,0.11200850456953049,-0.21642544865608215,-0.9698526263237,0.006094522774219513,-0.018010586500167847,0.008640468120574951,0.3766746803899878,-0.010823781342139313,0.12229689443978589,0.9181734881887235,0.2181516421044029,0.11498083317868184,2.3503760694249864
1773062714650892288,0.2639272212982178,0.018752727657556534,0.01737823337316513,-0.05305219814181328,0.11220292747020721,-0.21628747880458832,-0.9698609113693237,0.009501174092292786,-0.02478611469268799,0.007092416286468506,0.37691025113465937,-0.010909499139405802,0.12227229612462427,0.9180791255570865,0.21801033283639423,0.11517768103466133,2.34985137338406
1773062714660929280,0.27396416664123535,0.08331853896379471,0.03783896937966347,-0.029299816116690636,0.11259259283542633,-0.21671873331069946,-0.9697194695472717,0.005022153258323669,-0.004579469561576843,-0.005652785301208496,0.37708142764278246,-0.010984324373505803,0.12255446438655702,0.917970219764586,0.21845205615330252,0.1155908326687712,2.349377535288419
1773062714670965248,0.2840001583099365,0.1349487155675888,0.03289534151554108,-0.030916888266801834,0.11299344897270203,-0.21778558194637299,-0.9694338440895081,0.0011728107929229736,0.027325376868247986,-0.010744988918304443,0.37719071900857626,-0.010949368017589126,0.12313896019177276,0.9178475138913315,0.21954501003346197,0.11603256546602876,2.348966973891589
1773062714681001216,0.2940361499786377,0.12048207968473434,0.04391879588365555,-0.04004163295030594,0.11346258223056793,-0.21900786459445953,-0.9691035747528076,-0.004011295735836029,0.025404363870620728,-0.006970584392547607,0.37734164833636713,-0.010910199311006273,0.12381100781137601,0.9176955247055626,0.220797539514971,0.11654932095945784,2.348438037861295
1773062714691037184,0.30407214164733887,0.06058013439178467,0.03701641410589218,-0.029056891798973083,0.113968625664711,-0.21985608339309692,-0.968852162361145,-0.0060126930475234985,0.004615604877471924,-0.00027930736541748047,0.37749309385797253,-0.01096041611616459,0.12431332575737501,0.9175647513490237,0.22166694745328677,0.11709451517337406,2.347943261455194
1773062714701073152,0.31410813331604004,0.005996651481837034,0.0304414052516222,0.01412404514849186,0.11430088430643082,-0.22018177807331085,-0.9687390327453613,-0.0004092901945114136,-0.012438461184501648,0.003834247589111328,0.3775181944773144,-0.011048257125961681,0.12453282332095947,0.9175236078809654,0.22200081430616647,0.11744634834468139,2.3478057567497825
1773062714711107328,0.3241422176361084,-0.013074510730803013,0.00970523338764906,0.043022271245718,0.11442053318023682,-0.22015029191970825,-0.9687320590019226,0.003972411155700684,-0.025760367512702942,0.012906253337860107,0.37734703307230516,-0.011133216741755415,0.12453924768795285,0.9175920899280626,0.22196853215460602,0.11756899758804294,2.348165532475341
1773062714721143296,0.33417820930480957,-0.0016406949143856764,0.0027644033543765545,0.015486384741961956,0.11441341042518616,-0.22013738751411438,-0.9687358140945435,-0.005664020776748657,-0.02806207537651062,0.009125828742980957,0.3771971282196667,-0.011152747408001781,0.12452993635714052,0.9176546986722783,0.22195531730307547,0.11756129218303481,2.3484945851887638
1773062714731180288,0.34421515464782715,0.012482580728828907,0.007853170856833458,0.001166834495961666,0.11444143950939178,-0.22017930448055267,-0.9687229990959167,-0.014191202819347382,-0.020695939660072327,0.010898292064666748,0.3771744399029672,-0.011160728594686092,0.12455498940280307,0.9176605164196002,0.2219982864107713,0.11759136826102791,2.348535406790394
1773062714741216256,0.3542511463165283,0.04901156574487686,0.028254583477973938,-0.002951033879071474,0.11461305618286133,-0.22047998011112213,-0.968634307384491,-0.006397724151611328,-0.0032749027013778687,0.009924590587615967,0.3771692817058431,-0.011182923138441074,0.12473085729630173,0.9176385700244761,0.22230653363970906,0.11777677113020418,2.3484891991980414
1773062714751252224,0.3642871379852295,0.06446322053670883,0.03748936206102371,-0.004559050779789686,0.11494703590869904,-0.2210274040699005,-0.9684699773788452,-0.0006892159581184387,0.0072517842054367065,-0.002095818519592285,0.37716551197723214,-0.01123255646290023,0.12505537817743914,0.9175953889588978,0.2228678106451796,0.11813664615251901,2.3483892866688696
1773062714761288192,0.37432312965393066,0.07584676891565323,0.032733552157878876,-0.03515273332595825,0.1153373122215271,-0.2216993272304535,-0.968269944190979,-0.009593911468982697,0.004673585295677185,-0.0029976963996887207,0.37723831372389083,-0.01127374057616445,0.12545087701807062,0.9175109263265186,0.22355682007464614,0.11855827025072832,2.348099996182397
1773062714771324160,0.38435912132263184,0.07475940138101578,0.023340318351984024,-0.04012832045555115,0.11570706218481064,-0.22239579260349274,-0.9680660963058472,-0.014663368463516235,0.0006550699472427368,0.003176569938659668,0.3774206358395287,-0.011285508319549269,0.12585541134908532,0.9173803193064755,0.22427111225277155,0.1189595874842702,2.3475715114687903
1773062714781360128,0.394395112991333,0.09536082297563553,0.024175219237804413,-0.020386040210723877,0.11598718166351318,-0.22318732738494873,-0.967850387096405,-0.007970206439495087,0.0011261701583862305,-0.0009759068489074707,0.37755357429085584,-0.011243755287351734,0.12628688481783493,0.9172669411175857,0.2250830613595763,0.11927118152887181,2.347152507646406
1773062714791396096,0.4044311046600342,0.10095745325088501,0.017760995775461197,-0.014765970408916473,0.11624529957771301,-0.22411713004112244,-0.9676045179367065,-0.0017891228199005127,0.00471101701259613,0.0029134154319763184,0.37760849346369757,-0.011175528990127878,0.12677868789043029,0.9171773233167453,0.22603702300097847,0.11956417783850444,2.346890266871482
1773062714801433088,0.41446805000305176,0.0879305973649025,0.021084222942590714,-0.027506887912750244,0.11648611724376678,-0.22501136362552643,-0.9673680067062378,-0.0037389248609542847,0.005315318703651428,-0.006051182746887207,0.3777062015955242,-0.011100125095206014,0.1272508590256063,0.9170725148135727,0.22695469352632996,0.11983852148005147,2.3465404659101115
1773062714811469056,0.42450404167175293,0.0807616338133812,0.020176617428660393,-0.010068243369460106,0.11676075309515,-0.22580112516880035,-0.967150866985321,-0.012161754071712494,0.006074562668800354,-0.006146252155303955,0.37778672811798053,-0.011063016507466047,0.12767999767750704,0.9169801283694279,0.22776531631668495,0.12014506343618034,2.346234891117051
1773062714821505024,0.4345400333404541,0.08835770189762115,0.02462898939847946,-0.01492074504494667,0.1170043796300888,-0.22662141919136047,-0.96692955493927,-0.01399228721857071,0.0015847980976104736,0.0009566545486450195,0.37784027661406927,-0.011009220229547948,0.12811726027654838,0.9168978158458138,0.2286074446787303,0.1204206364580404,2.345988875094251
1773062714831540992,0.4445760250091553,0.06353305280208588,0.028571000322699547,-0.016819044947624207,0.11731809377670288,-0.22732798755168915,-0.9667256474494934,-0.01154416799545288,-0.010571792721748352,0.007466614246368408,0.37790835618269986,-0.011008009434985,0.1285146231074823,0.9168140480416579,0.22933294742455262,0.12076560399204574,2.345713214273578
1773062714841577216,0.45461225509643555,0.038492344319820404,0.021558862179517746,-0.02428446337580681,0.11761815845966339,-0.22781629860401154,-0.9665741920471191,-0.011035516858100891,-0.016217514872550964,0.005468845367431641,0.3779857091201312,-0.011041574614912505,0.12880597022945395,0.9167409568600463,0.2298344212782026,0.12109026157136037,2.345444588800232
1773062714851613184,0.4646482467651367,0.016943642869591713,0.01707782782614231,-0.035635389387607574,0.11786827445030212,-0.22804780304431915,-0.9664891362190247,-0.016290515661239624,-0.009989291429519653,0.015653014183044434,0.3781180021502795,-0.011094151457492188,0.12896644597955356,0.916663227310522,0.2300721781736859,0.12135581406560189,2.3450927796589145
1773062714861649152,0.4746842384338379,0.024210210889577866,0.018127048388123512,-0.02760249562561512,0.11810091882944107,-0.2282014936208725,-0.9664244651794434,-0.01229647547006607,-0.0023130327463150024,0.01609182357788086,0.3782492239127778,-0.011153868526886209,0.1290866358320313,0.916591331681737,0.2302300389038133,0.12160105180650176,2.344754470637668
1773062714871686144,0.48472118377685547,0.0506729781627655,0.03038291446864605,-0.025295665487647057,0.11839623004198074,-0.22852234542369843,-0.9663125276565552,-0.013751454651355743,0.004523321986198425,0.0014230012893676758,0.37835624396310114,-0.011213504804333953,0.1292981166181787,0.9165166388829851,0.23055959986560054,0.12191609687206645,2.3444405351968176
1773062714881722112,0.49475717544555664,0.06459391862154007,0.04239500313997269,-0.009308220818638802,0.11878087371587753,-0.22908249497413635,-0.966132640838623,-0.02088049054145813,0.005678579211235046,-0.004066884517669678,0.3784109597458049,-0.011275340408632917,0.12964002274304742,0.9164450629541395,0.23113500516144098,0.12233078550816595,2.3441996202574917
1773062714891758080,0.5047931671142578,0.04196983203291893,0.05512011796236038,-0.006765168625861406,0.11924677342176437,-0.2296236753463745,-0.9659467935562134,-0.028792671859264374,-0.0015012025833129883,0.008671402931213379,0.3784064184053273,-0.011386993380543184,0.12998825377046358,0.9163962588140532,0.23169100971060141,0.12282920870655699,2.344077830715985
1773062714901794304,0.514829158782959,0.019408531486988068,0.039566293358802795,-0.020973090082406998,0.11974688619375229,-0.22991789877414703,-0.9658148884773254,-0.03516741842031479,-0.0076156556606292725,0.030786871910095215,0.37843242304680424,-0.01155836677039063,0.13022652073866983,0.91634950675223,0.23199331647444374,0.12335581245622751,2.3439128617945637
1773062714911830272,0.5248651504516602,0.020054081454873085,0.042396433651447296,-0.023769408464431763,0.12019164115190506,-0.2300512194633484,-0.9657279253005981,-0.03921324759721756,-0.008870899677276611,0.043212056159973145,0.37852873130537584,-0.01172538624738247,0.1303785192697914,0.9162859670707415,0.2321303183744869,0.12382035934228101,2.3436213823074596
1773062714921866240,0.5349011421203613,0.01841956563293934,0.07737578451633453,-0.012045996263623238,0.1208379939198494,-0.23021362721920013,-0.965608537197113,-0.0385931134223938,-0.013484492897987366,0.05288881063461304,0.3785620817776227,-0.011989370217008008,0.13058322809275702,0.9162396909318554,0.2322972048528637,0.12449460943902053,2.3434341981844518
1773062714931902208,0.5449371337890625,-0.028825977817177773,0.10734407603740692,0.0005371742881834507,0.1217537522315979,-0.2301996648311615,-0.965496838092804,-0.0472450852394104,-0.013055950403213501,0.062207043170928955,0.37853306012017673,-0.012421882276675686,0.13075657218492084,0.916221075809643,0.23228285653390446,0.12544261531887171,2.3433636783796974
1773062714941939200,0.5549740791320801,-0.10823198407888412,0.13521824777126312,0.02372487261891365,0.12290944159030914,-0.229568749666214,-0.9655006527900696,-0.06546009331941605,-0.012435629963874817,0.07313615083694458,0.378388094455022,-0.013102835672406513,0.1306828255044399,0.9162821123750566,0.23163458296233252,0.12662019678907946,2.343584902032851
1773062714951975168,0.5650100708007812,-0.22759807109832764,0.17414487898349762,0.03996696323156357,0.12432804703712463,-0.22803378105163574,-0.9656827449798584,-0.08492985367774963,-0.019967317581176758,0.0899808406829834,0.3781369320524102,-0.014097199509522814,0.1302302037476564,0.9164353698046545,0.23005778484506054,0.12804190778079488,2.3441074808732107
1773062714962011136,0.5750460624694824,-0.4084031283855438,0.21651263535022736,0.05081454664468765,0.12612558901309967,-0.22502727806568146,-0.9661547541618347,-0.09717968106269836,-0.04361894726753235,0.11048769950866699,0.3777701705088016,-0.01556981849036352,0.12915181003214357,0.9167153676644946,0.22697102602545605,0.12980980037342724,2.3450049553772487
1773062714972047104,0.5850820541381836,-0.5930419564247131,0.2512059211730957,0.05557175353169441,0.12829183042049408,-0.22024334967136383,-0.9669715762138367,-0.10235190391540527,-0.06479083001613617,0.15013808012008667,0.37733242288678875,-0.017567022262101134,0.12730122407201605,0.9171183077827421,0.22206394167414487,0.1319035018462601,2.34621933548462
1773062714982083072,0.5951180458068848,-0.7930927872657776,0.28152287006378174,0.0953570231795311,0.13072742521762848,-0.2135898768901825,-0.9681372046470642,-0.10054555535316467,-0.08211018145084381,0.17866277694702148,0.3767706733424788,-0.020064569725126588,0.12461459839388121,0.9176668039756032,0.21524816961319437,0.1342180501655117,2.347891819706165
1773062714992119040,0.6051540374755859,-1.0006306171417236,0.34909820556640625,0.13081061840057373,0.1335335671901703,-0.20503191649913788,-0.9696033596992493,-0.10326014459133148,-0.09500162303447723,0.18839919567108154,0.3759467893759655,-0.023129863311519585,0.12109220270687578,0.9184039679641887,0.2064963232796144,0.13685886055406657,2.3503121844011567
1773062715002156288,0.6151912212371826,-1.2708829641342163,0.40563249588012695,0.17671585083007812,0.13691942393779755,-0.19418762624263763,-0.9713620543479919,-0.11778488755226135,-0.10149718821048737,0.20622533559799194,0.3748761080196469,-0.026923738300824902,0.11659367203435143,0.9193198593914178,0.19542924194224517,0.14003355041414725,2.353460678714314
1773062715012192256,0.6252272129058838,-1.5993412733078003,0.5497316122055054,0.20976008474826813,0.14113831520080566,-0.1805301159620285,-0.9733904004096985,-0.12877869606018066,-0.114895299077034,0.2117632031440735,0.37352802626723197,-0.0316578993374216,0.11091700556109829,0.9204194742881568,0.18152539884094251,0.1439931091855641,2.357431552098328
1773062715022228224,0.635263204574585,-2.252842664718628,0.5502622127532959,0.3457759618759155,0.1458461433649063,-0.16244912147521973,-0.9758786559104919,-0.12217976152896881,-0.15810751914978027,0.21550267934799194,0.37163487646851917,-0.03749119187022747,0.10322341480759832,0.9218605324227197,0.16317223364107095,0.1483530837898568,2.3630267630518547
1773062715032264192,0.6452991962432861,-2.9808690547943115,0.7244129776954651,0.24635830521583557,0.15134596824645996,-0.13736622035503387,-0.9788896441459656,-0.13652968406677246,-0.24283702671527863,0.2528917193412781,0.36928463736089695,-0.04500448529303655,0.09235679268877606,0.9236199042937016,0.13780192875408273,0.15339526715787904,2.37027829071609
1773062715042300160,0.6553351879119873,-3.108698606491089,0.6030625700950623,-0.1392318606376648,0.15877990424633026,-0.10766370594501495,-0.9814262390136719,-0.11037902534008026,-0.30893176794052124,0.2810478210449219,0.36807066656772,-0.05410762078077104,0.07974486676329257,0.9247902990520902,0.10787279157250354,0.16039507493533972,2.375344749924956
1773062715052336128,0.6653711795806885,-3.2873761653900146,0.3419329822063446,0.16873501241207123,0.16397792100906372,-0.07626450061798096,-0.9835115671157837,-0.05344325304031372,-0.34094130992889404,0.2619844675064087,0.36741520168159897,-0.06239418076434799,0.06596356585151507,0.9256142986483554,0.07633862183435422,0.1652073751031961,2.379534553249698
1773062715062372096,0.6754071712493896,-3.961193799972534,0.5830422043800354,1.0670902729034424,0.1682039201259613,-0.04139646887779236,-0.9848825931549072,-0.067267045378685,-0.40914979577064514,0.2749674916267395,0.36323962300854323,-0.0710340507281314,0.05012838459175282,0.927630442000089,0.04140829992050859,0.16915374770344752,2.391631628027059
1773062715072409088,0.6854441165924072,-4.270572662353516,0.5565384030342102,1.6984586715698242,0.1735898107290268,-0.002911919727921486,-0.9848137497901917,-0.0819150060415268,-0.18213142454624176,0.31773000955581665,0.3550405179579464,-0.08088428715797168,0.03241703854001222,0.9307808618906879,0.002911923845159166,0.17447441241344955,2.412522002013395
1773062715082445056,0.6954801082611084,-4.350902557373047,0.4466565251350403,1.9317418336868286,0.17888586223125458,0.036420319229364395,-0.9831954836845398,-0.16367286443710327,-0.062436558306217194,0.23835301399230957,0.3446578122709272,-0.0905988810080344,0.013931560147272943,0.9342423390807075,-0.03642837393470066,0.17997463878823125,2.4380261270143038
1773062715092481024,0.7055160999298096,-4.524781703948975,0.3933461904525757,1.914357304573059,0.18411341309547424,0.07651352137327194,-0.9799224138259888,-0.17463770508766174,-0.16869185864925385,0.15867912769317627,0.33362274141508175,-0.10005871315119233,-0.005200627851756934,0.9373671749860082,-0.07658837316333941,0.18572052694066596,2.4648601776883874
1773062715102517248,0.7155520915985107,-4.872673034667969,0.3188675045967102,1.9005732536315918,0.18951694667339325,0.11898988485336304,-0.9746408462524414,-0.14883701503276825,-0.27932924032211304,0.0808115005493164,0.3224402055088336,-0.10963418304664102,-0.02568920444784912,0.9398684356237483,-0.11927247424452962,0.192051436405561,2.4921199495443846
1773062715112553216,0.7255880832672119,-5.19442081451416,0.23927387595176697,2.00303053855896,0.19498690962791443,0.16430625319480896,-0.966945469379425,-0.12726840376853943,-0.32838401198387146,0.03332120180130005,0.31062955341227955,-0.11931012413446522,-0.047878540356633165,0.941797249978943,-0.165054668175392,0.1989839375265296,2.520923901576058
1773062715122589184,0.7356240749359131,-5.545145034790039,0.14750228822231293,2.1279733180999756,0.20084163546562195,0.21199950575828552,-0.9564093351364136,-0.08991025388240814,-0.3402496576309204,0.02292245626449585,0.29782947474567545,-0.12909379577688276,-0.0716248059055695,0.9431343459988072,-0.21362051733212328,0.20698785153174898,2.552111185142518
1773062715132625152,0.7456600666046143,-5.9219279289245605,0.03901761397719383,2.204193353652954,0.20687834918498993,0.26215171813964844,-0.9425910115242004,-0.06674163043498993,-0.34737205505371094,0.01676398515701294,0.2839877849673971,-0.13882870854309637,-0.09711375240300697,0.9437406489273916,-0.2652512157130185,0.2160527140502087,2.5859304983812104
1773062715142662400,0.7556972503662109,-6.388700485229492,-0.05554378032684326,2.1936209201812744,0.21320806443691254,0.31515130400657654,-0.9247820973396301,-0.08242499828338623,-0.3500787019729614,0.0322345495223999,0.26941316769667517,-0.14860084516164526,-0.12460628799825352,0.9432961707066673,-0.3206160922506168,0.2265902281833879,2.6219814854743824
1773062715152698368,0.7657332420349121,-6.933042049407959,-0.1576397866010666,2.1071369647979736,0.21964022517204285,0.3715388774871826,-0.9020626544952393,-0.10170504450798035,-0.3441493511199951,0.023736238479614258,0.25437931226065036,-0.1584024975219522,-0.1545229117537916,0.9414469402103335,-0.3806660042367224,0.23883913972493684,2.660023185645325
1773062715162734336,0.7757692337036133,-7.540340423583984,-0.272241473197937,2.0109403133392334,0.22602912783622742,0.43141597509384155,-0.873379111289978,-0.11509773135185242,-0.31813472509384155,-0.0037266016006469727,0.23895335893592187,-0.1681843808447189,-0.18714819939186492,0.937865066609381,-0.4460617256796288,0.25324222261627355,2.7003689059474913
1773062715172770304,0.7858052253723145,-8.196005821228027,-0.4429956376552582,1.9333010911941528,0.23216396570205688,0.49445587396621704,-0.8376235961914062,-0.11158899962902069,-0.28919464349746704,-0.00592803955078125,0.22292580750625166,-0.17776494159242978,-0.2226832541989898,0.9322638289975383,-0.5172087127686926,0.27038233489518537,2.7440928433683203
1773062715182806272,0.7958412170410156,-8.657132148742676,-0.7272557616233826,1.874323844909668,0.23748844861984253,0.559221088886261,-0.7942739129066467,-0.08311527967453003,-0.2533891797065735,0.0029225945472717285,0.20608229942340023,-0.18659323191940264,-0.26085630263504095,0.9244820471540445,-0.5934459113033885,0.29053975068088495,2.7923346746988456
1773062715192842240,0.8058772087097168,-8.660211563110352,-1.0121983289718628,1.8004543781280518,0.24163377285003662,0.6218996047973633,-0.744885265827179,-0.04702317714691162,-0.20252704620361328,0.01086115837097168,0.18853076645757247,-0.193880374637338,-0.2999462925841966,0.9148217797179172,-0.671166169719621,0.3136806173711524,2.845312309345882
1773062715202878208,0.815913200378418,-8.283980369567871,-1.2651798725128174,1.7227332592010498,0.24491587281227112,0.6789485216140747,-0.6921308636665344,-0.014355584979057312,-0.1298762559890747,0.005927860736846924,0.1707408748618355,-0.19932687358312262,-0.3379398759894871,0.9038324129153285,-0.746329508549842,0.340107430148697,2.902429229043979
1773062715212915200,0.8259501457214355,-7.37222146987915,-1.4092869758605957,1.6380667686462402,0.24779577553272247,0.7273431420326233,-0.6399759650230408,0.017539307475090027,0.005032956600189209,-0.013969957828521729,0.15330983077094573,-0.20284234794168915,-0.3726486398741322,0.8924595511661509,-0.8144425203163117,0.36941948144871734,2.96217843748639
1773062715222951168,0.8359861373901367,-6.050891876220703,-1.456943392753601,1.5388023853302002,0.25083398818969727,0.765036404132843,-0.5931286811828613,0.041753292083740234,0.18578451871871948,-0.10099363327026367,0.13705376064304656,-0.20467039224713404,-0.4019274507037106,0.8819187590681189,-0.8710978685166398,0.400090367477908,3.021401622434483
1773062715232987136,0.8460221290588379,-4.524489879608154,-1.3789798021316528,1.4334977865219116,0.2542024850845337,0.7917224168777466,-0.5554787516593933,0.03627908229827881,0.34470635652542114,-0.1881278157234192,0.12210819620725957,-0.20488641704590232,-0.42459650468166754,0.8734007482069239,-0.913623453866016,0.4291790189025205,3.0771973567260673
1773062715243023104,0.8560581207275391,-3.314819574356079,-1.1733657121658325,1.3709702491760254,0.2585364282131195,0.8092984557151794,-0.5274418592453003,-0.0006171464920043945,0.45614343881607056,-0.1730433702468872,0.10922017801507912,-0.20462850002709332,-0.4409152307145331,0.8670593642194292,-0.9429568487612671,0.4557531143318239,3.126350072039474
1773062715253059072,0.8660941123962402,-2.4549620151519775,-1.0269991159439087,1.300232172012329,0.26381343603134155,0.8205944299697876,-0.5069785714149475,-0.03960081934928894,0.5165331959724426,-0.1338600516319275,0.09801706766763287,-0.20436099488345466,-0.45249012071527955,0.8624858977614849,-0.962450340590356,0.4798058618950613,-3.113827614515054
1773062715263095040,0.8761301040649414,-2.0272376537323,-0.9198442697525024,1.1594940423965454,0.2691706120967865,0.8284362554550171,-0.4911624789237976,-0.06453502178192139,0.5171142816543579,-0.028017818927764893,0.08817244908375185,-0.20403623733815462,-0.46128946541736265,0.8589568834249053,-0.9763099370477762,0.5013276607717144,-3.0759000802276293
1773062715273131008,0.8861660957336426,-1.7338286638259888,-0.7864377498626709,1.0033966302871704,0.2739928662776947,0.8346028327941895,-0.47787657380104065,-0.0833190381526947,0.44150495529174805,0.05735963582992554,0.07962423326746822,-0.20365060936592022,-0.46860233480284885,0.855919528712185,-0.9874113742095778,0.5205970573501347,-3.0423863071930586
1773062715283168000,0.8962030410766602,-1.5346957445144653,-0.5857880711555481,0.9204403758049011,0.2787618637084961,0.8396803736686707,-0.4660779535770416,-0.1260824203491211,0.34458470344543457,0.11862006783485413,0.07223524876602941,-0.20358606523606942,-0.47488287108637,0.8531242425811555,-0.9966943855758889,0.5390222682519817,-3.0121386318028165
1773062715293203968,0.9062390327453613,-1.4213862419128418,-0.38633036613464355,0.9358574151992798,0.2843204140663147,0.8438717722892761,-0.4550189971923828,-0.17966040968894958,0.2761080265045166,0.1121998131275177,0.06563427374317103,-0.2042424056823186,-0.48039102827709645,0.8504126274727424,-1.004458958254162,0.5584942681503843,-2.9832563327767683
1773062715303239936,0.9162750244140625,-1.4390008449554443,-0.23709556460380554,1.0189858675003052,0.29119396209716797,0.8474804162979126,-0.4438275098800659,-0.21665477752685547,0.25080132484436035,0.0873212218284607,0.059273101195495136,-0.2057340470127852,-0.48555097685855664,0.8475849891490693,-1.011220649090873,0.5806495025100327,-2.953396587245971
1773062715313276416,0.9263112545013428,-1.4979581832885742,-0.17918139696121216,1.0732150077819824,0.2992366552352905,0.8508428931236267,-0.43188387155532837,-0.23064842820167542,0.21855401992797852,0.07687291502952576,0.0527946251861647,-0.20785260174667164,-0.49077016890509556,0.844484790831564,-1.0175874317835867,0.6059204400090127,-2.9212318231869876
1773062715323312384,0.936347246170044,-1.401648998260498,-0.17080165445804596,1.0488094091415405,0.30755847692489624,0.8538106679916382,-0.420017808675766,-0.22717517614364624,0.16640710830688477,0.050114333629608154,0.046334793673044807,-0.21008473895995677,-0.4958381713241828,0.8413452595845372,-1.0232619055421803,0.6320446585577717,-2.8884696853650005
1773062715333348352,0.9463832378387451,-1.3802907466888428,-0.06101284176111221,1.0901033878326416,0.316180020570755,0.8562740683555603,-0.40844225883483887,-0.2330806851387024,0.1039615273475647,0.04613757133483887,0.04008225679716919,-0.21253985786484797,-0.5006053084417217,0.8382211404172112,-1.028012432686409,0.6587549884446282,-2.855830957970131
1773062715343385344,0.9564201831817627,-1.1611969470977783,0.022946670651435852,1.141626000404358,0.3257475197315216,0.8578754663467407,-0.3974142372608185,-0.2443418800830841,0.09604287147521973,0.09239107370376587,0.033963038931946014,-0.21554049948874004,-0.5048120211545607,0.8351966816227333,-1.0311208214285932,0.6866187840727385,-2.8231484655972046
1773062715353421312,0.9664561748504639,-0.7502266764640808,0.056767482310533524,1.1782598495483398,0.3358791172504425,0.8578179478645325,-0.38901621103286743,-0.2397487461566925,0.17886418104171753,0.10315805673599243,0.028172612486408698,-0.21880167368762268,-0.5075605590975967,0.8328952196798332,-1.0310089053494598,0.7122259148816907,-2.7937730168899853
1773062715363457280,0.976492166519165,-0.3512285053730011,0.11148115992546082,1.234017252922058,0.34654462337493896,0.8557974100112915,-0.3840801417827606,-0.22014084458351135,0.23494654893875122,0.035950928926467896,0.022744178071601378,-0.2222728842370516,-0.5084827359340685,0.8315784367016174,-1.02709028372644,0.7340687486595637,-2.769209032736874
1773062715373493248,0.9865281581878662,-0.14433152973651886,0.226439967751503,1.2616100311279297,0.35794299840927124,0.852253794670105,-0.38149741291999817,-0.20956653356552124,0.24244225025177002,0.010357916355133057,0.01769198287098327,-0.22620504760376756,-0.5080182711736319,0.8309246258467443,-1.0202786321518298,0.7535545223090161,-2.748399956527012
1773062715383529216,0.9965641498565674,-0.13193106651306152,0.25414136052131653,1.2395814657211304,0.3695555031299591,0.8481746315956116,-0.37951064109802246,-0.2152891755104065,0.21437102556228638,0.04425981640815735,0.01326405038090967,-0.2306126008177496,-0.5070133149529437,0.8304091012569857,-1.0125298416817454,0.7721088663379044,-2.7302166824071703
1773062715393565184,1.0066001415252686,-0.31769558787345886,0.2964683175086975,1.2141752243041992,0.3809831738471985,0.8443743586540222,-0.3766745626926422,-0.22165092825889587,0.1646740436553955,0.1407890021800995,0.008888290080935092,-0.23504012408798114,-0.5063781741301087,0.8296133325212541,-1.005396349536224,0.7910848378757751,-2.7116939629999286
1773062715403601152,1.0166361331939697,-0.5801863670349121,0.35767173767089844,1.209433674812317,0.39246129989624023,0.8413501381874084,-0.37162336707115173,-0.19226601719856262,0.12675893306732178,0.2447008192539215,0.0044285120325689,-0.23966726655850137,-0.5067029806073742,0.8281255744836544,-0.9997763637104462,0.8126631513731907,-2.690665941291477
1773062715413638144,1.0266730785369873,-0.8385209441184998,0.41682136058807373,1.2081748247146606,0.40408915281295776,0.839145302772522,-0.36406999826431274,-0.12929365038871765,0.12107491493225098,0.23591145873069763,-0.00023439174268377497,-0.24450505345414764,-0.5081164054904999,0.8258540153013026,-0.995709955358425,0.837448594701469,-2.6663618997046243
1773062715423674112,1.0367090702056885,-1.085223913192749,0.4178706407546997,1.1884567737579346,0.41569602489471436,0.8376502990722656,-0.35431456565856934,-0.053894877433776855,0.09281539916992188,0.19701170921325684,-0.005102563282090906,-0.24942042705020334,-0.5105214690983937,0.8228798668642245,-0.9929670929955037,0.8649450546539725,-2.6390854360978593
1773062715433710080,1.0467450618743896,-1.4267548322677612,0.36071494221687317,1.1460782289505005,0.4268933832645416,0.8370916247367859,-0.34211036562919617,0.031709522008895874,0.024389028549194336,0.15172648429870605,-0.010265410280062944,-0.25413842227870326,-0.5141580227062944,0.8191152204052281,-0.991945101424828,0.8952051320541421,-2.608213526770552
1773062715443746048,1.0567810535430908,-1.739669680595398,0.27891913056373596,1.0116980075836182,0.43705612421035767,0.8377219438552856,-0.327420175075531,0.11088699102401733,-0.050154805183410645,0.0770997405052185,-0.015674844143592086,-0.2582946687293838,-0.5192049478539411,0.8145332916775219,-0.993098307566073,0.9278400626992869,-2.5736368634911506
1773062715453782016,1.066817045211792,-2.029313325881958,0.2795764207839966,0.8363969922065735,0.44570305943489075,0.8396961092948914,-0.31025680899620056,0.16223761439323425,-0.09746283292770386,0.0018004179000854492,-0.020998565487153918,-0.2617793804514854,-0.5256835030300616,0.8091276264943535,-0.9967233832022916,0.9626881920676489,-2.53583755787349
1773062715463817984,1.0768530368804932,-1.8692275285720825,0.16219717264175415,0.47073009610176086,0.45205870270729065,0.8424961566925049,-0.29299014806747437,0.17272767424583435,-0.12281537055969238,-0.02352297306060791,-0.025370293960213865,-0.26444289638407686,-0.5325174997627602,0.8036488443832501,-1.001900220614873,0.9957409850404673,-2.499953368986484
1773062715473853952,1.0868890285491943,-1.8623753786087036,0.1564391553401947,0.33193281292915344,0.4555402994155884,0.8463343977928162,-0.27604594826698303,0.1730760633945465,-0.10162901878356934,-0.004563182592391968,-0.028853530238473188,-0.265830302137876,-0.539732590612474,0.7982421978261659,-1.009065354190866,1.0259951472305961,-2.466194068381595
1773062715483891200,1.096926212310791,-1.2275184392929077,0.16210253536701202,0.5233889818191528,0.4596356451511383,0.8486388921737671,-0.2618154287338257,0.20113101601600647,0.08011794090270996,0.012288421392440796,-0.032033172226769276,-0.2675554264940199,-0.5454414594204077,0.793650874279856,-1.013406826889534,1.0530183309798526,-2.4367773674580113
1773062715493927168,1.1069622039794922,-0.808089017868042,0.04701349139213562,0.5040736198425293,0.4643927216529846,0.848505437374115,-0.2537280321121216,0.2603082060813904,0.235051691532135,-0.08375060558319092,-0.03476115673890722,-0.269462089185907,-0.5482026641331204,0.7909840067979204,-1.0131546297541874,1.0707479988686472,-2.417833424797888
1773062715503963136,1.1169981956481934,-0.7621653079986572,-0.05383169651031494,0.5795416831970215,0.4689076840877533,0.8481650948524475,-0.24645832180976868,0.2999064028263092,0.138178288936615,-0.08914345502853394,-0.037865789449957755,-0.27087628164762967,-0.5508147405510654,0.7885400683781614,-1.0125117967443167,1.0868783314591983,-2.399211056843762
1773062715513999104,1.1270341873168945,0.07721617072820663,-0.12932220101356506,0.3902716338634491,0.4730457365512848,0.8465111255645752,-0.24422678351402283,0.3234477937221527,0.055115461349487305,-0.16826403141021729,-0.04052115253179634,-0.2719090751091969,-0.5513184745686848,0.7877001076654482,-1.0093972379396754,1.094205135845402,-2.3896160866410585
1773062715524035328,1.1370701789855957,-0.3953269422054291,-0.07091164588928223,-0.019855137914419174,0.47430720925331116,0.8458235263824463,-0.24416223168373108,0.29592591524124146,-0.24806052446365356,-0.34204989671707153,-0.04144539923313689,-0.27208977326111916,-0.5512585944451915,0.7876314729906125,-1.0081069687667594,1.0953974637956374,-2.387377127538402
1773062715534071296,1.1471061706542969,-1.0888018608093262,0.005290444940328598,-0.11048170924186707,0.47345733642578125,0.8481938242912292,-0.2374982237815857,0.21459197998046875,-0.48601120710372925,-0.3593950867652893,-0.0421868325140238,-0.2716010295763452,-0.5545121917152945,0.7854740060926954,-1.0125660777917662,1.105849242225023,-2.3748683620941753
1773062715544108032,1.1571431159973145,-1.3899962902069092,-0.1387239545583725,0.0821385607123375,0.47310715913772583,0.851231575012207,-0.2271004468202591,0.12990495562553406,-0.32091224193573,-0.07233807444572449,-0.04381118149400743,-0.2711339777869373,-0.5594069571166225,0.7820683554701359,-1.0183276088805404,1.1232608833217699,-2.3540574311387785
1773062715554144256,1.1671791076660156,-1.3150144815444946,-0.3072700798511505,0.3081192374229431,0.47433626651763916,0.8532976508140564,-0.21653681993484497,0.19135889410972595,-0.24244260787963867,-0.008011505007743835,-0.04702528392209236,-0.270557075806217,-0.5643850241346313,0.778496636881896,-1.0222772369660533,1.142546124939459,-2.3289354217615177
1773062715564180224,1.1772150993347168,-1.4739447832107544,-0.37111973762512207,0.3729413151741028,0.47656136751174927,0.8545255661010742,-0.20657995343208313,0.35481372475624084,-0.328585684299469,-0.16707728803157806,-0.051165286412566895,-0.26987644332606253,-0.56910168506523,0.775030346723487,-1.0246366944347634,1.1617647898921744,-2.302431462003419
1773062715574216192,1.187251091003418,-1.8858447074890137,-0.4618496298789978,0.37321749329566956,0.4789876639842987,0.8560701608657837,-0.19420240819454193,0.4174509346485138,-0.47066372632980347,-0.17319868505001068,-0.05600849107483647,-0.2689696268607196,-0.5749383755088521,0.7706907182584796,-1.0276178326889087,1.185606142081381,-2.269905472507574
1773062715584252160,1.1972870826721191,-2.2168376445770264,-0.5002247095108032,0.3635334372520447,0.4812447726726532,0.8581481575965881,-0.1788441687822342,0.3920920193195343,-0.6225982308387756,-0.135761559009552,-0.061480768737893876,-0.26765525597313794,-0.5821843190069896,0.7652726626821584,-1.0316517788550714,1.2149849649670288,-2.23027280585956
1773062715594288128,1.2073230743408203,-2.5243000984191895,-0.4390377998352051,0.2841094434261322,0.4832328259944916,0.8606051206588745,-0.16076402366161346,0.32064592838287354,-0.7411287426948547,-0.08406323194503784,-0.06723742932808441,-0.2660651259975975,-0.590616062729389,0.7588552228972558,-1.0364566422970032,1.249629916007272,-2.184533111650569
1773062715604324096,1.2173590660095215,-2.3434886932373047,-0.30035582184791565,0.37117430567741394,0.4853053689002991,0.8628819584846497,-0.14111419022083282,0.23643529415130615,-0.6832709312438965,-0.03188994526863098,-0.07271375792241634,-0.2647681461738807,-0.5994503618551105,0.7518441920218839,-1.0409445091433664,1.287825090169257,-2.136128516521382
1773062715614361344,1.2273962497711182,-1.5422894954681396,-0.22674766182899475,0.5842732787132263,0.48920708894729614,0.8631347417831421,-0.12519855797290802,0.17105597257614136,-0.40627145767211914,-0.05557231605052948,-0.07786517948207498,-0.26461729866045886,-0.6061174860857909,0.7460135515316669,-1.0414449110295139,1.320252398458527,-2.0958370792594514
1773062715624397312,1.2374322414398193,-0.826310932636261,-0.26600852608680725,0.5728024244308472,0.49393153190612793,0.8616600632667542,-0.11650574207305908,0.18091893196105957,-0.22332388162612915,-0.05646789073944092,-0.0822554656979864,-0.26504833149636564,-0.6095051364679617,0.7426216527894531,-1.0385318203963283,1.3391560030039256,-2.071185655355862
1773062715634433280,1.2474682331085205,-0.5337831974029541,-0.27263206243515015,0.6634793281555176,0.4989016652107239,0.8593865633010864,-0.11203576624393463,0.20263642072677612,-0.15618526935577393,-0.10347938537597656,-0.08619230933729456,-0.26568197750516276,-0.6110607207884158,0.7406678296117941,-1.0340687360256822,1.349896126067099,-2.0557228136630825
1773062715644469248,1.2575042247772217,-0.43811067938804626,-0.2738805115222931,0.8453748226165771,0.5050481557846069,0.8561307787895203,-0.1093924343585968,0.15703070163726807,-0.11400419473648071,-0.0011269599199295044,-0.09040406493909502,-0.26678594469968264,-0.611660887126545,0.7392722746116517,-1.0277351479620283,1.3574932445224828,-2.0437572365088945
1773062715654505216,1.2675402164459229,-0.6502929925918579,-0.232904851436615,1.005136489868164,0.5127924680709839,0.8519140481948853,-0.1062358021736145,0.10601240396499634,-0.15156632661819458,0.1413462907075882,-0.09530634418266301,-0.2685108165808418,-0.6121960787131642,0.7375869220077853,-1.0196295338728594,1.3665150377752484,-2.030322734166246
1773062715664541184,1.277576208114624,-1.1138989925384521,-0.14643317461013794,0.9397636651992798,0.520973801612854,0.8477123379707336,-0.09984977543354034,0.05721217393875122,-0.2661694288253784,0.11892331391572952,-0.10064797446100371,-0.2704394319978811,-0.6139524619265455,0.7347073031967355,-1.011657713003526,1.3814328207743893,-2.0106347307598607
1773062715674577152,1.2876121997833252,-1.5770108699798584,-0.049995314329862595,0.9079160094261169,0.5286313891410828,0.8442097306251526,-0.08865038305521011,-0.007971048355102539,-0.3784046769142151,0.0826537013053894,-0.1061204067292959,-0.27223825730799434,-0.6177063551093506,0.7301121398944579,-1.0050891363804366,1.404644450750391,-1.9822104709144421
1773062715684614144,1.2976491451263428,-1.9635155200958252,0.07741031050682068,1.1052151918411255,0.5370614528656006,0.8403171300888062,-0.07370392978191376,-0.06739592552185059,-0.39865148067474365,0.02916353940963745,-0.11205958834848807,-0.27448058139526627,-0.6227426814327877,0.7240819555265863,-0.9978679381249954,1.4344127112086373,-1.9472120439783822
1773062715694650112,1.307685136795044,-1.9017304182052612,0.15906548500061035,1.305191993713379,0.5473150014877319,0.8350118398666382,-0.056583222001791,-0.051831603050231934,-0.2886708974838257,-0.004970729351043701,-0.11879332685898908,-0.27756039339531235,-0.6282265656390542,0.717063333184525,-0.9881542762633517,1.4677790270166822,-1.908761088859079
1773062715704686080,1.3177211284637451,-1.5488786697387695,0.07719386368989944,1.3052202463150024,0.5584381222724915,0.8285197019577026,-0.04125557839870453,0.014895617961883545,-0.07809245586395264,0.11977732181549072,-0.12550447991613609,-0.2812117962652453,-0.6326864441053998,0.7105465845737622,-0.9764589148990627,1.4970535675281718,-1.875348675823217
1773062715714722560,1.3277575969696045,-0.7539502382278442,-0.044599153101444244,1.1994837522506714,0.56874018907547,0.8219114542007446,-0.031562767922878265,0.06996220350265503,0.09277665615081787,0.289268434047699,-0.13150655107575202,-0.28448538255407174,-0.6350485669389596,0.7060364377434548,-0.964758666332301,1.5153572569223055,-1.8533955330194145
1773062715724758528,1.3377935886383057,-0.849433958530426,-0.12820087373256683,1.264444351196289,0.5787646770477295,0.8150801658630371,-0.02599925920367241,0.08360409736633301,0.2098069190979004,0.233656108379364,-0.1371332379364591,-0.28761311036437015,-0.6358294341906506,0.7029894981366138,-0.9528676051222176,1.5259045225780112,-1.839544014343096
1773062715734794496,1.3478295803070068,-0.6994500160217285,-0.21268539130687714,1.3306517601013184,0.5893212556838989,0.8076447248458862,-0.02026049606502056,0.07364261150360107,0.23396599292755127,-0.01645219326019287,-0.14345283528495215,-0.2905896480895235,-0.6367318180851632,0.6996795923217752,-0.9401468464007755,1.5364304872513106,-1.82447574466081
1773062715744831488,1.3578665256500244,-0.010738053359091282,-0.17495845258235931,1.1951885223388672,0.5997816920280457,0.7999528050422668,-0.018374212086200714,0.035731613636016846,0.09271687269210815,-0.04041790962219238,-0.1492521436913118,-0.29372993283204285,-0.6360311477120885,0.6977900890833355,-0.9272165857245775,1.5401710731126654,-1.8172179858699853
1773062715754867456,1.3679025173187256,-0.08545463532209396,-0.09347398579120636,0.16673804819583893,0.6055440306663513,0.7955693006515503,-0.019647926092147827,-0.052351951599121094,-0.2279728651046753,0.045023322105407715,-0.15203051353343347,-0.2956950994541686,-0.6346183457217763,0.6976465795607297,-0.9199466209523306,1.5383609721924694,-1.8180714076380045
1773062715764903424,1.3779385089874268,-0.23437434434890747,-0.12454602122306824,-0.4391666054725647,0.6037309765815735,0.7969678044319153,-0.01874455437064171,-0.09857350587844849,-0.05856448411941528,-0.00022214651107788086,-0.1519084381390132,-0.294426362573183,-0.6355634035523968,0.6973493952667986,-0.922258463386201,1.539758438688398,-1.8148694248848278
1773062715774939648,1.387974500656128,-0.5481517314910889,-0.18646158277988434,0.24175547063350677,0.6026703119277954,0.7978159189224243,-0.016683228313922882,-0.05202639102935791,0.7797750234603882,-0.21041327714920044,-0.15245053610894377,-0.2932351849983819,-0.6369234740970293,0.6964915562379695,-0.9236638695365793,1.5431212131653467,-1.808856156158107
1773062715784975616,1.398010492324829,-0.8707045912742615,-0.3000178933143616,0.4656946659088135,0.605929434299469,0.7954193949699402,-0.0125545933842659,0.1603211760520935,1.289617896080017,-0.3905215859413147,-0.1556857536530641,-0.2931748492516774,-0.638569660311639,0.6942904725415624,-0.9196992236915373,1.5500797265649582,-1.7970927371750012
1773062715795011584,1.4080464839935303,-1.6825146675109863,-0.23300477862358093,0.24925076961517334,0.6087138056755066,0.7933781147003174,-0.004310877528041601,0.32616162300109863,0.9182917475700378,-0.3880383372306824,-0.15956871322761337,-0.29241523846583245,-0.6421354137003998,0.6904297494898124,-0.9163385946779073,1.5637145003585617,-1.7766061079217759
1773062715805047552,1.4180824756622314,-1.2140605449676514,-0.3123001158237457,0.1548745036125183,0.610191822052002,0.7922244668006897,0.006814687047153711,0.29195356369018555,0.2346462607383728,-0.34827589988708496,-0.16347919140543898,-0.2907364102614355,-0.6472091496378829,0.6854686382157723,-0.9144456740154306,1.581963968691935,-1.7500312361249128
1773062715815084544,1.428119421005249,-0.3143041431903839,-0.030995458364486694,0.4831778407096863,0.612555980682373,0.7903485894203186,0.011157150380313396,0.19327592849731445,0.022655010223388672,-0.03576958179473877,-0.1661795575965124,-0.2904182264770649,-0.6490268320752636,0.6832319362545783,-0.9113777421966315,1.589008402951779,-1.7385550438072306
1773062715825120512,1.4381554126739502,0.8618393540382385,0.25310322642326355,0.7987896203994751,0.6177313327789307,0.7863218188285828,0.01030926313251257,0.1589716076850891,0.2834109663963318,-0.1694279909133911,-0.16770047843121075,-0.2931716393647186,-0.6474604400249191,0.6831705917102047,-0.9048327167101275,1.58748368827668,-1.7421423927751187
1773062715835156480,1.4481914043426514,2.942782402038574,0.5276785492897034,1.0002585649490356,0.6248130202293396,0.78077232837677,-0.0018496778793632984,0.13469326496124268,0.7072343826293945,-0.2141079306602478,-0.16678082202244207,-0.29899371902157185,-0.6400608698017943,0.6878292643375614,-0.8959010017248229,1.5678359651845382,-1.7722351493684223
1773062715845192448,1.4582273960113525,4.5532121658325195,0.716812014579773,1.1580207347869873,0.6333481669425964,0.7733553647994995,-0.028139423578977585,0.01992642879486084,0.694875955581665,-0.1499001383781433,-0.16266425380276048,-0.3078025043683254,-0.6254501628633963,0.6982908905579728,-0.8841168141894401,1.5263958956437658,-1.8336096475869208
1773062715855228672,1.4682636260986328,4.354580879211426,0.6088248491287231,1.14383065700531,0.6426822543144226,0.7638677358627319,-0.05887078121304512,-0.04250830411911011,0.40225470066070557,-0.2983832359313965,-0.15754872616459464,-0.3174990407913338,-0.608078093925162,0.7103617844201452,-0.8692850777119104,1.4794495554521414,-1.9035990889922878
1773062715865264640,1.478299617767334,3.0118842124938965,0.6387640833854675,0.9754202365875244,0.6512815356254578,0.7542546987533569,-0.08325978368520737,-0.06271952390670776,0.30945074558258057,0.014961421489715576,-0.1535019271875134,-0.3258613867872578,-0.5934513161075679,0.7197687519065495,-0.8545182944273908,1.443646079332941,-1.9589536480010468
1773062715875301632,1.4883365631103516,1.5408202409744263,0.9299168586730957,0.7722508311271667,0.6584802865982056,0.7465505599975586,-0.0952155664563179,-0.13655340671539307,0.2217874526977539,0.3198401927947998,-0.15070997769576225,-0.3328601671254236,-0.5844624252947147,0.7244958799620493,-0.8428622934494538,1.427192706511162,-1.9909372531495118
1773062715885337600,1.4983725547790527,1.2495756149291992,1.364954948425293,0.7489528059959412,0.6652717590332031,0.7402445077896118,-0.09722009301185608,-0.09451675415039062,-0.11399322748184204,0.38869351148605347,-0.14787873817945296,-0.3402851991097804,-0.5793064263375534,0.7257699380086722,-0.8334339220426054,1.425687560010373,-2.008655003007687
1773062715895373568,1.508408546447754,1.3933461904525757,1.1518903970718384,0.4289657473564148,0.6712349653244019,0.7346686720848083,-0.0985175147652626,0.17227089405059814,-0.7671851515769958,0.5028143525123596,-0.1440049358270613,-0.3479128346524598,-0.5741932608798063,0.7269947819951578,-0.825178183407754,1.4250662617614864,-2.027416178865425
1773062715905409536,1.518444538116455,2.9409515857696533,0.27399665117263794,-0.4232059419155121,0.6728440523147583,0.732259213924408,-0.10524960607290268,0.633933961391449,-1.3795675039291382,0.3106481432914734,-0.13962604232331066,-0.3519923102431937,-0.5687500406263069,0.7301571409665331,-0.8216334392891615,1.415628786347819,-2.050088543818056
1773062715915445504,1.5284805297851562,-1.6659796237945557,-1.3990254402160645,-1.5587530136108398,0.6633958220481873,0.7387912273406982,-0.1187157854437828,1.110957145690918,-1.4523379802703857,-0.09820317476987839,-0.13418811121650456,-0.34769067093879696,-0.5654673322102575,0.7357658686680606,-0.8312749692273731,1.3937190141234748,-2.0731296306176183
1773062715925481472,1.5385165214538574,-1.5840907096862793,-1.0481048822402954,-0.2301991879940033,0.6560166478157043,0.7462195158004761,-0.1131315529346466,1.108586072921753,-0.6217535138130188,-0.4632386565208435,-0.13871609611129057,-0.33901026350920627,-0.573154659425404,0.7330236676957531,-0.842364872346942,1.4000237564269467,-2.0458859435662395
1773062715935518464,1.548553466796875,-1.2724535465240479,0.2106226682662964,-0.6626904606819153,0.652754545211792,0.7503774762153625,-0.10413958132266998,0.39216727018356323,1.1027261018753052,-0.062394849956035614,-0.1414919848081536,-0.33506468096914693,-0.5793633296675678,0.7294174128833647,-0.8486329426424284,1.4125909278152073,-2.0226786630858635
1773062715945554432,1.5585894584655762,1.6133843660354614,2.005634307861328,-1.9619683027267456,0.6438615918159485,0.7588017582893372,-0.09829634428024292,-0.412034809589386,0.9282862544059753,-0.7577369809150696,-0.1329810610564945,-0.3355006056660271,-0.5816280365295317,0.72901594995312,-0.8614714605207261,1.4192992126419723,-2.0289068974832176
1773062715955590400,1.5686254501342773,2.4130847454071045,2.67362642288208,-2.2566747665405273,0.6295093297958374,0.7705417275428772,-0.09991779178380966,-0.9783710241317749,0.10671669244766235,-0.7725034952163696,-0.11395626112221673,-0.3395585617689737,-0.5785681345750006,0.7327843964479774,-0.8796906735615658,1.413386157466303,-2.0689470434973933
1773062715965626368,1.5786614418029785,1.0086318254470825,1.5537052154541016,-1.455560326576233,0.6169375777244568,0.7807413339614868,-0.0991501659154892,-0.6408938765525818,-0.41445428133010864,-0.3181930184364319,-0.09782720786674501,-0.34297316762067964,-0.5768832853245013,0.7348501814610279,-0.8958513904544815,1.4114454997015227,-2.0996582166312368
1773062715975662592,1.5886974334716797,-0.3306868374347687,0.0469701811671257,-0.6832036375999451,0.6095480918884277,0.7867530584335327,-0.09731817245483398,0.10672998428344727,0.08690416812896729,0.18638372421264648,-0.0911938140239497,-0.34294488486365804,-0.5776934484931819,0.7350801560698267,-0.9055310669834475,1.4124762399093909,-2.108056739487184
1773062715985698560,1.5987334251403809,-0.7721179723739624,-0.03313141316175461,-0.8091644048690796,0.6040843725204468,0.7915124893188477,-0.09268268942832947,0.4761615991592407,0.6682500839233398,0.5235756635665894,-0.0900264840092862,-0.3403797167306046,-0.5812059040188364,0.7336460920389732,-0.9132798802462752,1.4185567418360643,-2.0993398516134762
1773062715995734528,1.608769416809082,-0.6876941919326782,0.815937340259552,-1.4801782369613647,0.5951783061027527,0.7990759611129761,-0.08509085327386856,0.2529662251472473,0.6943322420120239,0.14521050453186035,-0.08588170075957166,-0.33801635445815276,-0.5858323300349765,0.7315530041444063,-0.9257567338719573,1.4287916260999,-2.0910078970874038
1773062716005771520,1.6188066005706787,-0.6503300070762634,1.6583983898162842,-1.4064680337905884,0.5840269923210144,0.8085647821426392,-0.071663036942482,-0.1279875636100769,0.23379361629486084,-0.3959883451461792,-0.0778700896127235,-0.3379064677855941,-0.5915975829141403,0.7278515346150006,-0.9417088895374763,1.4487016502048171,-2.082062924171846
1773062716015807744,1.6288425922393799,0.1086871474981308,1.5600247383117676,-0.9176124930381775,0.5757697224617004,0.8154346942901611,-0.05962607264518738,-0.034876227378845215,-0.22934472560882568,-0.33531713485717773,-0.06900894210634669,-0.3406227339157714,-0.5951160528361099,0.7246037981011041,-0.9534797285575523,1.4676052742922092,-2.079941813598646
1773062716025843712,1.638878583908081,-0.09366802871227264,0.6255022883415222,-0.7603837847709656,0.5696098804473877,0.8201364874839783,-0.05404157564043999,0.5755011439323425,-0.5905681252479553,-0.1699879765510559,-0.06252824100738073,-0.3422035336663822,-0.5965533948160331,0.723264042428383,-0.9616494913036235,1.4762047444551478,-2.0830186375166475
1773062716035879680,1.6489145755767822,-0.866296112537384,-0.20470726490020752,-0.46628642082214355,0.5644888281822205,0.8239893317222595,-0.04892818257212639,1.0938668251037598,-0.7603601813316345,-0.10112673044204712,-0.060550407405585205,-0.34080302985527194,-0.5994907865497725,0.7216631792643956,-0.9684161498455974,1.484335443398042,-2.075314470544276
1773062716045915648,1.6589505672454834,-1.2330379486083984,-0.48576465249061584,-0.23650377988815308,0.5616191625595093,0.8263188004493713,-0.04220426455140114,1.1754260063171387,-0.5862827897071838,0.03634488582611084,-0.062327270147630474,-0.33813153559799525,-0.6037921268160035,0.7191783497710708,-0.9725398365038296,1.4957898298052859,-2.0568624218321716
1773062716055951616,1.6689865589141846,-1.4508072137832642,-0.3047029972076416,-0.35234251618385315,0.5590728521347046,0.8284480571746826,-0.033334147185087204,0.8193755745887756,-0.46312224864959717,0.028039339929819107,-0.06490305611378137,-0.3352727475891231,-0.6090362147144698,0.7158593159254196,-0.9763309548522847,1.5112428537657765,-2.0329587989070568
1773062716065988608,1.6790235042572021,4.8637776374816895,0.3951120376586914,-0.1732790470123291,0.5563783645629883,0.8300673365592957,-0.03783296048641205,0.2566099166870117,-0.44244831800460815,-0.03376126289367676,-0.06274368479003647,-0.33453094512101433,-0.6075957259181559,0.7176208679165641,-0.979228420250265,1.5029022207971061,-2.0432583188446443
1773062716076024576,1.6890594959259033,1.4017276763916016,1.0753542184829712,0.5818911194801331,0.5590225458145142,0.827369213104248,-0.054349374026060104,-0.15503090620040894,-0.3042522668838501,-0.2502313256263733,-0.057627572573966425,-0.3385297740956586,-0.5985172558026793,0.723777370882814,-0.9744073977766585,1.473878776434606,-2.086360841253951
1773062716086060544,1.6990954875946045,1.8056424856185913,1.3281223773956299,0.6345400810241699,0.5644567608833313,0.8231071829795837,-0.06231384724378586,-0.2489812970161438,0.5012335181236267,-1.0311919450759888,-0.05319822697933978,-0.34499573252376153,-0.591456693697225,0.7268609348469532,-0.9668610544782008,1.4608454073342,-2.1164048007580445
1773062716096096512,1.7091314792633057,1.7300742864608765,1.0386106967926025,0.4800280034542084,0.5702248811721802,0.8184669017791748,-0.07039427012205124,-0.09332668781280518,0.7326499223709106,0.5698297023773193,-0.04872689790072503,-0.35160192644219973,-0.5841052563808038,0.7299470596716022,-0.958737569395003,1.44796775759095,-2.146690684763213
1773062716106132480,1.7191674709320068,1.2667269706726074,0.4672073721885681,0.02517576515674591,0.5729284286499023,0.8158223628997803,-0.07865738123655319,0.07015323638916016,-0.3628194332122803,0.3134443759918213,-0.04482514857542608,-0.3554409880836414,-0.5782153677662841,0.7330207831078167,-0.9541498184366123,1.4343592065506707,-2.1724340737306447
1773062716116168448,1.729203462600708,0.6214533448219299,0.008374551311135292,-0.3783719837665558,0.5715874433517456,0.8161290884017944,-0.08497896045446396,0.32770460844039917,-0.7560093402862549,0.24518096446990967,-0.04176573056183616,-0.3559817045993855,-0.575141325425529,0.7353538386899031,-0.9546803930161892,1.4232055485902801,-2.1890405094316105
1773062716126205440,1.7392404079437256,0.2110619843006134,-0.309114009141922,-0.4469339847564697,0.5679481625556946,0.8182126879692078,-0.0892365500330925,0.4205161929130554,-0.7756557464599609,0.2718079686164856,-0.03996174761941443,-0.35421475003981334,-0.5743810887565377,0.7368999111201427,-0.9582952419930383,1.414949515163538,-2.197078129772535
1773062716136241408,1.7492763996124268,-0.2515197694301605,-0.3865680694580078,-0.3428640365600586,0.5643370747566223,0.8204898834228516,-0.09121290594339371,0.3636718988418579,-0.7047826051712036,0.2908284068107605,-0.03953703502268506,-0.35172908942730596,-0.5750479935202454,0.7375928244038245,-0.9622674632057638,1.4105537076867243,-2.1980325884460186
1773062716146277632,1.759312629699707,-0.5442096590995789,-0.4510134756565094,-0.18184949457645416,0.5618101358413696,0.8223422765731812,-0.09012452512979507,0.2415650486946106,-0.5696415305137634,0.32877200841903687,-0.040501814418962584,-0.34935833723334614,-0.5769631605342376,0.7371714965173561,-0.9655154267501792,1.4117334028286976,-2.191533312676663
1773062716156313600,1.7693486213684082,-0.5626768469810486,-0.5922592878341675,-0.05603671073913574,0.5603983402252197,0.8235036134719849,-0.08829210698604584,0.16688132286071777,-0.41952717304229736,0.26198285818099976,-0.042586956631173484,-0.3469885358395183,-0.5791829617930222,0.7364321963312684,-0.9675594032806069,1.4145284730539136,-2.1818135470090736
1773062716166349568,1.7793846130371094,-0.42623770236968994,-0.8881601691246033,0.035550154745578766,0.5596964359283447,0.823984682559967,-0.08825657516717911,0.16778159141540527,-0.40867096185684204,0.2315213680267334,-0.04556287093957466,-0.344154971398235,-0.5808864503113101,0.7362420712689342,-0.968407996584632,1.4143976257321362,-2.1730577905005184
1773062716176385536,1.7894206047058105,-0.07639556378126144,-1.2442375421524048,0.016042232513427734,0.5590553283691406,0.824003279209137,-0.09206489473581314,0.21842581033706665,-0.4021739363670349,0.22173404693603516,-0.0492741489215303,-0.3402607576786695,-0.5815412002588429,0.737295489367422,-0.9684407879933981,1.4075818260561905,-2.168330405585011
1773062716186422528,1.7994575500488281,-2.6576409339904785,-2.183823823928833,-0.1888846755027771,0.557061493396759,0.8250980973243713,-0.09431558102369308,0.2727571725845337,-0.2981359362602234,0.2168893963098526,-0.054949989460482775,-0.3340730952208402,-0.5841552674268695,0.7376572220758055,-0.9703757697154052,1.4030777443417808,-2.154733724928702
1773062716196458496,1.8094935417175293,-3.48909592628479,-1.9193940162658691,0.2194703221321106,0.5555925369262695,0.8275130391120911,-0.0808635875582695,0.2555646300315857,-0.22070163488388062,0.3100658059120178,-0.0662718778656888,-0.3256052107929334,-0.5946002470675256,0.7321473556903412,-0.9746635915187701,1.4262663985445294,-2.101389287478746
1773062716206494464,1.8195295333862305,-5.386075973510742,-2.062565326690674,0.5208202600479126,0.557159960269928,0.8288046717643738,-0.0515328124165535,0.14723151922225952,-0.4592215418815613,0.8181038498878479,-0.08145632699326202,-0.3175617719355508,-0.611054920009751,0.720507644737729,-0.9769679786304615,1.4785667774457496,-2.0140070023718133
1773062716216530688,1.8295655250549316,-3.803643226623535,-2.0333025455474854,0.5473509430885315,0.5612797737121582,0.8272513747215271,-0.024902192875742912,0.1355738639831543,-0.8625755310058594,0.567428469657898,-0.0971326362710204,-0.3100071140148379,-0.6256552508283922,0.7092364096669102,-0.974197618806773,1.5264585921592952,-1.9314097277348783
1773062716226566656,1.8396015167236328,-2.505077362060547,-1.9574713706970215,0.2793208658695221,0.5642217397689819,0.825560986995697,-0.010143361985683441,0.23703253269195557,-0.7179407477378845,0.07184994220733643,-0.10974584222759418,-0.30250319704034423,-0.6351536307413759,0.7021592016094332,-0.9711956009272832,1.5528206465247405,-1.875075835533059
1773062716236602624,1.849637508392334,-0.9039462804794312,-1.818210482597351,0.4783479571342468,0.5670096278190613,0.8236846923828125,-0.006605993025004864,0.16387110948562622,-0.134368896484375,-0.4521494507789612,-0.11962667371714929,-0.29600836968169947,-0.6395905318672105,0.6992799693497183,-0.9678787235257502,1.559146269876808,-1.844416241132568
1773062716246638592,1.8596735000610352,0.4192419648170471,-1.6636370420455933,0.8131697177886963,0.5722543597221375,0.8199387788772583,-0.015005598776042461,-0.008167505264282227,0.39681220054626465,-0.26145315170288086,-0.1278209763805715,-0.2918687649635271,-0.6382082924133554,0.7008313116330057,-0.9613041164137679,1.544580429642315,-1.8408201061938818
1773062716256675584,1.8697104454040527,0.7899566292762756,-1.4335721731185913,0.9560184478759766,0.5792520046234131,0.8146156668663025,-0.029473308473825455,-0.09173363447189331,0.32059258222579956,-0.10222530364990234,-0.13496174976495878,-0.2896859840169035,-0.6335182528168875,0.7046432561808802,-0.9520662573008166,1.519958501740065,-1.851861251712523
1773062716266711552,1.879746437072754,0.4745056629180908,-1.3446273803710938,1.1056492328643799,0.5870940685272217,0.808390736579895,-0.04272201284766197,-0.1033141016960144,0.05428028106689453,0.12612658739089966,-0.1420180220875649,-0.2885012756947458,-0.6288131740446632,0.7079491394709047,-0.9414131110741548,1.4981557652622115,-1.861727508228975
1773062716276747520,1.889782428741455,0.21835432946681976,-1.4637020826339722,1.31522536277771,0.5962106585502625,0.8010223507881165,-0.053815845400094986,-0.04698580503463745,-0.16320496797561646,0.2669963836669922,-0.15024028808442974,-0.2875860073694888,-0.6248090641081058,0.7101660584239434,-0.929001111306377,1.4807771331110289,-1.8658594842494163
1773062716286783488,1.8998184204101562,-0.12517322599887848,-1.5643599033355713,1.4514926671981812,0.6064395904541016,0.7925938963890076,-0.06345213949680328,0.06000328063964844,-0.3606785535812378,0.22585147619247437,-0.15987227156340875,-0.2865574363490236,-0.6214167414041878,0.7114541567798275,-0.9150513047161754,1.4665450513198786,-1.8645722246859804
1773062716296819456,1.9098544120788574,-0.4835582673549652,-1.5664373636245728,1.5784114599227905,0.6173723340034485,0.7834907174110413,-0.07066471129655838,0.10969364643096924,-0.4557015299797058,0.09730655699968338,-0.17058773681251885,-0.2854362124142999,-0.6190265028226375,0.7114998922230064,-0.9002636101774361,1.4568318397066016,-1.856969841774007
1773062716306855424,1.9198904037475586,-0.7651358842849731,-1.54105544090271,1.690657377243042,0.6289975643157959,0.7737404704093933,-0.07541737705469131,0.0533144474029541,-0.3751961588859558,0.055138468742370605,-0.18216019897740665,-0.2843847979313147,-0.6175893429197702,0.7103001958788355,-0.8847244893261608,1.4514650825571076,-1.8437900627896375
1773062716316892672,1.9299275875091553,-0.9220043420791626,-1.4797803163528442,1.777622938156128,0.6412361860275269,0.7633113265037537,-0.07856125384569168,-0.02551358938217163,-0.27727317810058594,0.03077072650194168,-0.19422882492807983,-0.28359102830662003,-0.6166810378419548,0.7082060182743102,-0.8684233788797818,1.4488885411415358,-1.8273978690903947
1773062716326928640,1.9399635791778564,-1.007646083831787,-1.4234509468078613,1.7960411310195923,0.6537202596664429,0.7524344325065613,-0.08057628571987152,-0.07791459560394287,-0.2730337381362915,0.011331915855407715,-0.20644732719300965,-0.28302724604718493,-0.6161229052008447,0.7054557150464932,-0.8517502849591059,1.4481568393226494,-1.8091983083526402
1773062716336964608,1.9499995708465576,-1.0401177406311035,-1.4263031482696533,1.8029831647872925,0.6660255193710327,0.7413800358772278,-0.08225417882204056,-0.08182752132415771,-0.326157808303833,0.02675795555114746,-0.21864047921487836,-0.28246652673336947,-0.6156992530452832,0.7023698983142745,-0.835124414123079,1.44791848393353,-1.790446499030379
1773062716347000576,1.9600355625152588,-1.168796181678772,-1.5431092977523804,1.9729714393615723,0.6786277294158936,0.7296502590179443,-0.08411109447479248,-0.03653794527053833,-0.3499048352241516,0.09711159020662308,-0.2313628461262982,-0.28180766343232694,-0.6152470193061648,0.6989468258018253,-0.8178103555883937,1.4474823024929064,-1.7708415702473803
1773062716357036544,1.97007155418396,-1.0523039102554321,-1.6754127740859985,2.1156396865844727,0.6921431422233582,0.7164997458457947,-0.08698126673698425,0.02859044075012207,-0.25936174392700195,0.20618289709091187,-0.24511670562018978,-0.281149569770098,-0.614381221720652,0.6952757049077242,-0.7987716659569577,1.4457822062703318,-1.7508226218505076
1773062716367072512,1.9801075458526611,-0.859709620475769,-1.6932435035705566,2.182523488998413,0.7059887647628784,0.7022163271903992,-0.09204388409852982,0.08549988269805908,-0.10658949613571167,0.16900920867919922,-0.25918569857795876,-0.2806938279106383,-0.612526761813946,0.6919860611159415,-0.7785056921570017,1.441151745180296,-1.73341286493076
1773062716377109504,1.9901444911956787,-0.613381028175354,-1.6085827350616455,2.211242914199829,0.7197309136390686,0.6871872544288635,-0.09879906475543976,0.0637010931968689,-0.027534544467926025,0.07296591997146606,-0.27291574177796524,-0.28071782484653296,-0.6097523859246332,0.6891419256638966,-0.7576101637084489,1.4343767195702972,-1.7192293895563668
1773062716387145472,2.00018048286438,-0.67607182264328,-1.5863807201385498,2.2343783378601074,0.7332494258880615,0.6716226935386658,-0.10615236312150955,-0.026889562606811523,-0.014213025569915771,0.07003480195999146,-0.28631565119594315,-0.281138526765781,-0.6065352001215487,0.6863669266289992,-0.7363967883144252,1.4270253876029726,-1.706558857184209
1773062716397181440,2.010216474533081,-0.7217916250228882,-1.5754042863845825,2.3066093921661377,0.7466273307800293,0.6555488109588623,-0.11315290629863739,-0.1046900749206543,-0.07263249158859253,0.07036727666854858,-0.2999402801083553,-0.28153216858689634,-0.6034593480619356,0.6830903054663483,-0.714909112956823,1.4203888215441232,-1.6925897570844066
1773062716407217408,2.0202524662017822,-0.9877603650093079,-1.5666849613189697,2.264357328414917,0.7596674561500549,0.639190673828125,-0.11975295096635818,-0.11155039072036743,-0.1517333984375,0.03380018472671509,-0.3136602466774363,-0.28182885881257286,-0.6005797364875606,0.6793333679071976,-0.6934454539968289,1.414444324885937,-1.6774189189971167
1773062716417253376,2.0302884578704834,-1.3640623092651367,-1.5417360067367554,2.3127949237823486,0.7721962332725525,0.6231496334075928,-0.1240876317024231,-0.07154303789138794,-0.188487708568573,-0.027416899800300598,-0.32779291940154043,-0.2814542876667692,-0.5989488011170114,0.6742371560649164,-0.67276340165201,1.4114640388207145,-1.6573694264049867
1773062716427289600,2.0403244495391846,-1.250306248664856,-1.5987403392791748,2.4152493476867676,0.7848151326179504,0.6063412427902222,-0.12812379002571106,-0.05517023801803589,-0.05342370271682739,0.05683468282222748,-0.34233585054473126,-0.281052813809428,-0.5974507714230759,0.6684819718341575,-0.6514514345297592,1.408970433787754,-1.6358791803810557
1773062716437326336,2.050361394882202,-1.0624263286590576,-1.599015474319458,2.4682765007019043,0.7973587512969971,0.5884414911270142,-0.13399851322174072,-0.029338181018829346,0.040083229541778564,0.11124767363071442,-0.35692185516039376,-0.2809911214915301,-0.5950165798354182,0.6630279212775696,-0.6291298964037625,1.4042991046087505,-1.6167274318442384
1773062716447362560,2.0603976249694824,-1.0918490886688232,-1.5142333507537842,2.508586883544922,0.8096831440925598,0.5698175430297852,-0.14043211936950684,-0.0009520649909973145,0.007925987243652344,0.043203115463256836,-0.37132209492815743,-0.28129608942047507,-0.5921625203451125,0.6575225940508713,-0.606283837790601,1.3990638918132772,-1.5986993220994845
1773062716457398528,2.0704336166381836,-1.343990445137024,-1.453805685043335,2.5455992221832275,0.8217706680297852,0.5508487224578857,-0.145803764462471,0.029044151306152344,-0.005453824996948242,-0.041558921337127686,-0.38573961353231934,-0.2816202437685711,-0.58973566564278,0.6512348868307216,-0.5833807982401913,1.395197388702545,-1.5789843367318441
1773062716467434752,2.0804696083068848,-1.3741047382354736,-1.3540642261505127,2.596740245819092,0.8336778879165649,0.5315331816673279,-0.14984570443630219,0.038407742977142334,0.025427937507629395,-0.043147459626197815,-0.4002196755611224,-0.28192104724439143,-0.5878755559676286,0.6440086379501087,-0.5604095799255905,1.3929547285296624,-1.5571639294812443
1773062716477470720,2.090505599975586,-0.9559065103530884,-1.2721757888793945,2.5594263076782227,0.8452172875404358,0.5115157961845398,-0.15478819608688354,0.04643005132675171,0.0795944333076477,-0.062008678913116455,-0.4140695126203541,-0.28292123498811245,-0.5852875143556701,0.6371346389541921,-0.5369478931804919,1.389669203118249,-1.5381699115574363
1773062716487506688,2.100541591644287,-0.6848092079162598,-1.2029805183410645,2.4554715156555176,0.8558638095855713,0.4914044141769409,-0.1613033562898636,0.052827537059783936,0.0845690667629242,-0.12458531558513641,-0.42681815674313545,-0.284615240547484,-0.5816721481797672,0.6312510689705468,-0.5137015768522043,1.3845129519121309,-1.523665523177466
1773062716497543680,2.1105785369873047,-0.5204524993896484,-1.161946415901184,2.41740083694458,0.865657389163971,0.4713868498802185,-0.16861681640148163,0.04886281490325928,0.0919370949268341,-0.09931223094463348,-0.43877974599113645,-0.2866642501286857,-0.5775077498956811,0.625923871093667,-0.49086262923251495,1.3784204756404448,-1.51170278878503
1773062716507579648,2.120614528656006,-0.5298492312431335,-1.1787240505218506,2.375478982925415,0.8747568726539612,0.4512815475463867,-0.1764800250530243,0.08068740367889404,0.1220216453075409,-0.002887055277824402,-0.4503913181744982,-0.2888211241247592,-0.5730116457949507,0.6207959287280023,-0.46820090810091175,1.3717210368345683,-1.5008257128126437
1773062716517615616,2.130650520324707,-0.8522643446922302,-1.2232383489608765,2.2456283569335938,0.8828598856925964,0.43206489086151123,-0.18406032025814056,0.1542646884918213,0.08890065550804138,0.04174162447452545,-0.4619890438022988,-0.2902014311230203,-0.5689929434605941,0.6153016962441995,-0.44678115171926863,1.365258539230223,-1.488233712772334
1773062716527651584,2.140686511993408,-1.2899088859558105,-1.3075988292694092,2.096522092819214,0.889691948890686,0.4147900342941284,-0.1907811164855957,0.21238934993743896,0.026936650276184082,0.1096959114074707,-0.47384837136715785,-0.28994261381262526,-0.5661649240215161,0.6089813134152118,-0.4277120526741209,1.3595602321297082,-1.471558473995348
1773062716537687552,2.1507225036621094,-1.4123724699020386,-1.305433750152588,1.9738667011260986,0.8954734802246094,0.39918163418769836,-0.19692930579185486,0.24655526876449585,-0.025982201099395752,0.21366824209690094,-0.48573150009442506,-0.28846593896446254,-0.5642009819151398,0.6021042420809857,-0.4106240970034584,1.354325766352906,-1.4521639094269405
1773062716547723520,2.1607584953308105,-1.3822928667068481,-1.3274309635162354,1.8084659576416016,0.90027916431427,0.38493964076042175,-0.20327073335647583,0.27660071849823,-0.10811468958854675,0.18825608491897583,-0.49716345437722714,-0.2864027928506877,-0.562439396384708,0.5953687156569207,-0.395142420402074,1.3487335645522802,-1.4327340041812398
1773062716557760512,2.170795440673828,-1.3934246301651,-1.339619517326355,1.6621254682540894,0.904101550579071,0.3721173107624054,-0.21006949245929718,0.27872925996780396,-0.164719820022583,0.09840565919876099,-0.5080731525749843,-0.2838135915297619,-0.5607272957495106,0.588979209352478,-0.38128910406405203,1.342495595076361,-1.4138187656975907
1773062716567796480,2.1808314323425293,-1.3377196788787842,-1.2746330499649048,1.6048102378845215,0.9072679877281189,0.36027583479881287,-0.21694771945476532,0.24574720859527588,-0.08522087335586548,0.061475932598114014,-0.5185027740699665,-0.28097401005724976,-0.5590883193081346,0.5827768291215292,-0.36856356158246445,1.336081712451029,-1.395324412466599
1773062716577832448,2.1908674240112305,-1.1745707988739014,-1.1506322622299194,1.583850383758545,0.910246729850769,0.34848424792289734,-0.22362887859344482,0.184434175491333,0.06887421011924744,0.045696109533309937,-0.5283264068636061,-0.27860325555728294,-0.5572842955421218,0.5767892327394533,-0.3559534952731087,1.3298882179797555,-1.3782223949219279
1773062716587868416,2.2009034156799316,-1.0354472398757935,-0.9698528051376343,1.5511736869812012,0.9132207632064819,0.33664581179618835,-0.2295592576265335,0.12010443210601807,0.19039276242256165,0.014044106006622314,-0.5373415400547445,-0.2769752248534617,-0.5554323533376727,0.5710023819902641,-0.3433525091926896,1.3245256357029231,-1.3627616942679932
1773062716597904384,2.210939407348633,-1.1117743253707886,-0.7402531504631042,1.5265785455703735,0.9163377285003662,0.32495978474617004,-0.23393647372722626,0.05512833595275879,0.24336904287338257,-0.03382474184036255,-0.5455870269809758,-0.2759463294885591,-0.5539723716846818,0.5650690411040507,-0.3309692194686648,1.320840348397751,-1.3478532372389485
1773062716607940352,2.220975399017334,-1.3181235790252686,-0.5678832530975342,1.4852712154388428,0.9196335077285767,0.31395265460014343,-0.23602530360221863,-0.00833284854888916,0.21668699383735657,-0.04044872522354126,-0.5533033624656245,-0.2749616879145904,-0.5535191190025549,0.5584514486766781,-0.3193533320977202,1.3195672954754318,-1.331477181905035
1773062716617977600,2.2310125827789307,-1.5944644212722778,-0.5005170106887817,1.4599472284317017,0.9229568839073181,0.3037674129009247,-0.23638089001178741,-0.06269687414169312,0.11032557487487793,0.02133876085281372,-0.5608600011043016,-0.27353997007645303,-0.5540626704895707,0.5510231093529656,-0.30864444402537,1.3200729537284526,-1.312787364636198
1773062716628013568,2.241048574447632,-1.9883780479431152,-0.6118056774139404,1.478995442390442,0.9260504841804504,0.29439008235931396,-0.23614656925201416,-0.08413141965866089,0.014630943536758423,0.12750396132469177,-0.5688587194796029,-0.2710507085982058,-0.5553901599275575,0.5426538377126465,-0.29881725985636864,1.321113600717065,-1.2907880769892965
1773062716638049536,2.251084566116333,-2.175837993621826,-0.7338029146194458,1.573371410369873,0.9288795590400696,0.2852047085762024,-0.23630686104297638,-0.07844626903533936,0.06037631630897522,0.2520996928215027,-0.5776997266065523,-0.26742175238412647,-0.5570746610384464,0.5333070335860753,-0.28922001614640674,1.3216808985935249,-1.2654490680605777
1773062716648085504,2.261120557785034,-1.9616258144378662,-0.7683809995651245,1.6636866331100464,0.9316380023956299,0.27501004934310913,-0.23752954602241516,-0.06815826892852783,0.20313939452171326,0.28637292981147766,-0.5869187732687448,-0.2638453917229724,-0.5582300898794971,0.523728206463324,-0.2786001660902852,1.321155779800089,-1.2400922129128826
1773062716658121472,2.2711565494537354,-1.637302279472351,-0.6934817433357239,1.645850658416748,0.9343622922897339,0.2637447416782379,-0.23959514498710632,-0.09454905986785889,0.2738529145717621,0.2049424648284912,-0.5956810504960095,-0.2612545816906225,-0.5585234749890103,0.5147443066370262,-0.2669023640636883,1.3197785151615695,-1.217691172490067
1773062716668157696,2.2811925411224365,-1.5702297687530518,-0.5327483415603638,1.5130616426467896,0.9369816184043884,0.252650648355484,-0.24131570756435394,-0.18185454607009888,0.23457777500152588,0.13285622000694275,-0.6035467037203868,-0.259364481379291,-0.5586342403893989,0.506349032973134,-0.2554188158407093,1.3187284177179042,-1.1976931012343195
1773062716678194432,2.291229486465454,-1.7491196393966675,-0.3617155849933624,1.379922866821289,0.9394986629486084,0.24307604134082794,-0.2413632571697235,-0.2823637127876282,0.15714672207832336,0.14335604012012482,-0.6105645737241785,-0.2572587467522245,-0.5595858355159955,0.49788805148758997,-0.2455357576800708,1.3193281250116875,-1.1773772319587272
1773062716688230400,2.3012654781341553,-2.0003273487091064,-0.30305588245391846,1.2899049520492554,0.9419075846672058,0.23501470685005188,-0.2399548590183258,-0.32282793521881104,0.08722040057182312,0.23371398448944092,-0.6171904594436257,-0.2544276849936121,-0.5615061234168476,0.48893090003511563,-0.23723370091239085,1.3213482054997259,-1.1552016031369727
1773062716698266624,2.3113014698028564,-2.143479824066162,-0.4056887626647949,1.1765028238296509,0.943945050239563,0.22834302484989166,-0.2383846491575241,-0.2550870180130005,0.018010124564170837,0.3251765966415405,-0.623800562000057,-0.2505875835077644,-0.5639268915452516,0.4796511557537339,-0.23037539785166006,1.3234277514644994,-1.1312562994190594
1773062716708302592,2.3213374614715576,-2.1818199157714844,-0.51092529296875,1.0905309915542603,0.9453735947608948,0.22282683849334717,-0.23794320225715637,-0.11907964944839478,-0.019091486930847168,0.33857494592666626,-0.630525817293495,-0.24584238481792212,-0.5662066055418147,0.47054094304253447,-0.22471325849237497,1.3242255933152787,-1.1067636538276433
1773062716718340352,2.3313753604888916,-2.2196145057678223,-0.48871132731437683,1.0675678253173828,0.946541965007782,0.2178853303194046,-0.2378743588924408,-0.019738435745239258,0.012903839349746704,0.3299916982650757,-0.637156792599658,-0.24072538374213068,-0.5684312708932857,0.46148495225358105,-0.21964721652066121,1.3245862000996707,-1.0821347118595372
1773062716728376320,2.3414113521575928,-2.1604392528533936,-0.41776925325393677,1.0598124265670776,0.9477646350860596,0.2129867672920227,-0.23744183778762817,0.01668226718902588,0.11660301685333252,0.28639206290245056,-0.6435369055059037,-0.23565971360236157,-0.5707395055661415,0.4523063562039417,-0.21463085366810197,1.3253205342774008,-1.0575203891211515
1773062716738413312,2.3514482975006104,-2.011118173599243,-0.2515171468257904,1.0149506330490112,0.9491395950317383,0.20808790624141693,-0.23629100620746613,-0.004162788391113281,0.23769760131835938,0.24826914072036743,-0.6493077302572774,-0.2310723527512192,-0.5731143544014909,0.44333389913144877,-0.2096196727701505,1.3268034524599077,-1.0340834251227866
1773062716748449280,2.3614842891693115,-1.8201738595962524,-0.04290108382701874,0.9305601119995117,0.950807511806488,0.2032906711101532,-0.23374776542186737,-0.03804200887680054,0.2924826741218567,0.18583518266677856,-0.6540841931550369,-0.22730602291529403,-0.575723969687697,0.4347962290913127,-0.20471760395306043,1.3297355344675859,-1.0126345230146148
1773062716758485248,2.3715202808380127,-1.6663485765457153,0.12691724300384521,0.8209760785102844,0.9526894688606262,0.19896261394023895,-0.2297750562429428,-0.053443312644958496,0.29668861627578735,0.16979271173477173,-0.6578021346534414,-0.22423486644284077,-0.578646004059034,0.42683001180793917,-0.20029925719584676,1.3341305539441746,-0.9932312617693801
1773062716768521216,2.381556272506714,-1.626973032951355,0.1893656700849533,0.76280277967453,0.9546146392822266,0.1951964646577835,-0.22496481239795685,-0.030740797519683838,0.2776428461074829,0.20554043352603912,-0.6608302618948466,-0.22143311138633193,-0.5817946140171341,0.4192681135116526,-0.1964577578971817,1.3393586839977578,-0.9750126376687928
1773062716778557184,2.391592264175415,-1.6496330499649048,0.13413330912590027,0.763843834400177,0.9564744830131531,0.19149304926395416,-0.22019712626934052,0.03942078351974487,0.23892684280872345,0.2613501250743866,-0.6637315275297797,-0.2186143927172058,-0.5849010026283318,0.41177530215603064,-0.19268311728195,1.344521412424162,-0.9570227319817833
1773062716788593408,2.401628255844116,-1.7726603746414185,0.1039888933300972,0.7344717383384705,0.9581478238105774,0.18800099194049835,-0.21588918566703796,0.12528711557388306,0.19430792331695557,0.28643056750297546,-0.6668143643705619,-0.21534301275813578,-0.5879479506451268,0.4041077322448597,-0.18912645453142504,1.3491780010466663,-0.9382624574439553
1773062716798630144,2.411665201187134,-1.9695290327072144,0.18363578617572784,0.6872693300247192,0.9597734808921814,0.18518413603305817,-0.21104907989501953,0.1834760308265686,0.15728414058685303,0.22464466094970703,-0.6698164174514851,-0.21146705507551225,-0.5914026940717234,0.39606882959511835,-0.1862592351530241,1.3543464892046635,-0.918104976785447
1773062716808666112,2.421701192855835,-2.1712698936462402,0.2994832396507263,0.6318395137786865,0.9614907503128052,0.1831589937210083,-0.20491041243076324,0.16888028383255005,0.1480329930782318,0.16366590559482574,-0.672579459539261,-0.20691088473273844,-0.5955943887894606,0.38741720162963456,-0.18419885566252264,1.3608202777004024,-0.8959715909465666
1773062716818702336,2.431737184524536,-2.1754748821258545,0.40996527671813965,0.5794719457626343,0.96330326795578,0.18175576627254486,-0.19751383364200592,0.11126643419265747,0.17447592318058014,0.1528361439704895,-0.67493435400578,-0.20198847467057993,-0.6003696713891571,0.3784449093240404,-0.1827716680132255,1.3685612076946279,-0.8728251650293186
1773062716828738304,2.4417731761932373,-2.049182415008545,0.4978678524494171,0.5273003578186035,0.9652096033096313,0.18048617243766785,-0.18919605016708374,0.07946813106536865,0.20626306533813477,0.13211287558078766,-0.6766883945182504,-0.1973784823935722,-0.6053459439183645,0.36971721608530306,-0.1814807239844898,1.3772349319160828,-0.8505990124592459
1773062716838774272,2.4518091678619385,-2.0898797512054443,0.47836366295814514,0.47716024518013,0.9670290350914001,0.17947335541248322,-0.18067632615566254,0.0917782187461853,0.2323003113269806,0.14996041357517242,-0.6781153513388777,-0.19279659412262617,-0.6103206627871689,0.36124453826139596,-0.1804510843803366,1.3860894200095837,-0.8289718288615505
1773062716848811264,2.461846351623535,-2.110269546508789,0.34584519267082214,0.48455265164375305,0.9686256647109985,0.17855460941791534,-0.17286600172519684,0.13417279720306396,0.30038827657699585,0.22688215970993042,-0.6797194779381286,-0.18782266918848747,-0.615052551537406,0.35272438080635815,-0.17951725556639128,1.3941903844242702,-0.8069110346019117
1773062716858847488,2.4718823432922363,-1.9427400827407837,0.2348928451538086,0.4608238935470581,0.9699627161026001,0.1774020493030548,-0.16643570363521576,0.1948169469833374,0.3697170913219452,0.26418352127075195,-0.68155500696967,-0.1828404059631671,-0.6191538832362656,0.34452957171684223,-0.17834600437169967,1.4008614294420738,-0.7856186603766298
1773062716868883456,2.4819183349609375,-1.7601770162582397,0.244513139128685,0.3784184753894806,0.9710848927497864,0.17631690204143524,-0.16095483303070068,0.23565644025802612,0.34982138872146606,0.18233245611190796,-0.6832446301496459,-0.17822463062672278,-0.6227026268332795,0.3371263687617951,-0.17724347518248268,1.4065421617348783,-0.7663445451777693
1773062716878919424,2.4919543266296387,-1.6613606214523315,0.3637210428714752,0.23702245950698853,0.9721059799194336,0.17601582407951355,-0.15501099824905396,0.21348661184310913,0.25818827748298645,0.05070197582244873,-0.6843214286085875,-0.1738506697862479,-0.6263149708747248,0.33046895504848506,-0.17693761500623859,1.4126686537786481,-0.7487067515398674
1773062716888955392,2.50199031829834,-1.6622929573059082,0.5008130669593811,0.11008714884519577,0.9730619192123413,0.17685937881469727,-0.14788995683193207,0.13686251640319824,0.17148354649543762,-0.031004086136817932,-0.6846840181179189,-0.16939314118581236,-0.6303657544231169,0.3242727945964597,-0.17779460567768685,1.4199664828749359,-0.7317068147872023
1773062716898991360,2.512026309967041,-1.689296007156372,0.6238082051277161,0.012619715183973312,0.9739824533462524,0.17869390547275543,-0.13937947154045105,0.05641305446624756,0.11905083060264587,-0.018671035766601562,-0.6843846532390715,-0.16474909977953378,-0.634955112940043,0.31828817749395466,-0.17965882519034782,1.428658675865112,-0.7147504643917499
1773062716909028352,2.5220632553100586,-1.7053134441375732,0.6184688806533813,-0.06431474536657333,0.9747803211212158,0.18127602338790894,-0.13016211986541748,0.029873549938201904,0.11393572390079498,0.013417139649391174,-0.6837207537882726,-0.15979982246354307,-0.6398304131285835,0.3124210166946079,-0.18228381973819738,1.4380518669193645,-0.6975597097616489
1773062716919064320,2.5320992469787598,-1.5861114263534546,0.5380065441131592,-0.0810343399643898,0.975379467010498,0.18407677114009857,-0.12145248800516129,0.04000139236450195,0.17267371714115143,0.07160204648971558,-0.6830471750552259,-0.15478792976920877,-0.6444489521958031,0.30687588495494456,-0.18513249769824244,1.4469157504214518,-0.6808888921052072
1773062716929100288,2.542135238647461,-1.3939449787139893,0.466482549905777,-0.10548118501901627,0.9758070707321167,0.18670430779457092,-0.11376311630010605,0.0656510591506958,0.2623770833015442,0.09653598070144653,-0.6824155331968143,-0.15017749335078584,-0.6485099540594025,0.3019778005754447,-0.18780639280057973,1.4547366329343512,-0.6659355937505145
1773062716939136256,2.552171230316162,-1.291800856590271,0.4445636570453644,-0.13977311551570892,0.9760723114013672,0.18941232562065125,-0.10679717361927032,0.07803529500961304,0.31980395317077637,0.04025358706712723,-0.6817481532699519,-0.14585618116473228,-0.65217128570089,0.29768766424336607,-0.19056360673245265,1.4618146149122255,-0.652447508045477
1773062716949172224,2.5622072219848633,-1.1839038133621216,0.38306716084480286,-0.16115935146808624,0.9762206077575684,0.19214501976966858,-0.10036903619766235,0.05759304761886597,0.3273710310459137,0.00634436309337616,-0.6810552001991146,-0.14177255390006935,-0.6555272878803612,0.293851146300799,-0.1933474285996522,1.4683424286980487,-0.6400782734081044
1773062716959208192,2.5722432136535645,-1.235799789428711,0.33727332949638367,-0.19133350253105164,0.976223349571228,0.19507460296154022,-0.09451960027217865,0.022769629955291748,0.2692503333091736,0.04007619619369507,-0.6804526280987818,-0.13760198895217798,-0.6586394254896324,0.2902482426900214,-0.1963335124788525,1.4742754886440086,-0.6280256537773027
1773062716969245184,2.582280158996582,-1.324158787727356,0.32383444905281067,-0.2199653685092926,0.9761157631874084,0.19828152656555176,-0.0887833684682846,-0.004420816898345947,0.18782687187194824,0.0967637300491333,-0.6799393939169288,-0.13301443670043228,-0.6617518228939416,0.2864858250984069,-0.19960432054088287,1.480090135430425,-0.6151599118275141
1773062716979281152,2.592316150665283,-1.292619228363037,0.2698526978492737,-0.22725817561149597,0.9759263396263123,0.2016115039587021,-0.083189457654953,-0.006093025207519531,0.16513346135616302,0.12051243335008621,-0.6794787315847182,-0.12821039876147033,-0.6648062615033594,0.28267181753900206,-0.20300293848028164,1.485760359459793,-0.6019326163503119
1773062716989317120,2.6023521423339844,-1.166275143623352,0.17770159244537354,-0.20497256517410278,0.9756668210029602,0.2047358751296997,-0.07846873998641968,0.01185142993927002,0.1994541436433792,0.14014476537704468,-0.6791992472597495,-0.12359873515930309,-0.6674496103921717,0.2791463190413089,-0.20619385152686434,1.4905433072172074,-0.5895181544469383
1773062716999353344,2.6123883724212646,-1.116057276725769,0.09666719287633896,-0.19249139726161957,0.9753614664077759,0.2075350135564804,-0.0748286247253418,0.04639756679534912,0.2682340443134308,0.1034998893737793,-0.6791718806207382,-0.11926001295079869,-0.6695989371560253,0.27593465651626853,-0.20905443081648487,1.494227449764253,-0.5780882534415626
1773062717009389312,2.622424364089966,-1.0099725723266602,0.08799204975366592,-0.20628678798675537,0.9750139117240906,0.21024742722511292,-0.071719229221344,0.05760926008224487,0.3376956582069397,0.04445178061723709,-0.6792396478554205,-0.11505452543813233,-0.6714929939189136,0.27293406501270834,-0.21182804414744488,1.4973714273551502,-0.5672343161677276
1773062717019425280,2.632460355758667,-0.7443021535873413,0.16699525713920593,-0.252597838640213,0.9746344685554504,0.21305786073207855,-0.06851322203874588,0.01894158124923706,0.35981810092926025,0.01950199156999588,-0.678970455465517,-0.11149378952729531,-0.6732848768532725,0.270657967351575,-0.21470361145429345,1.5006154518093588,-0.5584083211688787
1773062717029462272,2.6424973011016846,-0.6815679669380188,0.21023230254650116,-0.2977674901485443,0.9741553068161011,0.21626755595207214,-0.06518910825252533,-0.032535552978515625,0.30546092987060547,0.00650382786989212,-0.6783554766988318,-0.10839711396735169,-0.675022601713976,0.2691251447227117,-0.217989927509063,1.5039773542720953,-0.5513806036782478
1773062717039498240,2.6525332927703857,-0.5062273144721985,0.16691918671131134,-0.3041039705276489,0.9736193418502808,0.2196080982685089,-0.061948779970407486,-0.06138789653778076,0.2575800120830536,0.04359245300292969,-0.6775944142404717,-0.10561170064122366,-0.6766622343924864,0.26803025308976525,-0.22141274902569955,1.50725467507797,-0.5454746786135545
1773062717049534208,2.662569284439087,-0.48402512073516846,0.0919068232178688,-0.3223028779029846,0.9730048179626465,0.22294273972511292,-0.059649575501680374,-0.03106456995010376,0.2629428505897522,0.05569756403565407,-0.6770080275177548,-0.10306703998596566,-0.67790294143628,0.26736657409209647,-0.2248321575426132,1.5095684531569158,-0.540671754648869
1773062717059570432,2.672605276107788,-0.4588339924812317,0.054438814520835876,-0.3421176075935364,0.9723009467124939,0.22645550966262817,-0.057869378477334976,0.015400469303131104,0.2588045001029968,0.05249828100204468,-0.6765579735069857,-0.10042763059295087,-0.6789547866339434,0.2668408440630243,-0.22843710585745433,1.5113484869387679,-0.5360052877611526
1773062717069606400,2.6826412677764893,-0.5285558104515076,0.041759371757507324,-0.36019423604011536,0.9715260863304138,0.23013609647750854,-0.05634136125445366,0.029984474182128906,0.24503785371780396,0.048986613750457764,-0.6761777481441881,-0.09767195822054828,-0.6799187516185737,0.266372490516549,-0.23221752715188063,1.5128685727910323,-0.5312918047836303
1773062717079643136,2.692678213119507,-0.6543664932250977,0.06130430847406387,-0.3835054337978363,0.9706866145133972,0.23410135507583618,-0.05444483458995819,0.010392487049102783,0.2385091334581375,0.052720606327056885,-0.6757997591487107,-0.09442019888550982,-0.6810744513993073,0.265550745428251,-0.23629414134018017,1.5147660402062917,-0.5252938950475177
1773062717089679360,2.702714204788208,-0.45488759875297546,0.11738202720880508,-0.438281774520874,0.9697678685188293,0.23837652802467346,-0.05222071334719658,-0.025889694690704346,0.2669793367385864,0.02335113286972046,-0.6752237413413139,-0.0911925536978695,-0.6823295114286696,0.2649213301454149,-0.2406938468502399,1.5169996127215202,-0.5195878517713467
1773062717099715328,2.712750196456909,-0.35038435459136963,0.1130400076508522,-0.5070014595985413,0.9686811566352844,0.24319516122341156,-0.05013212189078331,-0.06668823957443237,0.261962354183197,-0.002342827618122101,-0.6743532193042844,-0.08843031470383654,-0.6834574001994875,0.26516773173653413,-0.24565855640096168,1.5190894895381535,-0.5159034458339077
1773062717109751296,2.7227861881256104,-0.32914865016937256,0.061109136790037155,-0.4602150022983551,0.9675119519233704,0.2481442242860794,-0.0484272837638855,-0.09576207399368286,0.2703647017478943,0.019878089427947998,-0.6735549684821819,-0.0856726800550058,-0.6844315523605714,0.265588819185026,-0.25076408352440416,1.5207846426780454,-0.5125364656821328
1773062717119787264,2.7328221797943115,-0.09913196414709091,0.05742625147104263,-0.4008171856403351,0.966477632522583,0.252353698015213,-0.04731657728552818,-0.09097397327423096,0.36381152272224426,0.061858169734478,-0.6728927233779138,-0.08353728249795705,-0.685100893299478,0.2662213445104924,-0.2551119147308548,1.5218776285793756,-0.5104290813436245
1773062717129823232,2.7428581714630127,-0.0047828927636146545,0.06744090467691422,-0.47780466079711914,0.9653939008712769,0.25658321380615234,-0.04668593406677246,-0.05348294973373413,0.36591431498527527,-0.0014555417001247406,-0.6721239413360209,-0.08202295724667487,-0.6855138711873411,0.26756744976223706,-0.2594853962535044,1.522474506940913,-0.510354037678964
1773062717139860480,2.7528953552246094,-0.13256508111953735,0.07068010419607162,-0.5342082977294922,0.9640964865684509,0.26157283782958984,-0.04580022394657135,-0.05328410863876343,0.25235843658447266,-0.027762413024902344,-0.671196737163256,-0.08016457381653141,-0.6860565059251154,0.2690632939841078,-0.26465142582589396,1.5233261640821285,-0.5100034724053534
1773062717149896448,2.7629313468933105,-0.31590503454208374,-0.020635927096009254,-0.5253646373748779,0.9626984000205994,0.26682522892951965,-0.04489903524518013,-0.07541513442993164,0.19496670365333557,0.035652223974466324,-0.670465124283912,-0.07759388665682052,-0.6866801817555994,0.27004800773871857,-0.27009733114637385,1.524191364475459,-0.507863097885374
1773062717159932416,2.7729673385620117,-0.2676514685153961,-0.09984739124774933,-0.5166131854057312,0.9612639546394348,0.27198565006256104,-0.044670943170785904,-0.07520127296447754,0.20172345638275146,0.1092766523361206,-0.6700997156804015,-0.07466286802499573,-0.6870880476271027,0.27074317348182103,-0.2754558847370183,1.524358688392458,-0.5048589945795245
1773062717169968384,2.783003330230713,0.025770822539925575,-0.12861086428165436,-0.502099871635437,0.9597997665405273,0.27698320150375366,-0.04543868824839592,-0.07056337594985962,0.23598676919937134,0.11683458089828491,-0.6698452833396134,-0.07231878132514107,-0.6870594226111041,0.2720783603292901,-0.28065305658400447,1.5234898078029318,-0.5038077371498368
1773062717180004352,2.793039321899414,0.27123013138771057,-0.1069798693060875,-0.4330717921257019,0.9584093689918518,0.28149259090423584,-0.04704676941037178,-0.1004076600074768,0.29686129093170166,0.07187283039093018,-0.6695593552443483,-0.07102720480746717,-0.6866088781717834,0.27425108046257474,-0.28534924843962556,1.5217473127731933,-0.5056510685684124
1773062717190040320,2.8030753135681152,0.5046717524528503,-0.055252160876989365,-0.3240847587585449,0.9572848081588745,0.28497907519340515,-0.04891439154744148,-0.1511325240135193,0.36605238914489746,0.013803962618112564,-0.6691696682256105,-0.0708971424604029,-0.6859419798803861,0.2768918558525304,-0.28898458331677657,1.5197437181105096,-0.5098847167619072
1773062717200077312,2.813112258911133,0.6222479343414307,-0.052683275192976,-0.20469950139522552,0.9564934968948364,0.2872397303581238,-0.05111950635910034,-0.19895583391189575,0.37801289558410645,-0.05993401259183884,-0.6687863902869562,-0.07184585952045225,-0.6850389915297739,0.27979340678054465,-0.2913438685827201,1.517402428525931,-0.516079584771783
1773062717210113280,2.823148250579834,0.4944222569465637,-0.010039708577096462,-0.12252017855644226,0.9560050368309021,0.2884982228279114,-0.05313084274530411,-0.24761593341827393,0.29083216190338135,-0.08560208976268768,-0.6684682532404433,-0.07317793112276728,-0.6841634081062063,0.2823393153892166,-0.2926579840466538,1.5152775379364045,-0.5222255381516409
1773062717220149248,2.833184242248535,0.14320698380470276,0.05901206284761429,-0.03779570013284683,0.955773115158081,0.2891381084918976,-0.053821589797735214,-0.28159409761428833,0.19538941979408264,-0.0905875563621521,-0.6681436326138438,-0.07399959856356746,-0.6838225387588579,0.2837160333717664,-0.2933263745399481,1.5145436370200918,-0.5256356199659403
1773062717230185216,2.8432202339172363,-0.08812697976827621,0.046909429132938385,0.06000005826354027,0.955836832523346,0.2890286445617676,-0.053275905549526215,-0.3026233911514282,0.17024561762809753,-0.04473131522536278,-0.667945804185476,-0.07416532275013847,-0.6840040584391658,0.28370114109452244,-0.29321200775664646,1.5151164917811446,-0.5257622203403
1773062717240221184,2.8532562255859375,-0.06952933222055435,-0.025648396462202072,0.14219532907009125,0.9561360478401184,0.2881048321723938,-0.05290888622403145,-0.2926534414291382,0.2024957239627838,0.05309200659394264,-0.6680922409338294,-0.07421014335662546,-0.6841333284725023,0.2830320190368721,-0.2922471641102974,1.5155165544660771,-0.5247119037617064
1773062717250258176,2.863293170928955,0.18335744738578796,-0.03239581361413002,0.19159390032291412,0.9566044807434082,0.28645870089530945,-0.053378988057374954,-0.2626194953918457,0.23317933082580566,0.10087954998016357,-0.6684324612593704,-0.07490190152319029,-0.6838861101774261,0.2826438735719107,-0.2905286009446814,1.5150536563087853,-0.525116948524314
1773062717260294144,2.8733291625976562,0.40440621972084045,-0.0037548483815044165,0.21446539461612701,0.9571644067764282,0.28438499569892883,-0.054419007152318954,-0.2347676157951355,0.23078221082687378,0.056646768003702164,-0.668665546712917,-0.07656416169322015,-0.68332161232932,0.2830121407351637,-0.2883648703448029,1.514003069390882,-0.5281355002472511
1773062717270330112,2.8833651542663574,0.5359101891517639,0.04188627377152443,0.2513900399208069,0.9578315615653992,0.28190872073173523,-0.05555285885930061,-0.21144795417785645,0.21319323778152466,-0.02107679843902588,-0.668722854701129,-0.07899896346413515,-0.6826292800050835,0.283877019566038,-0.2857829229917345,1.5128626608418152,-0.5330161306822315
1773062717280366080,2.8934011459350586,0.43632766604423523,0.010387469083070755,0.271891325712204,0.9585801362991333,0.2791248857975006,-0.056686703115701675,-0.1882554292678833,0.1900523602962494,-0.07417267560958862,-0.6687907821519693,-0.0816186165313934,-0.6819054555276235,0.28471427540607575,-0.28288264539762675,1.5117290050749954,-0.5381062267384137
1773062717290402304,2.903437376022339,0.1404668390750885,-0.02569696679711342,0.2959081530570984,0.9593545794487,0.2762628197669983,-0.05759851634502411,-0.18199563026428223,0.16412106156349182,-0.0474124513566494,-0.6691052491858861,-0.08354050877860848,-0.6813381865039834,0.2847760556534822,-0.2799034077319576,1.5108294903626207,-0.5409732872560844
1773062717300438528,2.91347336769104,-0.04569850116968155,-0.04771065711975098,0.32965147495269775,0.960195004940033,0.2732347548007965,-0.058035776019096375,-0.188237726688385,0.1573072075843811,0.040030427277088165,-0.6696629553922592,-0.08466030189197933,-0.6810394589482373,0.2838473448038904,-0.27675414152693284,1.510428109971602,-0.5410988771137137
1773062717310475264,2.9235103130340576,0.05585062876343727,-0.09463934600353241,0.33795350790023804,0.9610636830329895,0.2700244188308716,-0.05867994204163551,-0.17148244380950928,0.15091976523399353,0.08394850045442581,-0.670379166179238,-0.08566803148278163,-0.6806768816101643,0.28272191294986787,-0.27341838633784543,1.5098147414061283,-0.5407856044826194
1773062717320511232,2.933546304702759,0.2806435227394104,-0.10855143517255783,0.3228645622730255,0.9618862867355347,0.26674893498420715,-0.06016376614570618,-0.14174169301986694,0.12283843755722046,0.08946061134338379,-0.6711404400503052,-0.08719856695263196,-0.6799371485684299,0.2822274894080383,-0.2700181609073154,1.5083300106790365,-0.5423010945590667
1773062717330547456,2.94358229637146,0.47076472640037537,-0.0806533545255661,0.28592538833618164,0.9626367092132568,0.2635807693004608,-0.06209270656108856,-0.09461009502410889,0.10964915156364441,0.004094071686267853,-0.6717266498687006,-0.089380459708814,-0.6789438709624083,0.28254120305930974,-0.26673236076821066,1.5063828192037116,-0.546047882859988
1773062717340583424,2.953618288040161,0.5919671058654785,-0.060523856431245804,0.22355148196220398,0.9632728695869446,0.2607532739639282,-0.06413505971431732,-0.05458146333694458,0.13072624802589417,-0.060605525970458984,-0.6720749231667239,-0.09196221220189024,-0.6778461647036327,0.283518799233322,-0.2638023814980057,1.5043140842482332,-0.5514089323694303
1773062717350619392,2.9636542797088623,0.6202799081802368,-0.07861138135194778,0.12081364542245865,0.9636821150779724,0.2586667835712433,-0.06639338284730911,-0.03500181436538696,0.14186108112335205,-0.05831669270992279,-0.6722729305599396,-0.0945145574326558,-0.676661146200656,0.2850362689632112,-0.26164175461008327,1.5020094994721485,-0.5576128803733297
1773062717360655360,2.9736902713775635,0.6511110663414001,-0.09021690487861633,0.010020557790994644,0.9637936949729919,0.2576030194759369,-0.06886479258537292,-0.029940545558929443,0.12409558892250061,-0.03286558389663696,-0.6723589762900466,-0.09673971499336215,-0.6754324783755046,0.28699438204175365,-0.2605406799816698,1.4994657560348845,-0.5640969329825359
1773062717370692352,2.983727216720581,0.7284729480743408,-0.038567155599594116,-0.11022844910621643,0.9636187553405762,0.2575976848602295,-0.0712907537817955,-0.04139280319213867,0.07457089424133301,-0.004438579082489014,-0.6721716347362907,-0.09880767490690073,-0.6742341319920577,0.2895352584833831,-0.260535145843484,1.4969485347403202,-0.5712950876220094
1773062717380728320,2.9937632083892822,0.6815941333770752,0.010331409052014351,-0.20592674612998962,0.9631898999214172,0.25864848494529724,-0.07325334846973419,-0.04894435405731201,0.004290908575057983,-0.044300369918346405,-0.671617414756079,-0.1006480393972774,-0.6732334648001332,0.2925006493588633,-0.2616228298720883,1.494889587183202,-0.5788133531446281
1773062717390764288,3.0037992000579834,0.540812611579895,0.015574142336845398,-0.2486383020877838,0.9625949859619141,0.2604416310787201,-0.07470615953207016,-0.05869483947753906,-0.03892979025840759,-0.07006919384002686,-0.6709102737190682,-0.10195421567268931,-0.6724970326152827,0.29535140518003056,-0.26347958578688463,1.4933424547016176,-0.5853648465389544
1773062717400800256,3.0138351917266846,0.3292042016983032,0.014284372329711914,-0.2656566798686981,0.9619237184524536,0.26262253522872925,-0.07570921629667282,-0.061228036880493164,-0.03732657432556152,-0.05882757157087326,-0.670246144452183,-0.10257587734752997,-0.6720294489096286,0.29769878396177823,-0.26573913153313766,1.4922521921542877,-0.5901234327804065
1773062717410836224,3.0238711833953857,0.046409256756305695,-0.030524376779794693,-0.2680036723613739,0.9612069725990295,0.2650737166404724,-0.07626804709434509,-0.05449932813644409,-0.024000167846679688,-0.08178245276212692,-0.6697664969534621,-0.10229565468877912,-0.6718642529517497,0.2992435674981048,-0.2682803632450747,1.4916160904630447,-0.5923048730828432
1773062717420873472,3.0339083671569824,-0.14116036891937256,-0.057499270886182785,-0.2629508376121521,0.9604554772377014,0.2677028775215149,-0.07655332237482071,-0.05650961399078369,0.012097537517547607,-0.0724639892578125,-0.6695477945846925,-0.10112701215396158,-0.6719350164256018,0.2999706864411686,-0.2710081019625606,1.4912592474648763,-0.591920136227975
1773062717430909440,3.0439443588256836,-0.16654455661773682,-0.04517921805381775,-0.24592533707618713,0.9597140550613403,0.2703228294849396,-0.07664463669061661,-0.07952612638473511,0.07887455821037292,-0.06454497575759888,-0.669426432306257,-0.09962206994107625,-0.6721258255097228,0.30031736695107564,-0.273728321861965,1.491103515444943,-0.5904379961217954
1773062717440945408,3.0539803504943848,-0.08087919652462006,0.026671268045902252,-0.21799995005130768,0.9590674638748169,0.2726786434650421,-0.076392263174057,-0.10770344734191895,0.1293598711490631,-0.07601248472929001,-0.6691706700543695,-0.09838509681811057,-0.6724018440908869,0.3006769651884538,-0.27617609194237835,1.4913114899643745,-0.5892987480124071
1773062717450981376,3.064016342163086,-0.009003136307001114,0.0802488774061203,-0.18866869807243347,0.9585421681404114,0.2747044265270233,-0.07572551816701889,-0.11302220821380615,0.14500382542610168,-0.09778213500976562,-0.6686843281465531,-0.09763316235862585,-0.672759247873349,0.30120429161250684,-0.27828227655071835,1.491959347872291,-0.5890382012936253
1773062717461017344,3.074052333831787,-0.010710489004850388,0.039775751531124115,-0.06219864636659622,0.9582253098487854,0.275987833738327,-0.075065016746521,-0.09482210874557495,0.1374795138835907,-0.08623563498258591,-0.6682591488203311,-0.0972673257687475,-0.6730576183860163,0.3015992892186175,-0.2796173057689242,1.4926184418483641,-0.5890905368735849
1773062717471053312,3.0840883255004883,-0.03247024863958359,-0.10885400325059891,0.06543867290019989,0.958213210105896,0.2759664058685303,-0.07529863715171814,-0.05744117498397827,0.12652990221977234,-0.0020633861422538757,-0.6683750161825854,-0.0971701782674314,-0.6729848708468703,0.3015362334866869,-0.2795950092552464,1.4923751393245117,-0.5888869233727659
1773062717481090304,3.094125270843506,-0.08190038055181503,-0.2582176625728607,0.11447492241859436,0.9583263993263245,0.2751205265522003,-0.07693476229906082,-0.0038129687309265137,0.12240138649940491,0.05831903964281082,-0.6691793066035953,-0.09699314052279172,-0.6724023717183139,0.3011085008959138,-0.27871507358997577,1.4906877991379628,-0.5881699142701975
1773062717491126272,3.104161262512207,0.07246742397546768,-0.29799380898475647,0.15032680332660675,0.9584622383117676,0.2738817036151886,-0.07961679995059967,0.034915387630462646,0.1343976855278015,0.042858369648456573,-0.6703466092582158,-0.09693350507500054,-0.6714130600782781,0.3007387038244963,-0.2774267432516427,1.487919376579305,-0.5878437193836265
1773062717501162240,3.114197254180908,0.38502931594848633,-0.23074552416801453,0.21372762322425842,0.9587393403053284,0.2719534635543823,-0.08282765746116638,0.04657083749771118,0.14651885628700256,-0.018795855343341827,-0.6714221006208517,-0.09788577237910602,-0.6700780161926083,0.30100884552518714,-0.27542243864239657,1.4846180457884492,-0.5899977202758748
1773062717511198208,3.1242332458496094,0.6498653888702393,-0.10755252093076706,0.259003609418869,0.9592320322990417,0.2692447304725647,-0.08591467887163162,0.04897719621658325,0.1263241469860077,-0.0848463773727417,-0.6720949182187481,-0.10018882199054227,-0.6685842211999169,0.3020692928963103,-0.2726087148020188,1.4814685780699006,-0.5952478027615805
1773062717521234176,3.1342692375183105,0.6567166447639465,-0.00033152149990200996,0.2954966425895691,0.9599194526672363,0.26603856682777405,-0.08819563686847687,0.05002939701080322,0.11266937851905823,-0.11656201630830765,-0.6723373083546316,-0.10327750559210655,-0.6672600239610316,0.3034148590912509,-0.26928116133283814,1.4791753987154581,-0.6019193666328845
1773062717531271168,3.144306182861328,0.5301051735877991,0.03022369183599949,0.3343295454978943,0.9607684016227722,0.2624884843826294,-0.08957686275243759,0.06919986009597778,0.1187523603439331,-0.1018446683883667,-0.6724334925692184,-0.10636460606972269,-0.666256812565173,0.3043381543571145,-0.26560022153386,1.477830477082689,-0.6077848652228403
1773062717541307136,3.1543421745300293,0.3520456552505493,-0.020044539123773575,0.3732290267944336,0.9616978764533997,0.25868839025497437,-0.09065253287553787,0.11276519298553467,0.11506041884422302,-0.048309214413166046,-0.6727034696079822,-0.10905098298125687,-0.6654183782709805,0.3046251533130463,-0.2616641383139171,1.476811033602106,-0.6120302525495954
1773062717551343104,3.1643781661987305,0.2280646711587906,-0.10307627171278,0.3920007050037384,0.9626256227493286,0.25473660230636597,-0.09198535233736038,0.1740778684616089,0.08181127905845642,-0.031351447105407715,-0.6733388302513467,-0.1111894493097029,-0.6645631870909129,0.3043148834966158,-0.2575752974602492,1.4755288611169428,-0.6145872370549094
1773062717561379072,3.1744141578674316,0.2511571943759918,-0.15025551617145538,0.3800327181816101,0.9634737372398376,0.25081977248191833,-0.09385007619857788,0.21928077936172485,0.07130852341651917,-0.03806215524673462,-0.6742425895676297,-0.11302611077006497,-0.6635510996679286,0.303845337386478,-0.25352701323463595,1.4736946403759332,-0.6165347083333504
1773062717571415296,3.184450149536133,0.49955594539642334,-0.05338495224714279,0.3443344235420227,0.9642812013626099,0.24693667888641357,-0.09583466500043869,0.2337321639060974,0.08298887312412262,-0.06076627969741821,-0.6749527856234564,-0.11532394994319764,-0.6624070147137383,0.30390161843044805,-0.2495177630515293,1.4717370526536204,-0.6199744107796784
1773062717581451520,3.194486379623413,0.7151889204978943,0.07657624781131744,0.3093854784965515,0.9650964736938477,0.24318952858448029,-0.0972001701593399,0.23947817087173462,0.07240800559520721,-0.09805124998092651,-0.6750335884293702,-0.11852229853200313,-0.6613262286289175,0.30484394698510564,-0.2456527503898511,1.470419311690886,-0.6260067762988976
1773062717591488256,3.2045233249664307,0.656311571598053,0.0851062461733818,0.3349796533584595,0.9659497141838074,0.23944737017154694,-0.09801160544157028,0.2732013463973999,0.05584073066711426,-0.06899583339691162,-0.6747864870018209,-0.12209063070927696,-0.6603696504946535,0.3060540356799629,-0.2417966307911789,1.4696758335696851,-0.6329169709398245
1773062717601524480,3.214559316635132,0.45604822039604187,-0.1447562426328659,0.40192005038261414,0.9668158888816833,0.23531126976013184,-0.09947681427001953,0.36251455545425415,0.08434508740901947,0.04384326934814453,-0.6750660533572345,-0.12515741772586236,-0.659239875256529,0.3066336982769354,-0.23753882270045118,1.4682659590939975,-0.6381890651525908
1773062717611560448,3.224595308303833,0.3562014102935791,-0.34976258873939514,0.36930957436561584,0.9674572944641113,0.2311200201511383,-0.1030031219124794,0.48482829332351685,0.10854057967662811,0.11824668943881989,-0.6762886462019727,-0.12740313279759546,-0.6574700601453639,0.3068144268130968,-0.23322870864378917,1.4647280239830764,-0.6419122448584096
1773062717621596416,3.234631299972534,0.175360769033432,-0.29884400963783264,0.32935789227485657,0.967893123626709,0.22750498354434967,-0.10688576847314835,0.5361657738685608,0.06720328330993652,0.10358989238739014,-0.6777498719244018,-0.1289326106343519,-0.6556931426601127,0.3067540883383542,-0.22951470751522438,1.46081059866471,-0.6442964275145434
1773062717631632384,3.2446672916412354,-0.021227646619081497,-0.1275498867034912,0.3453681170940399,0.9684165120124817,0.2241854965686798,-0.10913433879613876,0.47486650943756104,0.016857579350471497,0.05743759870529175,-0.6789142047825101,-0.1299602036996879,-0.6546320927297385,0.30601093603874646,-0.22610718463255702,1.4585761972882214,-0.6447005216236141
1773062717641669376,3.254704236984253,-0.1768803596496582,-0.049840185791254044,0.3728998601436615,0.969127893447876,0.2208142876625061,-0.10969171673059464,0.4057042598724365,0.025676175951957703,0.04748160392045975,-0.6797996803112331,-0.13065502762217227,-0.6542808316434995,0.3044967591628371,-0.22264929415884416,1.4580899819920539,-0.6432117897682749
1773062717651705344,3.264740228652954,-0.24672888219356537,-0.09371932595968246,0.3560936748981476,0.9698484539985657,0.21753843128681183,-0.1098691001534462,0.4198001027107239,0.05992743372917175,-0.038095369935035706,-0.6807125492143034,-0.13099948751004417,-0.6541441622208073,0.30259723038647024,-0.21929179539648788,1.4579924288381603,-0.6405811681865786
1773062717661741312,3.2747762203216553,-0.25253990292549133,-0.18062706291675568,0.3451094627380371,0.9704464077949524,0.21445433795452118,-0.11064933985471725,0.4495212435722351,0.09799990057945251,-0.11139655113220215,-0.6818515895825737,-0.13105779489772254,-0.6538342167629874,0.30067122116956646,-0.21613313089951736,1.4572675898905274,-0.6375837498716485
1773062717671777280,3.2848122119903564,-0.19033271074295044,-0.280144065618515,0.31364473700523376,0.9708844423294067,0.21152494847774506,-0.11243190616369247,0.4338245987892151,0.12494666874408722,-0.09931434690952301,-0.6832545296709003,-0.13100476913527698,-0.6531629192553716,0.29896381361277247,-0.21313495223414933,1.4555062694922893,-0.6348935109862474
1773062717681813248,3.2948482036590576,-0.16379298269748688,-0.331743061542511,0.25643444061279297,0.9711183309555054,0.2089986652135849,-0.11510328203439713,0.37586653232574463,0.1113290935754776,-0.09156179428100586,-0.6848015714765355,-0.13087177184530466,-0.6521663417750222,0.29765493483705996,-0.21055090456872902,1.452820208008561,-0.6328319196900614
1773062717691849216,3.304884195327759,-0.22861705720424652,-0.33551907539367676,0.12207864969968796,0.9710985422134399,0.2074466049671173,-0.11804132163524628,0.2755141258239746,0.034481555223464966,-0.12168951332569122,-0.6863217916982682,-0.1302918747770712,-0.6511554079044471,0.29661959863943405,-0.20896405875560725,1.44983532503253,-0.6306387548826798
1773062717701886464,3.3149213790893555,-0.3653413653373718,-0.3257790803909302,-0.029059998691082,0.9707629680633545,0.2075081318616867,-0.12066449970006943,0.15986764430999756,-0.057865142822265625,-0.13952840864658356,-0.6876401610120799,-0.12888543786773193,-0.6504277785651689,0.29577591215321525,-0.209026954260528,1.44713197756079,-0.6276174401387477
1773062717711922432,3.3249573707580566,-0.4558468163013458,-0.3224879801273346,-0.15902185440063477,0.9701017141342163,0.20919789373874664,-0.12304113805294037,0.04769015312194824,-0.13577254116535187,-0.1063595563173294,-0.6888259558566785,-0.12653398273633817,-0.6499758328324581,0.29502456170123864,-0.21075462518587196,1.4446367128444344,-0.6234601368367872
1773062717721958400,3.334993362426758,-0.49083274602890015,-0.2950177490711212,-0.2674277126789093,0.9691999554634094,0.2121075540781021,-0.12514831125736237,-0.03844422101974487,-0.17794308066368103,-0.028584018349647522,-0.6898160944600686,-0.12363751902448206,-0.6497227160041747,0.29449629242740877,-0.2137310891563052,1.4423815033465774,-0.6189220082361347
1773062717731994368,3.345029354095459,-0.4097517430782318,-0.2552659213542938,-0.3594678044319153,0.9681283831596375,0.2159421592950821,-0.12687188386917114,-0.08620089292526245,-0.1692197322845459,0.018626034259796143,-0.6905176909612137,-0.1205308173022564,-0.6496432690632878,0.2943149683284621,-0.2176566462173877,1.4404902675650073,-0.614645931574233
1773062717742030336,3.35506534576416,-0.18551598489284515,-0.2353244572877884,-0.4034895896911621,0.9669364094734192,0.22020287811756134,-0.12862707674503326,-0.09890955686569214,-0.10444964468479156,0.03605203330516815,-0.6909197679099833,-0.11781583910493647,-0.6494658493946033,0.294861893477525,-0.2220224464763041,1.438547384743816,-0.6121035666054663
1773062717752067328,3.3651022911071777,0.05128556862473488,-0.2334624081850052,-0.4153127372264862,0.9656907916069031,0.22436508536338806,-0.13077256083488464,-0.08701348304748535,-0.03552231192588806,0.040135324001312256,-0.6911099974613595,-0.11585641899877094,-0.6489923053181113,0.29623166144196206,-0.22629145541446039,1.4361964563975496,-0.6119730437825672
1773062717762103296,3.375138282775879,0.2524935007095337,-0.2188965231180191,-0.4124402403831482,0.9644322395324707,0.22824153304100037,-0.13332800567150116,-0.0710759162902832,0.007399946451187134,0.020794451236724854,-0.6911282467478996,-0.11469137652896245,-0.6482143833645664,0.2983383635227851,-0.23027116226418,1.4334219894664417,-0.6141701517329514
