time,seconds_elapsed,rotationRateX,rotationRateY,rotationRateZ,gravityX,gravityY,gravityZ,accelerationX,accelerationY,accelerationZ,quaternionW,quaternionX,quaternionY,quaternionZ,pitch,roll,yaw
1773063223967660544,0.031024456024169922,0.08254900574684143,0.026849640533328056,-0.009124408476054668,0.022923104465007782,0.3609596788883209,-0.9322996735572815,-0.03860914707183838,0.006334632635116577,-0.013394296169281006,0.9802019038160283,-0.18223672273199565,0.02529710780887465,-0.0731725236314759,-0.36929673732470036,0.024582747096418063,-0.14443284638025955
1773063223977698304,0.041062355041503906,0.048033639788627625,-0.007043345365673304,-0.043188370764255524,0.02286708913743496,0.36039358377456665,-0.9325199723243713,-0.01729762740433216,0.001834779977798462,0.04603016376495361,0.9802468069681083,-0.1819375793924357,0.025272844102655973,-0.07332229048574962,-0.3686898016293605,0.024516908510840738,-0.14474988414358614
1773063223987735552,0.051099538803100586,0.07906150817871094,-0.016863752156496048,-0.04044105112552643,0.02259199135005474,0.3598160147666931,-0.9327497482299805,0.0022950898855924606,-0.009077519178390503,0.06170177459716797,0.9802887480468518,-0.18163863560770496,0.025150438301289733,-0.07354545545355855,-0.3680707014384615,0.024216115126493385,-0.14526015756122987
1773063223997773312,0.06113743782043457,0.11062982678413391,-0.04846828430891037,-0.0028859535232186317,0.022186079993844032,0.358904093503952,-0.9331107139587402,0.00131244957447052,-0.005220651626586914,0.03915935754776001,0.9803737169334966,-0.18117241051282149,0.024923710533799093,-0.07363986108519774,-0.367093497031245,0.023771990910846093,-0.14553343362759577
1773063224007810304,0.07117438316345215,0.09003599733114243,-0.04545079171657562,0.012440139427781105,0.021774454042315483,0.35794275999069214,-0.9334896206855774,0.007751302793622017,1.3172626495361328e-05,0.026522457599639893,0.9804741065355275,-0.18068432125898343,0.024665168986716147,-0.07358874440439814,-0.36606373720237234,0.023321637734990682,-0.14551046819975783
1773063224017848576,0.08121252059936523,0.06778661906719208,-0.07852192223072052,0.020203253254294395,0.02127472497522831,0.3572067618370056,-0.9337829947471619,0.016460265964269638,-0.005278050899505615,0.040274083614349365,0.980558015010669,-0.18031960240732378,0.024358492898414727,-0.07346707271356377,-0.3652756339604006,0.022779429508830912,-0.1453605681206162
1773063224027885312,0.09124946594238281,0.08305132389068604,-0.09865834563970566,0.03215418756008148,0.020523520186543465,0.35649925470352173,-0.9340701699256897,0.003936324268579483,-0.00808003544807434,0.0518985390663147,0.9806468635721651,-0.1799812564408334,0.023909552712821986,-0.07325800297993587,-0.36451825265151216,0.021968605757567934,-0.1450814256522065
1773063224037923328,0.1012873649597168,0.07972530275583267,-0.1113179475069046,0.03195951133966446,0.01967107504606247,0.35572925209999084,-0.9343820214271545,-0.004290219396352768,-0.007737308740615845,0.04976898431777954,0.9807444743481846,-0.1796145566429225,0.023400890523776093,-0.07301611340318861,-0.36369424315887855,0.02104938743851594,-0.14475451333620507
1773063224047960576,0.11132454872131348,0.07603944838047028,-0.14137078821659088,0.05102201923727989,0.018611641600728035,0.35497602820396423,-0.9346901178359985,-0.009105423465371132,-0.004145950078964233,0.053174614906311035,0.9808458935899651,-0.17926567800278467,0.022776181145396906,-0.07270830008894275,-0.36288844136596343,0.019909467728565187,-0.14433292366581124
1773063224057998336,0.12136244773864746,0.07010432332754135,-0.13911722600460052,0.05882508307695389,0.017497781664133072,0.35428616404533386,-0.9349733591079712,0.0017282944172620773,0.005424529314041138,0.05870687961578369,0.9809471909814195,-0.17895374250835103,0.022110909944208397,-0.0723133494506638,-0.3621506141035159,0.018712553599331033,-0.1437435485523186
1773063224068035328,0.13139939308166504,0.11316005140542984,-0.12265502661466599,0.06486339867115021,0.016496624797582626,0.3534259796142578,-0.9353170394897461,0.00292782299220562,-0.0052204132080078125,0.054701805114746094,0.9810641354277683,-0.17854814184770929,0.021495408923833302,-0.07191372576454502,-0.36123092693498843,0.017635640916989534,-0.1431213264823608
1773063224078073600,0.14143753051757812,0.16789840161800385,-0.13715487718582153,0.09705249220132828,0.015584324486553669,0.3521091043949127,-0.935829222202301,-0.030080163851380348,-0.02184787392616272,0.053047239780426025,0.9812306998832309,-0.17790167981379598,0.020890024595431423,-0.07142018740306401,-0.35982358176812124,0.016651418797216412,-0.14228779988403453
1773063224088110336,0.1514744758605957,0.20673918724060059,-0.16114623844623566,0.13435591757297516,0.01459266897290945,0.3503170311450958,-0.9365174770355225,-0.036031268537044525,-0.025716811418533325,0.05478835105895996,0.9814558642693885,-0.17701286520424014,0.02019145772437706,-0.0707332214514067,-0.35790957502968623,0.01558058225860346,-0.14107218552450418
1773063224098148352,0.1615123748779297,0.2632485330104828,-0.15181691944599152,0.2237616926431656,0.013717069290578365,0.3480934798717499,-0.9373594522476196,-0.021834753453731537,-0.016001224517822266,0.0697905421257019,0.9817398528533885,-0.17589935771479256,0.019485402035893218,-0.06976183125942151,-0.3555366400044022,0.014632689210827752,-0.139251279893255
1773063224108185600,0.17154955863952637,0.31868451833724976,-0.1729421764612198,0.35447418689727783,0.013222631998360157,0.3452754616737366,-0.9384082555770874,-0.01937193050980568,0.0021366477012634277,0.0906146764755249,0.9821148260553856,-0.1744720083512591,0.018851906189304008,-0.06822538872062206,-0.35253226857938214,0.014089557510428813,-0.1362032401438291
1773063224118223360,0.18158745765686035,0.2889825403690338,-0.1997266411781311,0.43425849080085754,0.012822225689888,0.3422897458076477,-0.9395069479942322,-0.006749231368303299,0.015559375286102295,0.10831493139266968,0.9825380259427556,-0.17296395747675206,0.018165627086253765,-0.06612537544140577,-0.34935277321782154,0.013646976607175032,-0.13199010717913082
1773063224128260352,0.19162440299987793,0.20723776519298553,-0.2722664773464203,0.4925940930843353,0.012215804308652878,0.3398881256580353,-0.9403865337371826,-0.0037929536774754524,0.0031904876232147217,0.12799334526062012,0.9829238266884449,-0.17177317487465057,0.017340947238198616,-0.06367075608396403,-0.34679792753156063,0.012989464524660136,-0.12709779840506516
1773063224138298624,0.20166254043579102,0.09762471914291382,-0.3904610276222229,0.5497276782989502,0.010804334655404091,0.33837494254112244,-0.9409493207931519,-0.02209584228694439,-0.033595889806747437,0.15976041555404663,0.9832476037591057,-0.17107568404424872,0.01607598656316086,-0.060818157635820574,-0.34518942730500607,0.01148187194592616,-0.12154968250974524
1773063224148335360,0.2116994857788086,-0.06774115562438965,-0.44808757305145264,0.641638994216919,0.009001231752336025,0.338202565908432,-0.9410302639007568,0.0013289693742990494,-0.06116399168968201,0.16812682151794434,0.9834666912605278,-0.1710912204286589,0.014582625082537971,-0.057518497598166594,-0.34500626628587505,0.009565003205148134,-0.11517124333219121
1773063224158373376,0.22173738479614258,-0.10949739068746567,-0.5967170000076294,0.6560387015342712,0.006274067331105471,0.33905279636383057,-0.9407464265823364,0.033154647797346115,-0.08160650730133057,0.16932308673858643,0.9836020426093567,-0.17166342086968875,0.012588087606889932,-0.05385326057041877,-0.345909879013954,0.0066691452070533445,-0.10822779816427341
1773063224168410624,0.23177456855773926,-0.021604735404253006,-0.6759609580039978,0.6628691554069519,0.0022887031082063913,0.33972135186195374,-0.9405233263969421,0.02619946002960205,-0.09707611799240112,0.14885163307189941,0.9837447331631956,-0.17216206034834577,0.009927486010348027,-0.05007932930095525,-0.34662062612385225,0.0024334309537219143,-0.10129983710713371
1773063224178448384,0.24181246757507324,-0.2736167311668396,-0.8773415088653564,1.2119354009628296,-0.001673681428655982,0.3403496742248535,-0.9402974247932434,-0.019642839208245277,-0.1026177704334259,0.10318499803543091,0.9839224713483227,-0.17262994257322595,0.007083958332839798,-0.045223362578543064,-0.34728875454537345,-0.001779947014513647,-0.09217220569718135
1773063224188485376,0.2518494129180908,-0.5800515413284302,-1.0223779678344727,1.6503058671951294,-0.007377686910331249,0.34548452496528625,-0.9383954405784607,0.013969479128718376,-0.051935940980911255,0.06235784292221069,0.9837983709268029,-0.17548380677963313,0.0027764548667667953,-0.03658636792318253,-0.35275505601017665,-0.007861861104017622,-0.07574474553328116
1773063224198523648,0.2618875503540039,-0.12470728158950806,-0.7187101244926453,1.049936294555664,-0.010146819986402988,0.3487759232521057,-0.9371511936187744,0.24456758797168732,0.05152314901351929,0.2507803440093994,0.9837272715407063,-0.17726922135857653,0.00011585605354135634,-0.029262727806870014,-0.35626468611206713,-0.010826880164999185,-0.06142533961972235
1773063224208560384,0.2719244956970215,0.1624557375907898,-0.7926982045173645,0.6145926713943481,-0.014445043168962002,0.34865179657936096,-0.9371410012245178,-0.13470961153507233,0.013713926076889038,0.12288624048233032,0.9838527686799989,-0.17725974159660748,-0.0029126797697650794,-0.024579036602801592,-0.35613225098485857,-0.015412728309339716,-0.0527283891571444
1773063224218598400,0.28196239471435547,0.3559942841529846,-0.6878024339675903,0.2784101665019989,-0.02005414105951786,0.34631699323654175,-0.9379031658172607,-0.373820960521698,0.039165765047073364,0.07227212190628052,0.9841147229737861,-0.1760925541385437,-0.006310791781954383,-0.021673417252505392,-0.3536422944535559,-0.021378630851207416,-0.047859634745457326
1773063224228635648,0.29199957847595215,0.6643443703651428,-0.5304130911827087,-0.00022252602502703667,-0.025187812745571136,0.3415405750274658,-0.9395294785499573,-0.34131303429603577,0.07307124137878418,0.12910467386245728,0.9845530936235023,-0.17364055460175903,-0.009177403288628332,-0.020492133717811233,-0.34855553720822235,-0.026802544998637986,-0.04634050460464167
1773063224238673408,0.30203747749328613,0.8375422954559326,-0.5463305711746216,0.038099028170108795,-0.030251285061240196,0.334315687417984,-0.9419755339622498,-0.30045244097709656,0.03693065047264099,0.10052961111068726,0.9851841501706666,-0.16991331871262014,-0.011903799636760094,-0.019999655081781215,-0.3408790304215562,-0.03210369123504071,-0.04612107657050581
1773063224248710400,0.3120744228363037,0.8806813955307007,-0.6441513895988464,0.23427307605743408,-0.035367801785469055,0.32620614767074585,-0.9446367621421814,-0.13311974704265594,0.022289305925369263,0.13669919967651367,0.9858834853702357,-0.16571988645637598,-0.014782565982263064,-0.018766683739024938,-0.3322874031654152,-0.03742315437847501,-0.04434238043872295
1773063224258746368,0.3221104145050049,0.9158585667610168,-0.7062472701072693,0.336789071559906,-0.04088274762034416,0.3177952170372009,-0.9472776055335999,-0.004130687564611435,0.005965769290924072,0.18868690729141235,0.9865902650106281,-0.1613616865914843,-0.017989298666253168,-0.016691118988506785,-0.3234032469187027,-0.043131384186016336,-0.04086965305318567
1773063224268783360,0.33214735984802246,0.9361702799797058,-0.7762837409973145,0.39928770065307617,-0.0467446930706501,0.3091231882572174,-0.9498724937438965,0.006720885634422302,-0.030360400676727295,0.19413518905639648,0.987286804598079,-0.15685955211626487,-0.021420180716717627,-0.014181376868705837,-0.31427093506379755,-0.04917187455017983,-0.036518409545670136
1773063224278821376,0.34218549728393555,0.9535077214241028,-0.8491446375846863,0.43934378027915955,-0.053223609924316406,0.3003283739089966,-0.9523497819900513,-0.025984764099121094,-0.04794800281524658,0.21191704273223877,0.9879504916050663,-0.1522850132646418,-0.025186933357975675,-0.011349525707666222,-0.3050369167587789,-0.05582854614014015,-0.03155859540881945
1773063224288858368,0.3522224426269531,0.9986065030097961,-0.8721263408660889,0.444655179977417,-0.0601859875023365,0.2912392318248749,-0.9547551274299622,-0.0743507593870163,-0.051752567291259766,0.22707873582839966,0.9885886745351539,-0.14754775917445898,-0.029190623019383955,-0.008373381600828643,-0.295521976674999,-0.06295483629274432,-0.026313260281063604
1773063224298896384,0.3622603416442871,1.0683701038360596,-0.8990685939788818,0.4323757588863373,-0.0674171894788742,0.28161877393722534,-0.9571550488471985,-0.1140708476305008,-0.05113476514816284,0.236833393573761,0.9892160931624152,-0.1425256770806539,-0.03330024428839206,-0.005384683974136444,-0.28548073770663474,-0.07031883683046435,-0.020996809080447203
1773063224308933376,0.3722972869873047,1.1702486276626587,-0.9444481730461121,0.4166531264781952,-0.07513924688100815,0.27114975452423096,-0.9595998525619507,-0.12751272320747375,-0.059174686670303345,0.23700469732284546,0.9898454339082088,-0.13705799457733478,-0.037618770151038164,-0.0024285727249614268,-0.2745873201805152,-0.07814323858423675,-0.0157088493644905
1773063224318971392,0.3823354244232178,1.2491791248321533,-0.9785782098770142,0.40238842368125916,-0.08332085609436035,0.25979626178741455,-0.9620621204376221,-0.11980414390563965,-0.07444775104522705,0.24460911750793457,0.9904700026219734,-0.13112748449805878,-0.042125035701941115,0.0004816308468260792,-0.2628112096051259,-0.0863909586844956,-0.01045250483915781
1773063224329009408,0.39237332344055176,1.3096237182617188,-1.0250178575515747,0.4311380386352539,-0.09194280952215195,0.24779734015464783,-0.9644392132759094,-0.10249993950128555,-0.08417733013629913,0.2686079144477844,0.9910638985710811,-0.12485258518759977,-0.046821202106526384,0.003455256464478569,-0.250406021543415,-0.0950456823784699,-0.004998655138472211
1773063224339046144,0.40241026878356934,1.4101097583770752,-1.1012822389602661,0.500159740447998,-0.10112615674734116,0.2350826859474182,-0.9667003750801086,-0.07715754210948944,-0.08261686563491821,0.28220635652542114,0.9916172743860666,-0.11818267036610788,-0.05179442634841843,0.0067452358983266375,-0.23730363746517089,-0.10423051448059316,0.0011677023139138201
1773063224349083392,0.412447452545166,1.5481020212173462,-1.1829026937484741,0.5608779191970825,-0.11099385470151901,0.22129122912883759,-0.9688707590103149,-0.05784466117620468,-0.07608860731124878,0.29003775119781494,0.992132141557362,-0.1109211474544282,-0.057106176550872745,0.010457394060906589,-0.223138333185813,-0.11406276758979417,0.008287219414526958
1773063224359121408,0.4224853515625,1.7158482074737549,-1.2626168727874756,0.601926863193512,-0.1216365322470665,0.20607365667819977,-0.9709470868110657,-0.058630794286727905,-0.06746281683444977,0.3061521649360657,0.9926042314405049,-0.10288716808813886,-0.06277498294884933,0.014505655000270833,-0.20756079206243327,-0.12462691300637721,0.01622828163311865
1773063224369158144,0.4325222969055176,1.8934141397476196,-1.3382251262664795,0.6602651476860046,-0.1330581158399582,0.18929250538349152,-0.9728637337684631,-0.06527560949325562,-0.052451714873313904,0.3276611566543579,0.9930133493371368,-0.09400452336287858,-0.06878424465168656,0.018877973378066376,-0.19044157744793694,-0.13592617419222564,0.02501491145581491
1773063224379196416,0.44256043434143066,2.1473188400268555,-1.4490448236465454,0.7655614614486694,-0.1453610509634018,0.17059007287025452,-0.9745610356330872,-0.0686892420053482,-0.03542771935462952,0.33212023973464966,0.993335704119891,-0.08406890828643415,-0.07517916709558443,0.023761741582361072,-0.17142848831518467,-0.14806384603531322,0.03508771810916745
1773063224389233408,0.45259737968444824,2.47863507270813,-1.5672953128814697,0.9074277877807617,-0.15880168974399567,0.14926691353321075,-0.9759618043899536,-0.07134662568569183,-0.016759589314460754,0.3213750123977661,0.9935363750885633,-0.07268776174611442,-0.08207068306662471,0.029432236801083738,-0.14982684360009646,-0.16129943889784487,0.047097781660614825
1773063224399271168,0.4626352787017822,2.8571717739105225,-1.659698486328125,1.0353225469589233,-0.1732824295759201,0.12474308162927628,-0.9769403338432312,-0.0927087813615799,0.011685758829116821,0.3161889910697937,0.9935671897950454,-0.05953971390793458,-0.08935809726927642,0.03597697392060427,-0.12506888469949,-0.1755468212776449,0.06136792157461262
1773063224409309440,0.4726734161376953,3.2843470573425293,-1.7304649353027344,1.1182249784469604,-0.18872426450252533,0.09659986197948456,-0.9772674441337585,-0.14141488075256348,0.03828783333301544,0.31085509061813354,0.9933604971452782,-0.04440495893236018,-0.09692516945243805,0.04322713490363553,-0.0967507307723903,-0.1907659699393475,0.07771361825558955
1773063224419346432,0.4827103614807129,3.756957530975342,-1.7879927158355713,1.1723686456680298,-0.20506446063518524,0.06432058662176132,-0.9766327142715454,-0.19907982647418976,0.05492684990167618,0.3023620843887329,0.9928297577758556,-0.027011784883364746,-0.10466142797037092,0.05104258568684839,-0.06436502079226519,-0.20696433406316464,0.09604518465084665
1773063224429384192,0.4927482604980469,4.229005813598633,-1.8094147443771362,1.2110722064971924,-0.2221817970275879,0.027753449976444244,-0.9746101498603821,-0.2508711814880371,0.060549162328243256,0.29928672313690186,0.9918605868575011,-0.007267288733276553,-0.11243709250485288,0.05930950007378386,-0.027757014131230044,-0.2241394499668468,0.11632616600211113
1773063224439421440,0.5027854442596436,4.69959831237793,-1.815116047859192,1.2324739694595337,-0.23975320160388947,-0.01300838217139244,-0.9707466959953308,-0.29924824833869934,0.06137874722480774,0.3022134304046631,0.9903307514048187,0.014804389187512045,-0.1200311398282773,0.06795778778597793,0.013008749183363946,-0.24213253173199628,0.13861046471162802
1773063224449459200,0.5128233432769775,5.198549270629883,-1.8921881914138794,1.256069540977478,-0.2581605315208435,-0.057935673743486404,-0.9643633365631104,-0.3463926911354065,0.0568523034453392,0.30532097816467285,0.9880587470725172,0.03925428342988861,-0.1275830975250313,0.0769514203598443,0.05796813471351223,-0.2615673370131256,0.16307595770188746
1773063224459496192,0.5228602886199951,5.671472549438477,-1.932652235031128,1.2730666399002075,-0.27769735455513,-0.10693251341581345,-0.9546986818313599,-0.3812076151371002,0.04839981347322464,0.33616846799850464,0.9848356637921805,0.06613640639926985,-0.13519107159739407,0.08630181654874991,0.10713735681700605,-0.28306375256849936,0.19009452000538218
1773063224469533440,0.5328974723815918,6.087790489196777,-1.9567104578018188,1.2533901929855347,-0.297901451587677,-0.1592962145805359,-0.9412117004394531,-0.408488929271698,0.04856318235397339,0.3887977600097656,0.9805184910465656,0.09517252285207099,-0.1426055657973479,0.09586098212450607,0.15997772673973487,-0.30653251509177015,0.21967635947345024
1773063224479571456,0.5429353713989258,6.345761299133301,-1.921189785003662,1.1991695165634155,-0.3184525668621063,-0.2138463407754898,-0.9235029816627502,-0.4387037754058838,0.04284109175205231,0.46366405487060547,0.9750111353581115,0.12584378077209937,-0.14970592946791197,0.10537936329402499,0.21551070181992044,-0.3320626385645909,0.2515749466386926
1773063224489609216,0.5529732704162598,6.528100967407227,-1.8840677738189697,1.152855634689331,-0.3386147916316986,-0.26893261075019836,-0.9016736149787903,-0.4745261073112488,0.020321190357208252,0.5430462956428528,0.968339450745206,0.1573646869299094,-0.15620358235487455,0.11469726723172195,0.27228465324773193,-0.35924428351412113,0.28553482811667963
1773063224499646464,0.5630104541778564,6.7835493087768555,-1.9555504322052002,1.1488009691238403,-0.3591681718826294,-0.32424497604370117,-0.8751362562179565,-0.5044792890548706,-0.023975849151611328,0.559782862663269,0.9603221340395839,0.18978791664650146,-0.1625189917792338,0.12389355882841081,0.330213458425827,-0.3894516039506985,0.322308595429405
1773063224509684224,0.5730483531951904,7.035455703735352,-2.045424699783325,1.186155080795288,-0.38055309653282166,-0.3795602321624756,-0.8432754278182983,-0.49757495522499084,-0.0633719265460968,0.5285323858261108,0.9507383486380538,0.22326606714360966,-0.16886255824260393,0.13317042431331477,0.38932090555640675,-0.4239176396566764,0.36313227041909524
1773063224519721216,0.583085298538208,7.144658088684082,-2.1683897972106934,1.1934512853622437,-0.4028056263923645,-0.433701753616333,-0.8060089945793152,-0.4689137041568756,-0.06809881329536438,0.4933563470840454,0.9395300069524789,0.25739059020192623,-0.1753442344411595,0.14243585951877946,0.448596970444847,-0.4634502279281432,0.408475669505538
1773063224529759488,0.5931234359741211,7.0925612449646,-2.3893327713012695,1.078466773033142,-0.4260486960411072,-0.48507845401763916,-0.7636631727218628,-0.4430308938026428,-0.06440579891204834,0.5300816297531128,0.926831128494448,0.29140483478730017,-0.18235027449012647,0.1510490871975798,0.5064528868421029,-0.5088892203644703,0.45751279051302696
1773063224539796480,0.6031603813171387,7.0077972412109375,-2.497570753097534,0.8944777846336365,-0.44930538535118103,-0.5331695079803467,-0.7168367505073547,-0.42976871132850647,-0.10899662971496582,0.6564119458198547,0.9128694941091924,0.3249464520354677,-0.1897140532853275,0.1583907715992351,0.5623425735038785,-0.5598847376125515,0.5092849738631662
1773063224549834240,0.6131982803344727,6.9140729904174805,-2.524909257888794,0.8119843602180481,-0.4715081751346588,-0.5776556730270386,-0.6663286685943604,-0.4161261320114136,-0.20504385232925415,0.7376482486724854,0.8978026053731165,0.357829756589698,-0.19696073351109766,0.16466551823615136,0.6158538243853958,-0.6158224426977197,0.5643932268191233
1773063224559871488,0.6232354640960693,6.7514967918396,-2.4655203819274902,0.9576733708381653,-0.4927377998828888,-0.617398738861084,-0.6132113933563232,-0.3890676200389862,-0.335054874420166,0.7505710124969482,0.8817307252639054,0.3896053818331447,-0.20396558743192653,0.17075271075084134,0.6654316118776773,-0.6768937087991768,0.6246568225399994
1773063224569909248,0.6332733631134033,6.3700666427612305,-2.6260650157928467,1.225340723991394,-0.5145615339279175,-0.6505811810493469,-0.5585432648658752,-0.3437148332595825,-0.4693986773490906,0.7096815705299377,0.8647840629496765,0.4195084173625192,-0.2115208142944591,0.17725729358351733,0.7083494546936803,-0.7444355727172325,0.6910904115315273
1773063224579946240,0.6433103084564209,5.778805255889893,-2.686837673187256,1.539301872253418,-0.5379389524459839,-0.6756897568702698,-0.5040487051010132,-0.3026829957962036,-0.5610503554344177,0.6517080068588257,0.8474414313868329,0.4465313391892994,-0.22042097154244214,0.18403098025093928,0.7418999397783734,-0.817911282023167,0.7616807275249365
1773063224589984512,0.653348445892334,5.209969520568848,-2.9788177013397217,1.7388924360275269,-0.5627779364585876,-0.6929036974906921,-0.4507388174533844,-0.26217323541641235,-0.6374948620796204,0.6139163374900818,0.8300702190368321,0.4704226416728108,-0.2309396574888466,0.1906643765216464,0.7655084817858884,-0.8954960515838866,0.8335773500798002
1773063224600021248,0.6633853912353516,4.809693336486816,-3.031846046447754,1.8087096214294434,-0.588153064250946,-0.7039129734039307,-0.39822399616241455,-0.24467158317565918,-0.6826989054679871,0.5498048663139343,0.8126711258167025,0.49185224526377774,-0.24283608811701238,0.19666611398339587,0.7808915804690187,-0.9756222349949232,0.9048673389578137
1773063224610059264,0.6734232902526855,4.614766597747803,-3.220050096511841,1.8668866157531738,-0.6128156185150146,-0.7104125618934631,-0.3460794687271118,-0.23775506019592285,-0.6858886480331421,0.4461924135684967,0.795107487429035,0.5116365516044584,-0.2553200104754664,0.20209843611158929,0.7900842322838988,-1.056709389773099,0.9752976173745566
1773063224620096512,0.6834604740142822,4.56072473526001,-3.356440782546997,1.91304349899292,-0.6369585990905762,-0.7132247090339661,-0.29256466031074524,-0.23006099462509155,-0.6409469842910767,0.306084007024765,0.7768232012284952,0.5306253975653492,-0.26861561748443974,0.2069491349761977,0.7940880744428486,-1.140223067962777,1.045961906609779
1773063224630134272,0.6934983730316162,4.3871636390686035,-3.386988639831543,1.8629149198532104,-0.6594881415367126,-0.7128621339797974,-0.23854310810565948,-0.19349336624145508,-0.5524881482124329,0.21864566206932068,0.7580245705420587,0.548832015029479,-0.28197847857955805,0.2113533057832008,0.7935709547902291,-1.223728225034507,1.1157492228719406
1773063224640171264,0.7035353183746338,4.128445148468018,-3.5172119140625,1.6758861541748047,-0.6795220375061035,-0.7099604606628418,-0.1849481463432312,-0.1868566870689392,-0.4928135275840759,0.2116357833147049,0.7392228662012285,0.5659299456529524,-0.2953797912125413,0.2145310299575552,0.7894420499143698,-1.3050594370600022,1.1813259059876544
1773063224650209536,0.7135734558105469,3.9869043827056885,-3.4289467334747314,1.4474411010742188,-0.6961472034454346,-0.705655038356781,-0.1320229172706604,-0.17102497816085815,-0.518710196018219,0.2852059006690979,0.7205631193873375,0.5822047027361839,-0.3082632436740656,0.21633369076037806,0.7833471691189109,-1.3833741613874517,1.2424781063886812
1773063224660246272,0.7236104011535645,3.7225875854492188,-3.4458396434783936,1.3736451864242554,-0.7096778750419617,-0.6999030709266663,-0.08057897537946701,-0.16069871187210083,-0.6309990286827087,0.2654849886894226,0.70219014885151,0.5975285138226856,-0.32042189228733575,0.21729816146070885,0.7752618128312563,-1.4577374974988484,1.299383003613377
1773063224670284288,0.7336483001708984,3.20231032371521,-3.4709155559539795,1.3695173263549805,-0.7212271690368652,-0.6919834017753601,-0.031464532017707825,-0.1370033621788025,-0.7760645747184753,0.21421903371810913,0.6844825153630972,0.611138423375647,-0.3328326337253103,0.21729195916682836,0.7642328971859808,-1.527197592231333,1.3493124797166267
1773063224680321536,0.7436854839324951,2.6425912380218506,-3.551285982131958,1.3243240118026733,-0.730836808681488,-0.682400643825531,0.014384855516254902,-0.10926634073257446,-0.9342222213745117,0.23004567623138428,0.6679589889770955,0.6226026360997007,-0.3457721580726314,0.21595923593794028,0.7510418124676833,-1.590476504303377,1.3899781175224377
1773063224690359296,0.7537233829498291,1.9409559965133667,-3.289335250854492,1.2829755544662476,-0.7384898066520691,-0.6719881892204285,0.055360447615385056,-0.09682208299636841,-1.0788815021514893,0.23808133602142334,0.6532537629109039,0.6316073756785451,-0.35882077151523784,0.2134931985511182,0.7368902484985399,-1.6456207758194668,1.4203628988604673
1773063224700396288,0.7637603282928467,1.587755560874939,-3.1757988929748535,1.3285651206970215,-0.7448140382766724,-0.6610806584358215,0.09068939834833145,-0.11657518148422241,-1.1556003093719482,0.11643338948488235,0.6405336135762413,0.6382164585317227,-0.37151642081562947,0.21064682168726914,0.7222581538645344,-1.6919610160208303,1.441671424890175
1773063224710434560,0.7737984657287598,2.157118082046509,-3.4334287643432617,1.3918863534927368,-0.7502009272575378,-0.6487807035446167,0.1276019960641861,-0.16074877977371216,-1.1138077974319458,-0.3402484655380249,0.6269068298673852,0.6449208444573415,-0.3845492222617218,0.20781454202588936,0.7059810849961766,-1.7392743746255501,1.46312047430832
1773063224720471296,0.7838354110717773,3.1504476070404053,-3.282982587814331,1.059012770652771,-0.7532897591590881,-0.6353152990341187,0.17008554935455322,-0.13152164220809937,-0.8374935388565063,-0.9201313257217407,0.6103783228574796,0.6541474287723367,-0.39640120949252833,0.2059018672610025,0.6884167666160343,-1.792862902180368,1.493813997608668
1773063224730509312,0.7938733100891113,3.969806432723999,-2.8147220611572266,0.39522865414619446,-0.7519574165344238,-0.622755765914917,0.21618418395519257,-0.15970957279205322,-0.5008710026741028,-1.268826961517334,0.5914564223711452,0.6667360953887074,-0.40441942032831507,0.20515200147903548,0.6722599330711577,-1.8507417516548466,1.53659908335908
1773063224740546560,0.803910493850708,3.8214833736419678,-1.8219753503799438,-0.1088360846042633,-0.7471820116043091,-0.612438440322876,0.2581444978713989,-0.2336835265159607,-0.3448675274848938,-1.325801968574524,0.573240626485813,0.6804411033138504,-0.4075195151493706,0.20572576936694012,0.6591415244684155,-1.9034483900776311,1.584264318415319
1773063224750584320,0.813948392868042,3.197510242462158,-1.0334463119506836,-0.05867598205804825,-0.7424729466438293,-0.6036893725395203,0.2903329133987427,-0.23924702405929565,-0.5132234692573547,-1.1159707307815552,0.5583281220896603,0.6921611128399573,-0.4075284619506246,0.20761331203497885,0.6481208298480605,-1.9435504535188781,1.6264943268577483
1773063224760621312,0.8239853382110596,2.452958106994629,-0.2434428334236145,0.5246968865394592,-0.7420036792755127,-0.5934601426124573,0.3118267357349396,-0.10850602388381958,-0.9939422607421875,-0.9423656463623047,0.546926161230411,0.7002726552113197,-0.40685571331067527,0.2120342639865385,0.6353511352306147,-1.9686364543301789,1.6587265193903005
1773063224770659328,0.8340234756469727,0.7414638996124268,-0.43598178029060364,1.0595519542694092,-0.7458256483078003,-0.5820196866989136,0.32403233647346497,0.12816524505615234,-1.4008598327636719,-1.0960354804992676,0.539526975512848,0.7034727277269361,-0.40883039209708705,0.21655111448015174,0.6212101774843428,-1.9806533553473384,1.6737067734070594
1773063224780696320,0.8440604209899902,-1.108476996421814,-0.6618232131004333,0.8525036573410034,-0.7497411370277405,-0.5752555131912231,0.3270614743232727,0.43455564975738525,-1.3361823558807373,-0.9449203014373779,0.5380445856652994,0.7014219518201845,-0.4141714387161087,0.2167424074799246,0.6129165166922175,-1.9821424128423382,1.6662253976711976
1773063224790734336,0.8540983200073242,-2.2857227325439453,-0.7038268446922302,0.3537636399269104,-0.7510761618614197,-0.5763702392578125,0.32199734449386597,0.5695422291755676,-1.03143310546875,-0.8115451335906982,0.5420913229943999,0.6961880801645591,-0.4199057439376513,0.21245813076899586,0.614279951100108,-1.9758091062326741,1.6438340977728931
1773063224800771328,0.8641352653503418,-2.781830310821533,-0.5874200463294983,0.09362899512052536,-0.7500066161155701,-0.5831076502799988,0.312211275100708,0.6111515164375305,-0.6786569356918335,-0.9379589557647705,0.5493980172481464,0.68940738208841,-0.42523298596460446,0.20507636683422462,0.6225487280672647,-1.965256225933607,1.613495070197986
1773063224810809344,0.8741734027862549,-2.6277596950531006,-0.23108044266700745,0.20606912672519684,-0.7495468258857727,-0.5904627442359924,0.29922133684158325,0.6669358015060425,-0.33188527822494507,-0.887829065322876,0.5577633674021077,0.6819703324116713,-0.4295662200890933,0.19821555193524737,0.6316320664799712,-1.950615435217943,1.5816331864264503
1773063224820846336,0.8842103481292725,-2.5061450004577637,0.24046525359153748,0.3706306517124176,-0.7513982057571411,-0.5956866145133972,0.28382784128189087,0.6354161500930786,-0.05780154466629028,-1.033766746520996,0.566227800853237,0.6740668686931042,-0.43306786932519803,0.19357727218401946,0.6381202003005895,-1.9319608437260087,1.5504724078766785
1773063224830884352,0.8942484855651855,-2.349829912185669,0.560234546661377,0.2813677489757538,-0.7544408440589905,-0.5998687148094177,0.2664141058921814,0.5314489006996155,0.173553466796875,-0.9442400932312012,0.5748788644753565,0.6660521034884105,-0.43540974531877286,0.19054447755761542,0.6433370051152545,-1.9102549709762588,1.5206129422673837
1773063224840921344,0.9042854309082031,-2.2652907371520996,0.9306725263595581,0.21561641991138458,-0.7578537464141846,-0.6040118336677551,0.24663276970386505,0.3810378313064575,0.28147149085998535,-0.7783253192901611,0.5840060940333058,0.6580846636210712,-0.43616620816076374,0.1887342972674536,0.6485254242054408,-1.8854223809869117,1.4921584571105997
1773063224850959360,0.9143233299255371,-2.1629953384399414,1.121721625328064,0.2700410485267639,-0.7616889476776123,-0.6074708700180054,0.22540898621082306,0.3080146312713623,0.2746766209602356,-0.6753296852111816,0.5932801866082499,0.6500687986526914,-0.43602184539399547,0.18792063960014854,0.6528727664888717,-1.85851787876523,1.4646062731997957
1773063224860996352,0.9243602752685547,-2.0726938247680664,1.3659090995788574,0.3708614110946655,-0.7663260102272034,-0.6095859408378601,0.20285320281982422,0.31483376026153564,0.1926090121269226,-0.5739469528198242,0.6025875752372758,0.6418362243560433,-0.43528480715046275,0.18831250903412128,0.6555381324238353,-1.8295699030030836,1.437735087527207
1773063224871034368,0.9343984127044678,-2.0544686317443848,1.4511191844940186,0.4584864377975464,-0.7716253995895386,-0.6102819442749023,0.1793045997619629,0.3002051115036011,0.08627992868423462,-0.4506058692932129,0.6118737154573168,0.6332875152913968,-0.43428012064209653,0.18962650636431605,0.6564164261952512,-1.7991169447757447,1.411092909397588
1773063224881071360,0.9444353580474854,-1.8841832876205444,1.3752800226211548,0.39033880829811096,-0.7766544222831726,-0.6102623343467712,0.15616635978221893,0.2533695101737976,0.02571338415145874,-0.34020256996154785,0.620804445897384,0.6248520122084569,-0.43317795826951927,0.1910987147045953,0.6563916677232492,-1.7692260323140196,1.3853338064893248
1773063224891109376,0.9544734954833984,-1.5120432376861572,1.665048360824585,0.5186963677406311,-0.7811819911003113,-0.6096980571746826,0.1342501938343048,0.18981236219406128,0.015627622604370117,-0.2722659111022949,0.6289339799717482,0.6172285241889894,-0.43145572927438797,0.19317613684561216,0.6556796309731664,-1.7409890314503176,1.3631286435753205
1773063224901146368,0.964510440826416,-0.7958499789237976,0.8453100323677063,1.34621000289917,-0.7888299226760864,-0.6033740639686584,0.11699128895998001,0.1674463152885437,0.011317908763885498,-0.2824576199054718,0.6342373095153717,0.6103643282329605,-0.43122039778529847,0.19810937065230116,0.6477253823918177,-1.718032960651016,1.347727930427125
1773063224911184384,0.97454833984375,-0.9168190956115723,1.2131911516189575,0.756371021270752,-0.796821653842926,-0.5951315760612488,0.10437411814928055,0.17650598287582397,-0.005011916160583496,-0.3301888704299927,0.6376786276177929,0.6042685454185474,-0.43248882395522587,0.20292625347028395,0.6374293961850545,-1.7010428369931183,1.3354870772907892
1773063224921221376,0.9845852851867676,-1.0786402225494385,1.8072401285171509,-0.7732938528060913,-0.7979452013969421,-0.5965356230735779,0.08619140833616257,-0.3816203474998474,-0.19962233304977417,-0.18667054176330566,0.6441013974646029,0.59950510875154,-0.4285899305268153,0.20503113530314182,0.6391776008296763,-1.67839584909983,1.3226623229064605
1773063224931259392,0.9946234226226807,-1.1468374729156494,1.2756363153457642,-0.8873938918113708,-0.7938753962516785,-0.6044887900352478,0.06599341332912445,-0.6999447345733643,-0.4148135781288147,-0.12573158740997314,0.6519519041884292,0.5960557883020053,-0.4215616250015595,0.20484626360627944,0.6491239505837979,-1.6537338103100583,1.3098646737174644
1773063224941296384,1.0046603679656982,-1.4473145008087158,0.992058277130127,-0.5693475008010864,-0.789874255657196,-0.6111815571784973,0.050556864589452744,-0.397793710231781,-0.5581910610198975,-0.17728114128112793,0.6584872669269203,0.5925778478553106,-0.4172887817189344,0.20277129572513644,0.6575525625090766,-1.6347153553513998,1.295082425440246
1773063224951334144,1.0146982669830322,-1.83919095993042,1.0437506437301636,-0.26304444670677185,-0.7879230976104736,-0.6149324774742126,0.03217640519142151,-0.40304064750671387,-0.6683469414710999,-0.08095872402191162,0.6659044297723041,0.5869041465570007,-0.4142845950004717,0.20120426329480898,0.6623003522973757,-1.6116106348810832,1.274670703003682
1773063224961371392,1.024735450744629,-3.2636165618896484,1.066485047340393,-0.21548916399478912,-0.78659987449646,-0.6174141764640808,0.00778998201712966,-0.3762725591659546,-0.43178027868270874,0.1160808801651001,0.6758540239535412,0.5777724144473596,-0.4124003250164438,0.19830909474236463,0.6654512323626119,-1.5806993631541524,1.2424078464854484
1773063224971409408,1.034773349761963,-3.932877779006958,0.7503052949905396,-0.6193568706512451,-0.7842802405357361,-0.6200281381607056,-0.021665051579475403,-0.20204782485961914,0.06218224763870239,0.3603338599205017,0.6884931201232881,0.5651127737551022,-0.41208618935257446,0.19185835948142066,0.6687785857849489,-1.543179230508906,1.1953772226606987
1773063224981446144,1.0448102951049805,-3.3371074199676514,0.9888454675674438,-1.1254152059555054,-0.7784739136695862,-0.6255154609680176,-0.052046749740839005,-0.0633993148803711,0.4616360068321228,0.3081350326538086,0.701600370339858,0.5531511881296133,-0.40987850446508256,0.18379433515776675,0.675792028022557,-1.5040382679666142,1.1474990103061184
1773063224991484416,1.0548484325408936,-2.2952544689178467,1.0284645557403564,-1.5796782970428467,-0.7690669894218445,-0.634455680847168,-0.07747345417737961,-0.002966761589050293,0.5996655821800232,0.029484562575817108,0.7126632320166618,0.5450054466962526,-0.4052558890593126,0.1756359136583863,0.6873041518326624,-1.4703980861399908,1.109224347278952
1773063225001521408,1.0648853778839111,-1.3306814432144165,0.9006359577178955,-1.659759283065796,-0.7576993107795715,-0.645420253276825,-0.09656406193971634,0.05652731657028198,0.5475045442581177,-0.10108305513858795,0.7209524568576922,0.5410110919006144,-0.3987793456480306,0.16884814519342384,0.701573339839341,-1.4440358818463346,1.08358750476882
1773063225011559168,1.0749232769012451,-1.1974797248840332,0.514868974685669,-1.524244785308838,-0.7465245723724365,-0.6562445163726807,-0.10974661260843277,0.20924735069274902,0.43458008766174316,-0.02373725175857544,0.7269287979927052,0.5392661606581748,-0.392834191313618,0.16262801834344448,0.71583078669692,-1.4248318089033174,1.0651417626558828
1773063225021596416,1.0849604606628418,-1.6655564308166504,0.30932727456092834,-1.5038505792617798,-0.7359201312065125,-0.6659508347511292,-0.12219380587339401,0.3410226106643677,0.3855247497558594,0.3145003318786621,0.7328471544290146,0.5365601700925277,-0.3885952655615883,0.15502293645971355,0.7287676716658193,-1.406255288675334,1.0423237853774854
1773063225031634432,1.0949983596801758,-1.1599985361099243,-0.021521221846342087,-1.0345797538757324,-0.7270733118057251,-0.6733580231666565,-0.1339908093214035,0.4002453088760376,0.4192076325416565,0.5746188759803772,0.7382782911944465,0.5333573722932401,-0.38540175329756815,0.14812379649472449,0.7387414754646773,-1.3885532014366686,1.019610506872094
1773063225041671168,1.1050353050231934,-1.1883740425109863,-0.3324165344238281,-0.7972114682197571,-0.7212727665901184,-0.6784523129463196,-0.13952815532684326,0.5483601689338684,0.5553291440010071,0.39673030376434326,0.7413534839942699,0.5312561283597211,-0.3847113816249294,0.1419828349284535,0.7456538981833397,-1.3797094502661151,1.002770975165973
1773063225051709440,1.1150734424591064,-1.2639102935791016,-0.46416670083999634,-0.8434160947799683,-0.7163232564926147,-0.6824087500572205,-0.14560043811798096,0.46247804164886475,0.5995230078697205,0.36325180530548096,0.7446094393185562,0.5282657098132153,-0.38488326052330835,0.13548848610312667,0.751052886513493,-1.3702673678288257,0.9833087112576354
1773063225061746432,1.125110387802124,-0.9441595077514648,-0.6912405490875244,-0.8882554769515991,-0.7112324237823486,-0.6869444847106934,-0.1491830050945282,0.2835438847541809,0.43964534997940063,0.2552468180656433,0.7470244167046974,0.5261572750805009,-0.38544392557020246,0.12863110357385704,0.7572760959097068,-1.3640408887847317,0.9659633966938762
1773063225071784192,1.135148286819458,-1.1041336059570312,-0.9968355298042297,-0.7830814719200134,-0.7063469290733337,-0.6918157339096069,-0.14988285303115845,0.11581665277481079,0.11858886480331421,-0.03285638988018036,0.7484941461173119,0.5247959808909843,-0.38684332119208825,0.12123475994608483,0.7640006298311909,-1.36170337712889,0.9504011313396321
1773063225081821440,1.1451854705810547,-1.3601453304290771,-1.2330271005630493,-0.16689181327819824,-0.7049540281295776,-0.6931179761886597,-0.1504230499267578,-0.04258930683135986,-0.19511133432388306,0.015947356820106506,0.7498120748450836,0.5216033844544806,-0.3907919923766233,0.11398785886076704,0.7658056382114453,-1.360569148335806,0.9318328106555577
1773063225091859456,1.1552233695983887,-1.17494797706604,-1.0237717628479004,-0.0022767551708966494,-0.7062894701957703,-0.691569983959198,-0.15128253400325775,-0.1393526792526245,-0.3700450658798218,0.04764483869075775,0.750939731495607,0.517531503128747,-0.3956259336415191,0.10830934343553295,0.7636603336912263,-1.3597912741553537,0.9142960502446971
1773063225101896192,1.1652603149414062,-0.9744582772254944,-0.9349694848060608,0.027967967092990875,-0.7077826261520386,-0.6898905038833618,-0.15197058022022247,-0.3115502595901489,-0.4035695791244507,-0.10961085557937622,0.751819115124044,0.5139618243096588,-0.3998224023364251,0.10369870248571067,0.761337807285219,-1.3592938886744093,0.8996691144392152
1773063225111934464,1.1752984523773193,-0.5392550230026245,-0.9035031795501709,-0.2311573326587677,-0.7087164521217346,-0.6891742944717407,-0.15086375176906586,-0.25229740142822266,-0.21002614498138428,-0.12617480754852295,0.7520189986599154,0.5116037129620256,-0.40352170518990055,0.099495424341672,0.7603488983838684,-1.3610579166119434,0.8888354644575577
1773063225121971456,1.185335397720337,-0.14640122652053833,-1.0058990716934204,-0.7724621295928955,-0.7066805362701416,-0.6922620534896851,-0.14620427787303925,-0.17948883771896362,0.023606717586517334,-0.18629996478557587,0.7511174742575148,0.5118898829922339,-0.40603769391249595,0.0944700371357408,0.7646189699993816,-1.3667857923147673,0.8830693321168057
1773063225132009216,1.195373296737671,0.18106728792190552,-1.0557259321212769,-0.998877763748169,-0.7017638683319092,-0.6987459659576416,-0.13885776698589325,-0.17602849006652832,0.1313784122467041,-0.13381677865982056,0.7494023212161715,0.5143041736404287,-0.4075074645829895,0.08845910950802474,0.7736430365538777,-1.3754500204130833,0.8808454402726313
1773063225142046464,1.2054104804992676,0.47861695289611816,-1.136859655380249,-1.1078662872314453,-0.695783793926239,-0.7066006660461426,-0.12884247303009033,-0.09901595115661621,0.17309236526489258,-0.07158170640468597,0.7467486085531136,0.5182096834799449,-0.40870219749641684,0.0823876963842471,0.7846826488519241,-1.38769436974703,0.8827731226363721
1773063225152084224,1.2154483795166016,0.6642085313796997,-1.1723393201828003,-1.0866739749908447,-0.6892389059066772,-0.7150499224662781,-0.1168479174375534,-0.09465086460113525,0.13118761777877808,-0.0665779709815979,0.7433607832676907,0.5230845256163836,-0.4098275475584904,0.07641157711110935,0.7966954939085252,-1.4028612361599504,0.8880057199076599
1773063225162121216,1.2254853248596191,0.8185280561447144,-1.2316817045211792,-1.1179813146591187,-0.6827085614204407,-0.7233818173408508,-0.10309068113565445,-0.15733349323272705,0.044594645500183105,-0.06796032190322876,0.7392852596533099,0.5285811989598574,-0.41116489924066485,0.07072923951681326,0.8086878367019446,-1.4209261129874515,0.8962797779931555
1773063225172159488,1.2355234622955322,1.1985080242156982,-1.279162883758545,-0.8023719787597656,-0.6767937541007996,-0.7310053110122681,-0.08707217872142792,-0.29348212480545044,-0.07174432277679443,-0.11644953489303589,0.734297377785059,0.5348121957298766,-0.41284358737733257,0.06590521055971722,0.8197940324008636,-1.4428452495126969,0.9091420953537336
1773063225182196480,1.2455604076385498,0.8505989909172058,-0.9478260278701782,-0.9459115862846375,-0.6716476082801819,-0.7374062538146973,-0.07156533002853394,-0.3579849600791931,-0.14285802841186523,-0.11504965275526047,0.729350228059733,0.5407030758606121,-0.4145570153989331,0.061894481419431116,0.8292222160289792,-1.4646449354655926,0.9229413598786996
1773063225192234240,1.2555983066558838,0.3269830346107483,-0.6834871768951416,-1.3317222595214844,-0.6636088490486145,-0.7455201148986816,-0.06183158606290817,-0.4532429575920105,-0.18003225326538086,0.03335869312286377,0.7264301834967563,0.5454685056469417,-0.4141839149437544,0.05670120137504578,0.841314898956676,-1.4778898131443567,0.929902880764834
1773063225202271488,1.2656354904174805,0.2274724245071411,-0.6613355278968811,-1.4537380933761597,-0.6533146500587463,-0.7550599575042725,-0.05535856634378433,-0.42317765951156616,-0.2515624761581421,0.054412536323070526,0.7246714957273731,0.5496097339646855,-0.4126134470718767,0.050305014416044715,0.855745572974813,-1.4862633338022941,0.9322360909488279
1773063225212309248,1.2756733894348145,0.021751748397946358,-0.5628086924552917,-1.544268250465393,-0.6422157287597656,-0.7648619413375854,-0.05045122653245926,-0.32639700174331665,-0.2614138126373291,-0.13064008951187134,0.7234216169046491,0.5532996191629226,-0.4106506030688599,0.04343822156677774,0.8708269989815586,-1.4923992685949747,0.9322752904973385
1773063225222346240,1.285710334777832,-0.35730820894241333,-0.4296421408653259,-1.6572542190551758,-0.6302106380462646,-0.7749248147010803,-0.04823217913508415,-0.3649829030036926,-0.272957444190979,-0.16041654348373413,0.723065183627394,0.5561572200812147,-0.4081336274284689,0.03595765005275427,0.8865960973754999,-1.494411809702433,0.9281646315360839
1773063225232384512,1.2957484722137451,-0.7042979001998901,-0.33775243163108826,-1.7865022420883179,-0.6167624592781067,-0.7855435013771057,-0.05025763437151909,-0.3765694499015808,-0.2700291872024536,-0.09366322308778763,0.7241392052080801,0.557719763414847,-0.4047466462599246,0.027412194462181887,0.9035739496445737,-1.4894897592364673,0.9169314701208545
1773063225242421504,1.3057854175567627,-0.8816436529159546,-0.23181933164596558,-1.7602519989013672,-0.602864146232605,-0.7959722876548767,-0.05461664870381355,-0.2741652727127075,-0.2162500023841858,-0.07929450273513794,0.7259233100663893,0.5584888273147054,-0.4009761902291868,0.018539506427955967,0.920612135547137,-1.4804476811284815,0.9016608226864439
1773063225252459264,1.3158233165740967,-0.9779787063598633,-0.21250809729099274,-1.7261109352111816,-0.5888553857803345,-0.8059237003326416,-0.06112776696681976,-0.11474263668060303,-0.16610705852508545,-0.13200277090072632,0.72833489475068,0.5584999492771829,-0.39688023816561213,0.009607825609112141,0.9372340535845243,-1.4673590416293305,0.8827034953638182
1773063225262497024,1.3258609771728516,-0.9065495133399963,-0.15320642292499542,-1.6483290195465088,-0.5753769874572754,-0.815079927444458,-0.06772098690271378,-0.053315699100494385,-0.12203860282897949,-0.17765557765960693,0.7306568234596518,0.5583413564994532,-0.3929305739945991,0.001058628210071378,0.9528671108112642,-1.4536368745891528,0.863368497764351
1773063225272534784,1.3358988761901855,-0.8860544562339783,-0.08599382638931274,-1.8347282409667969,-0.5612433552742004,-0.8243046998977661,-0.07435000687837601,-0.09110039472579956,-0.09483909606933594,-0.2702544927597046,0.7328859244911441,0.5584965901500548,-0.388466928926605,-0.007305785781445849,0.9689729578197024,-1.4390894701176637,0.8443216541908998
1773063225282572032,1.3459360599517822,-0.7317658066749573,-0.2821175456047058,-1.7056655883789062,-0.5461486577987671,-0.8338264226913452,-0.08034344017505646,-0.17803341150283813,-0.1703696846961975,-0.28836995363235474,0.7347865565884039,0.5589620205844745,-0.38391371325209583,-0.016137584688866252,0.9860034419398099,-1.4247348566742037,0.8249493749947924
1773063225292610048,1.3559739589691162,1.5951119661331177,-0.220802903175354,-1.182176113128662,-0.5345656275749207,-0.8415461182594299,-0.07771565020084381,-0.13393712043762207,-0.21308034658432007,-0.2851231098175049,0.7337389501314551,0.5620246830958274,-0.3811435832237089,-0.022022278428357137,1.0001390432594521,-1.4264268453844389,0.8231333078336589
1773063225302646784,1.3660109043121338,3.3429625034332275,-0.28708234429359436,-1.7677644491195679,-0.5219104886054993,-0.8513583540916443,-0.052898287773132324,-0.05008041858673096,-0.03301042318344116,-0.6407662630081177,0.7252158173946534,0.5751929403479588,-0.3777617466160994,-0.022607273919370622,1.0185692864744231,-1.4697861766328602,0.8724466076393175
1773063225312685056,1.3760490417480469,2.702939987182617,-0.19929055869579315,-1.670419454574585,-0.5068522095680237,-0.8616234660148621,-0.026569973677396774,-0.13471883535385132,0.12750780582427979,-0.4225877523422241,0.716019836408042,0.5888712726135031,-0.3740930861329836,-0.024507831147214124,1.038459643825145,-1.518422725832,0.9254934359021235
1773063225322722816,1.3860869407653809,2.1775062084198,-0.6299341320991516,-1.7085775136947632,-0.492374449968338,-0.8703786730766296,-0.002873036777600646,-0.0841788649559021,-0.13226103782653809,0.4394269585609436,0.7075995951908842,0.6007661918316396,-0.3710033211677942,-0.027189558423769973,1.0559708366713811,-1.5649613282964676,0.9740872343729098
1773063225332759808,1.3961238861083984,0.9757541418075562,-0.5968589782714844,-1.709539532661438,-0.4772670567035675,-0.8786430954933167,0.014229518361389637,-0.07626074552536011,-0.46216195821762085,0.24474263191223145,0.7013209343484785,0.609535735985582,-0.3682131799593799,-0.03215903702732565,1.073012940590361,-1.6006020810998178,1.0077439521382021
1773063225342798080,1.4061620235443115,-0.5719661116600037,-0.6524247527122498,-1.8236628770828247,-0.4616206884384155,-0.8868662714958191,0.019351689144968987,-0.05752909183502197,-0.5403797626495361,0.4835474491119385,0.6991030631422389,0.6135404737721684,-0.36502593319956894,-0.039737235787531425,1.0905178471878083,-1.6126929876431249,1.014480464076424
1773063225352834816,1.416198968887329,-3.364713191986084,-0.5447462201118469,-2.0733799934387207,-0.4436741769313812,-0.8961818218231201,0.0033821319229900837,-0.07629960775375366,-0.7431157231330872,0.6374260187149048,0.703942502236461,0.6095546901822942,-0.3607411061034874,-0.052667809610251116,1.1110876581544111,-1.5784191874606872,0.9685722793511339
1773063225362872832,1.426236867904663,-4.7737884521484375,-1.0961809158325195,-2.5186967849731445,-0.423236221075058,-0.9057101607322693,-0.023667478933930397,-0.09435716271400452,-0.9082546234130859,1.0579692125320435,0.7120600019651873,0.601351864981238,-0.35572769759515593,-0.069312758685718,1.133052036600035,-1.514934246595303,0.8889759256181754
1773063225372910080,1.4362740516662598,-4.461129188537598,-0.14503490924835205,-1.7144286632537842,-0.403400719165802,-0.9123643040657043,-0.06970788538455963,-0.2095753252506256,-0.5960279703140259,0.44731712341308594,0.7260450025667008,0.5861323243304174,-0.3487046837395085,-0.0878213537310569,1.1490227853775672,-1.3996855045915193,0.7573731400200365
1773063225382947840,1.4463119506835938,-3.855797529220581,-1.357717752456665,-1.347599983215332,-0.39050567150115967,-0.9150689244270325,-0.10076924413442612,0.3431728780269623,-0.17414933443069458,0.4086763858795166,0.73476802038928,0.5744590549777968,-0.3458499250339421,-0.10247314132814218,1.1556788326798029,-1.3182574474367288,0.6584210493946383
1773063225392984832,1.4563488960266113,-5.993135929107666,-0.9972148537635803,-1.5678566694259644,-0.37918391823768616,-0.9143556356430054,-0.14203396439552307,0.46205437183380127,0.11487120389938354,-0.38933807611465454,0.7461385201646039,0.557689825080231,-0.34346044824354255,-0.11955950312775714,1.1539136990202727,-1.212395656290168,0.5299318941731953
1773063225403023104,1.4663870334625244,-6.897035121917725,-1.3116633892059326,-2.243586778640747,-0.363577276468277,-0.9104154706001282,-0.19737087190151215,0.12760010361671448,0.17134076356887817,0.7930282354354858,0.7607883557361589,0.5356418501857827,-0.33823420157633166,-0.14101959995749389,1.1442872413524774,-1.0734528878653091,0.3652702954888072
1773063225413059840,1.476423978805542,-6.210390090942383,-1.9768697023391724,-2.496215581893921,-0.34517502784729004,-0.9037272334098816,-0.2532415986061096,0.08814075589179993,0.04212445020675659,0.4180212616920471,0.7739268294829614,0.5122824410486998,-0.33308542446298617,-0.166307136112623,1.128397291609911,-0.9378341929149104,0.19713230113537014
1773063225423097856,1.486461877822876,-3.3729655742645264,-0.8099343776702881,-1.5320210456848145,-0.3303108215332031,-0.8976731896400452,-0.2916807532310486,0.06839367747306824,0.008497774600982666,-0.012960970401763916,0.7817847314792469,0.4957097373619585,-0.3292893493534705,-0.18615325378694608,1.1144604865966923,-0.8474255220693373,0.08042111222663342
1773063225433135104,1.4964990615844727,-1.2310340404510498,0.088955357670784,-0.1478561908006668,-0.3235200047492981,-0.8937491774559021,-0.31072038412094116,0.1319764256477356,0.052593231201171875,-0.5958042740821838,0.7859975352621815,0.4881120898039646,-0.32616927203773816,-0.19382481316706412,1.1056349645538184,-0.805576464392319,0.030597034938485677
1773063225443172864,1.5065369606018066,-0.5347859859466553,-0.5408095121383667,0.48164236545562744,-0.3263567090034485,-0.8905078172683716,-0.31699687242507935,0.22462639212608337,0.15587347745895386,-0.46963945031166077,0.7877677898905145,0.4844063442357196,-0.3268823308088037,-0.1947311803517108,1.0984600640198778,-0.7999456429913301,0.02172158691112106
1773063225453209856,1.5165739059448242,-0.39024823904037476,-0.22665093839168549,0.16391168534755707,-0.33096322417259216,-0.8876475691795349,-0.3202269971370697,0.08135995268821716,0.27094823122024536,-0.2264191210269928,0.7886494780919775,0.4812827719767997,-0.3290188311609527,-0.19530911775798968,1.0922115809293247,-0.8018837528273465,0.018765228217306095
1773063225463248128,1.5266120433807373,-0.036057133227586746,-0.43305709958076477,-0.5380041003227234,-0.33044326305389404,-0.887808620929718,-0.32031744718551636,-0.11929428577423096,0.3103092312812805,-0.09281426668167114,0.788334233503287,0.480864706106386,-0.3295609434369531,-0.1966926236684126,1.0925614381648903,-0.800956894922877,0.014840185181855403
1773063225473284864,1.5366489887237549,-0.1707533895969391,-0.23520781099796295,-1.3050711154937744,-0.32336580753326416,-0.8897913098335266,-0.32203420996665955,-0.18794092535972595,0.2624720335006714,-0.14877575635910034,0.7875973175850272,0.48073983136397735,-0.32843890379658136,-0.20176131851728824,1.096887737266125,-0.7874613658348094,-0.004439461569598254
1773063225483322880,1.5466868877410889,0.1712646782398224,0.19243673980236053,-1.4377745389938354,-0.31054842472076416,-0.8945795893669128,-0.32138296961784363,-0.24099573493003845,0.07226818799972534,0.1434045135974884,0.7860438699216445,0.48351780930042504,-0.32483694523632606,-0.20694558838122637,1.1074895537477776,-0.768254706349746,-0.025080966524727268
1773063225493360128,1.5567240715026855,0.06372596323490143,0.10907607525587082,-1.0845956802368164,-0.2983119487762451,-0.8988073468208313,-0.32117795944213867,-0.18037149310112,-0.20389950275421143,-0.05403566360473633,0.7847696879593344,0.48613328321404337,-0.3210692268823019,-0.21148403041795702,1.117041089043327,-0.7485038622461502,-0.04511149383090271
1773063225503397888,1.5667619705200195,-0.08490106463432312,-0.11020594835281372,-0.45460599660873413,-0.29130351543426514,-0.901203453540802,-0.3208966553211212,-0.08288773894309998,-0.480540931224823,0.04907655715942383,0.7838325136724893,0.487454910620012,-0.3192794669926613,-0.21460419154941354,1.1225383126579433,-0.7370967627700229,-0.05808297416196002
1773063225513434880,1.576798915863037,-0.9079375267028809,-0.007309394888579845,0.01730906218290329,-0.2897125780582428,-0.9002630114555359,-0.3249511420726776,0.08863228559494019,-0.5835779309272766,0.06481930613517761,0.7846786030553026,0.48588411457265496,-0.3184981256267812,-0.2162292973171604,1.120373227936394,-0.7281310038426242,-0.06858455590034478
1773063225523473152,1.5868370532989502,-1.3602021932601929,-0.07360878586769104,-0.023891370743513107,-0.29003310203552246,-0.8962114453315735,-0.3356870710849762,0.21273210644721985,-0.512251079082489,0.3000273108482361,0.7875482756582559,0.48104422825467935,-0.3174159912647306,-0.21820001897907093,1.1111545117869754,-0.7125649549617786,-0.08645005560983583
1773063225533509888,1.5968739986419678,-1.2579727172851562,-0.1286134570837021,-0.20441587269306183,-0.2893373370170593,-0.892037570476532,-0.3472071588039398,0.15300005674362183,-0.3721073269844055,0.1339656412601471,0.7904101370185184,0.4758901837648997,-0.31610907414537687,-0.2210323994490883,1.1018335329984423,-0.694734918227012,-0.10761968929116524
1773063225543547904,1.6069118976593018,-0.7693692445755005,-0.029919365420937538,-0.09288269281387329,-0.2880409061908722,-0.8888247609138489,-0.356403112411499,0.0999915599822998,-0.17991620302200317,-0.12105968594551086,0.7925903975830024,0.47188372670251794,-0.31483994952374356,-0.22361158264358175,1.0947740704256306,-0.6797140470438076,-0.1254337564514322
1773063225553584896,1.6169488430023193,-0.2519211769104004,-0.18579217791557312,0.30698972940444946,-0.2892147898674011,-0.8868029713630676,-0.3604656159877777,0.12785309553146362,0.032982051372528076,-0.18418166041374207,0.7937255576149955,0.46973429411388457,-0.31482834963721706,-0.22412652792451168,1.090380874125635,-0.6761641308104002,-0.1302366099978038
1773063225563622912,1.6269869804382324,0.2951855957508087,-0.31387558579444885,0.5932531952857971,-0.29433614015579224,-0.8853638768196106,-0.3598569333553314,0.23256856203079224,0.2459900975227356,-0.10980856418609619,0.7938356886244221,0.46856433934356206,-0.3170472996485188,-0.22305451109908112,1.0872760740070284,-0.6855759154749466,-0.12296680346237414
1773063225573659904,1.63702392578125,-0.6535053849220276,-0.6736994385719299,0.3219778835773468,-0.30047136545181274,-0.8839552402496338,-0.35824593901634216,0.30913832783699036,0.4251844882965088,0.11094671487808228,0.7935513345056222,0.4672800359345084,-0.3201974328218579,-0.22225948551438296,1.0842547999674297,-0.6979143248589467,-0.11468265460880071
1773063225583697920,1.647062063217163,1.369153618812561,0.3044721782207489,0.4437887370586395,-0.3039502203464508,-0.8839914202690125,-0.3552091419696808,0.2690533399581909,0.4862099289894104,0.5291593074798584,0.7930986270898113,0.4678877725777704,-0.3216775776511486,-0.2204522903363465,1.084332209916588,-0.7077902899843205,-0.1042797416901955
1773063225593734912,1.6570990085601807,2.156484842300415,-0.6243609189987183,0.8443058133125305,-0.3102581799030304,-0.8880484104156494,-0.3392783999443054,0.370286226272583,0.5347311496734619,-0.21746903657913208,0.7893533182012605,0.47341680872694974,-0.3259406854128446,-0.21577872093069947,1.0930826632562332,-0.7407495194184543,-0.06974594378486051
1773063225603772928,1.6671369075775146,2.8234338760375977,-0.5650650858879089,1.2909023761749268,-0.32178765535354614,-0.8932059407234192,-0.3140631914138794,0.44803890585899353,0.6368736624717712,-0.14403614401817322,0.7833340662662894,0.481428120265867,-0.3334596881874372,-0.20837275688960186,1.1044252936513714,-0.7975457838889982,-0.011959017429057098
1773063225613809920,1.6771738529205322,1.7780030965805054,-1.1751590967178345,0.810539186000824,-0.33451345562934875,-0.8966541290283203,-0.290020614862442,0.39165765047073364,0.7100087404251099,-0.09764418005943298,0.7772489368093402,0.4878039510350178,-0.34210670699313417,-0.20222335214048756,1.1121533829871488,-0.8565196507084261,0.04384701041477694
1773063225623847936,1.6872119903564453,0.6281048059463501,-0.5512639284133911,-0.2216932773590088,-0.33983638882637024,-0.898983895778656,-0.27629515528678894,0.15343505144119263,0.5360384583473206,0.6164441108703613,0.7730649121456656,0.4909264130033148,-0.3476257775681467,-0.20129106776804068,1.1174439948830925,-0.8881641850948715,0.06876765425281978
1773063225633884928,1.697248935699463,0.5895869135856628,-0.4309283196926117,-0.7264934182167053,-0.3361360728740692,-0.9022049903869629,-0.2702564001083374,-0.058486759662628174,0.15159475803375244,0.8001636266708374,0.7705290934844135,0.4934209128881043,-0.34843594718596915,-0.20350172124222257,1.1248547760265237,-0.893615702097166,0.07017736207938813
1773063225643922944,1.707287073135376,1.1186600923538208,-0.671083390712738,-0.06101716682314873,-0.33350685238838196,-0.906110942363739,-0.26026198267936707,-0.07217857241630554,-0.2478960156440735,0.47098588943481445,0.7668270516548963,0.4970350757855354,-0.3504641702781715,-0.20520078315437495,1.1339984377651178,-0.9081339465491904,0.07969601579305596
1773063225653959936,1.7173240184783936,0.9999331831932068,-0.363473504781723,1.05592679977417,-0.33950075507164,-0.9070754051208496,-0.24890461564064026,0.12590822577476501,-0.4605698585510254,0.30215781927108765,0.7637596280750161,0.4995900650130867,-0.354904859688813,-0.20278951393738234,1.136283922690865,-0.9381674173849935,0.10674029688889757
1773063225663997952,1.7273619174957275,0.31609976291656494,-0.4828433096408844,0.945848822593689,-0.35075369477272034,-0.9049890041351318,-0.24076250195503235,0.21662896871566772,-0.4543401002883911,0.36312276124954224,0.762210444957108,0.49981770661371444,-0.3602790664136659,-0.19853563503706284,1.1313539107906987,-0.9692462742587752,0.13556089109161018
1773063225674034944,1.7373988628387451,-0.7437731027603149,1.2476121187210083,-0.2795560359954834,-0.35339996218681335,-0.9027174711227417,-0.24537663161754608,-0.08321502804756165,-0.4721757173538208,0.2920075058937073,0.764181373337087,0.4980856863809605,-0.35947507725436334,-0.19676168713884432,1.1260444706559187,-0.9638850290751986,0.13375745126634817
1773063225684072960,1.7474370002746582,0.31799378991127014,0.1549779176712036,-2.0059726238250732,-0.34084323048591614,-0.9063984155654907,-0.24953527748584747,-0.4171370565891266,-0.7993816137313843,-0.007773682475090027,0.7651140974351013,0.5008823204676859,-0.3526319115438808,-0.19841392068415736,1.1346784937781071,-0.9388424733173654,0.11777396201247853
1773063225694109952,1.7574739456176758,-0.18525545299053192,-0.3577595353126526,-1.120566725730896,-0.32494446635246277,-0.9138885736465454,-0.24334929883480072,-0.5755834579467773,-1.5440887212753296,-0.7293069362640381,0.7612198749257921,0.5058134800869346,-0.34996867830802886,-0.20547272567513164,1.1527617167156365,-0.9280027929046395,0.10170588186577242
1773063225704147712,1.7675118446350098,-3.0169243812561035,0.00010191602632403374,1.4586373567581177,-0.32723551988601685,-0.9085564613342285,-0.25969669222831726,-0.056278884410858154,-1.650159478187561,-0.04769161343574524,0.7659338218751198,0.49844067323609276,-0.34886751606892435,-0.20783148165150933,1.1398155256690208,-0.8999651792853021,0.0704552230857172
1773063225714184960,1.7775490283966064,-3.64943790435791,-0.746103823184967,2.201918601989746,-0.3456725776195526,-0.8924272060394287,-0.28997287154197693,0.719940185546875,-1.1055891513824463,1.0922493934631348,0.7758240184415018,0.48110825339601043,-0.35149454995190366,-0.20756581401405896,1.1026963696483798,-0.872801931219164,0.0357901627671539
1773063225724222976,1.7875869274139404,-4.054662704467773,-0.4598177671432495,1.7264031171798706,-0.3656798303127289,-0.8736681342124939,-0.3209085166454315,0.336398184299469,-0.6350293755531311,0.6588754653930664,0.785642294845652,0.462081570359832,-0.3550019108502686,-0.20789533529594237,1.0626915268039243,-0.8505143246936965,0.0029123969881611643
1773063225734259968,1.797623872756958,-4.010956287384033,0.028569776564836502,0.7131725549697876,-0.37625038623809814,-0.8548868894577026,-0.35721731185913086,0.05299299955368042,-0.10379236936569214,0.7920012474060059,0.7962503747939328,0.4430019273339486,-0.35375222331097766,-0.21117322859145085,1.0253328025751007,-0.8113417763187155,-0.04409109779565227
1773063225744297984,1.807662010192871,-3.253453493118286,-0.2288484424352646,-0.06558714807033539,-0.3796992897987366,-0.8402383923530579,-0.3870760500431061,-0.12371867895126343,0.28419286012649536,0.843817412853241,0.8041230836001287,0.4278098193224503,-0.35134133974720766,-0.21661969822648824,0.9977227714477098,-0.7757779788281893,-0.08820310943043505
1773063225754334976,1.8176989555358887,-1.9035484790802002,0.13551101088523865,-0.11398570984601974,-0.37871259450912476,-0.8304386734962463,-0.4085932672023773,-0.18274977803230286,0.48484236001968384,0.5186396241188049,0.8094232634314318,0.41760319198719437,-0.34829720656308677,-0.22165433660388806,0.9798945888283945,-0.7474633272257841,-0.12222668416097573
1773063225764372736,1.8277368545532227,-0.6495668888092041,0.11469068378210068,-0.03964756429195404,-0.37728849053382874,-0.8257949352264404,-0.41918501257896423,-0.08540374040603638,0.43393397331237793,0.3586686849594116,0.8120782000654827,0.41301406792000134,-0.3461601869386022,-0.22387830653705587,0.971610316583163,-0.7328440897481884,-0.1381686293115695
1773063225774409984,1.8377740383148193,-0.4762328267097473,0.10545749962329865,0.04963783919811249,-0.3769303858280182,-0.8236451148986816,-0.42371222376823425,-0.09995254874229431,0.19269424676895142,0.21430057287216187,0.8132858732685783,0.4110520378194752,-0.3452247165682624,-0.22454868427905147,0.9678089642260149,-0.7270341426814487,-0.14409380997573978
1773063225784448000,1.8478119373321533,-0.7070034146308899,0.022615613415837288,0.30118831992149353,-0.3776240646839142,-0.8205796480178833,-0.42900925874710083,-0.16670265793800354,-0.02176642417907715,0.3530663251876831,0.8148396069560188,0.4084970539373625,-0.3444205580769599,-0.22481309325074475,0.9624245023914396,-0.7217808063710487,-0.14924793372873907
1773063225794484736,1.857848882675171,-1.0590900182724,-0.47003135085105896,0.9276610016822815,-0.38369137048721313,-0.8144686818122864,-0.43522587418556213,-0.09604492783546448,-0.08398401737213135,0.4421381652355194,0.8168965332325797,0.40362271796969473,-0.3456526539525149,-0.2242608295526004,0.9518128984745523,-0.7225509811489357,-0.15115776957716884
1773063225804523008,1.867887020111084,-1.2976288795471191,-0.1138189285993576,0.9634214043617249,-0.3932396471500397,-0.8052237033843994,-0.44382137060165405,0.10144585371017456,0.13978791236877441,0.5940747261047363,0.8198756545710141,0.3965196482165027,-0.347651377236095,-0.22296770983614697,0.9360525823487277,-0.72504378266032,-0.15221400836374435
1773063225814560000,1.8779239654541016,-0.9769701361656189,-0.04496369510889053,0.4366811513900757,-0.3991404175758362,-0.7972372770309448,-0.45287930965423584,0.11361795663833618,0.4423178434371948,0.6908859014511108,0.8228627470550803,0.3905075634282115,-0.347942786426724,-0.22211847033361137,0.9227047364455427,-0.7224092462748726,-0.1560118003905924
1773063225824597760,1.8879618644714355,-0.5052978992462158,-0.21052229404449463,-0.03827550262212753,-0.4011589288711548,-0.7930215001106262,-0.45846328139305115,-0.020899146795272827,0.6007606983184814,0.46568065881729126,0.8243360319879031,0.3869017688674682,-0.3479588740668298,-0.2229391959827607,0.9157529123988835,-0.7188343986647785,-0.16207240126388336
1773063225834635008,1.8979990482330322,0.5324819087982178,-0.20223639905452728,-0.18048962950706482,-0.4012005031108856,-0.7934378385543823,-0.4577058255672455,-0.11434817314147949,0.6482504606246948,0.24846208095550537,0.8238177099695408,0.38675698349873966,-0.3486633273750388,-0.2240031071036223,0.916436679504075,-0.719705301484148,-0.16401254322129064
1773063225844673024,1.9080369472503662,1.6500276327133179,0.06716284155845642,-0.03831624984741211,-0.40060603618621826,-0.7990583777427673,-0.44835299253463745,-0.13555723428726196,0.5546431541442871,0.05426427721977234,0.8213203576813776,0.3915173905344322,-0.3500537543531375,-0.2227314863504854,0.9257275099709663,-0.7292155867070859,-0.1532192127309081
1773063225854709760,1.9180738925933838,2.120015859603882,0.5627382397651672,0.38382408022880554,-0.40049389004707336,-0.8069902658462524,-0.434017539024353,-0.22647449374198914,0.3378283977508545,-0.10037574172019958,0.8182134661937265,0.39955737125112445,-0.35120526906244587,-0.21802610751529056,0.93903787828037,-0.7452481647529443,-0.12927109165024941
1773063225864748032,1.9281120300292969,1.9743742942810059,0.9858967065811157,0.9339964389801025,-0.4024483561515808,-0.8133034706115723,-0.42020562291145325,-0.3095572292804718,0.08533722162246704,-0.12692877650260925,0.8160667796524241,0.4077998435814986,-0.35156291170684906,-0.21008992484398983,0.9498074069523866,-0.7638161767285296,-0.09667230568879974
1773063225874785024,1.9381489753723145,1.3692386150360107,1.4738925695419312,1.434903860092163,-0.40710991621017456,-0.8154783844947815,-0.4114079773426056,-0.30878669023513794,-0.09068000316619873,-0.1764979064464569,0.815983675263839,0.4138582289578727,-0.35073834091171746,-0.19968626629733396,0.9535552298856823,-0.7801471923650928,-0.06149406452648782
1773063225884822784,1.9481868743896484,0.7786772847175598,1.6462395191192627,1.7414382696151733,-0.4136432707309723,-0.8133009672164917,-0.40919530391693115,-0.2764202356338501,-0.1536942720413208,-0.30577051639556885,0.8180833853392474,0.41696883167501747,-0.34862493870097905,-0.18798200505540202,0.9498031363535283,-0.7908037580519138,-0.028943870266198626
1773063225894860032,1.9582240581512451,0.20156727731227875,1.762672781944275,2.0697524547576904,-0.42216160893440247,-0.8073564767837524,-0.41225627064704895,-0.29902976751327515,-0.15217721462249756,-0.5012264251708984,0.8217349377104884,0.41723862376289195,-0.3460979669163564,-0.17572676591847858,0.93965819688351,-0.7972685627431588,1.5646969438618556e-05
1773063225904898048,1.968261957168579,-0.34309709072113037,2.0086545944213867,2.321937322616577,-0.4319930076599121,-0.7975893616676331,-0.4209909439086914,-0.312071293592453,-0.06729406118392944,-0.5735006332397461,0.8270360666670372,0.4147124033591021,-0.34280920794012604,-0.16280938909354054,0.9232881536157379,-0.7982957833868504,0.024929580711387015
1773063225914934784,1.9782989025115967,-0.6693790555000305,2.2143619060516357,2.5323193073272705,-0.44224295020103455,-0.7846943140029907,-0.43436843156814575,-0.38704168796539307,0.035381019115448,-0.5778996348381042,0.8336140778041108,0.4100294466429964,-0.33866154788433067,-0.14923697122087143,0.9022027918413899,-0.7943808586245529,0.046655304132517374
1773063225924973056,1.9883370399475098,-0.7126961946487427,2.4738669395446777,2.734398126602173,-0.4524001181125641,-0.7697054743766785,-0.4504305422306061,-0.4806748628616333,0.1437135934829712,-0.5612881779670715,0.8408964203477498,0.40426897513746907,-0.3336934646580757,-0.13456779133973412,0.8783796397473841,-0.7875797195655626,0.06817425233592807
1773063225935010048,1.9983739852905273,-0.5397263765335083,2.853123188018799,2.8805429935455322,-0.4616773724555969,-0.7538972496986389,-0.46743229031562805,-0.5394974946975708,0.2834230065345764,-0.5038964748382568,0.8483607937241028,0.3986216558203806,-0.32769594567477495,-0.1183219816021456,0.8539739955293829,-0.7792042388857279,0.0922076918650427
1773063225945047808,2.0084118843078613,-0.3879898190498352,3.3370730876922607,2.832561731338501,-0.46842312812805176,-0.7382349371910095,-0.4853750467300415,-0.5647189617156982,0.4428858160972595,-0.4047311544418335,0.8558999416115796,0.39365562861777254,-0.3199183010537862,-0.10061204190296283,0.83044990459349,-0.7676269491552379,0.11835237124462583
1773063225955085056,2.018449068069458,-0.15044674277305603,3.568269729614258,2.428093671798706,-0.4705772399902344,-0.7243914008140564,-0.503799557685852,-0.5621986389160156,0.5575366616249084,-0.2703092694282532,0.8631606308051276,0.38988539341860107,-0.3099832251078019,-0.08278508732720018,0.8101512039414029,-0.7513153982105087,0.1438137687488497
1773063225965122816,2.028486967086792,0.28941506147384644,3.6123483180999756,1.9919151067733765,-0.4679883122444153,-0.7141006588935852,-0.5206220149993896,-0.5440813302993774,0.5538223385810852,-0.17864251136779785,0.869438855565427,0.3879131476979885,-0.2986844343739804,-0.06623570141029064,0.7953385885417974,-0.7322083025384925,0.16727076951836453
1773063225975159808,2.0385239124298096,0.7130652666091919,3.551128387451172,1.6387821435928345,-0.4620351791381836,-0.7084839344024658,-0.5334547162055969,-0.477662056684494,0.4660217761993408,-0.15233629941940308,0.8741638821482789,0.38862034961357933,-0.2867871448834808,-0.050644205449782285,0.787347691574688,-0.7137777808306934,0.1915545276160064
1773063225985198080,2.0485620498657227,0.986594021320343,3.7298126220703125,1.7908377647399902,-0.4541522264480591,-0.7053375244140625,-0.5442836880683899,-0.43342098593711853,0.3648377060890198,-0.1511051058769226,0.8780234434331525,0.39077144408504333,-0.27414566438372373,-0.034880246698098354,0.7828991625964279,-0.6953695561366507,0.21755548747005332
1773063225995235072,2.0585989952087402,1.5207847356796265,3.248843193054199,1.9204154014587402,-0.44814106822013855,-0.7035446763038635,-0.5515382885932922,-0.31678202748298645,0.269599974155426,-0.02899754047393799,0.8805947079335007,0.3941208963720375,-0.26248725703825626,-0.017949718568975485,0.7803732181455132,-0.6823342223566865,0.2492342573394929
1773063226005272832,2.068636894226074,2.001945734024048,3.2207021713256836,1.7019497156143188,-0.4434666633605957,-0.7053475379943848,-0.5530120134353638,-0.3493036925792694,0.13277673721313477,0.03711235523223877,0.8811949324241946,0.39985265212466364,-0.25221387143220564,-0.0012911240018160513,0.7829133057807749,-0.6759053365921731,0.2851757450944064
1773063226015310080,2.078674077987671,2.1467628479003906,3.63285493850708,1.4115232229232788,-0.4355092942714691,-0.7099975943565369,-0.5533850789070129,-0.525473952293396,-0.007073879241943359,0.15059882402420044,0.881171205693173,0.40700282247608194,-0.2401169884941726,0.015160765353094565,0.7894948310070014,-0.6667583954014897,0.32098151017280824
1773063226025347840,2.088711977005005,2.0037930011749268,3.8892898559570312,1.0796524286270142,-0.42349234223365784,-0.716277539730072,-0.5546176433563232,-0.5921631455421448,-0.09370476007461548,0.3952091336250305,0.8811092734159505,0.4143835152940355,-0.22578190926271283,0.030907678097099846,0.7984531423736632,-0.6521328211030681,0.3535220901956512
1773063226035384832,2.0987489223480225,1.6897927522659302,4.171924114227295,0.8130244016647339,-0.4078415036201477,-0.7226008772850037,-0.5581337809562683,-0.6586257815361023,-0.24094587564468384,0.5035836100578308,0.8814726429705565,0.42070935190417746,-0.20961095186094272,0.045528891190417975,0.807557419867051,-0.6310496117672405,0.3803598529927325
1773063226045423104,2.1087870597839355,1.5532561540603638,4.30157470703125,0.790524959564209,-0.38967254757881165,-0.7285519242286682,-0.5633537769317627,-0.623755156993866,-0.4451846480369568,0.6057274341583252,0.8821083908764024,0.4259545279044137,-0.19205686373139302,0.059680779322518016,0.8162055522895675,-0.6051346030791699,0.4034211391136656
1773063226055460096,2.118824005126953,1.3341586589813232,4.328066825866699,0.8158825039863586,-0.3712875247001648,-0.7336543202400208,-0.5691193342208862,-0.5036208629608154,-0.602206826210022,0.624722421169281,0.8826639340890028,0.4301873754713776,-0.17429620168591123,0.07391845749285059,0.8236842711237929,-0.5780532415063884,0.4254345586148044
1773063226065497856,2.128861904144287,0.7869930863380432,4.764052391052246,0.4483167827129364,-0.3502834141254425,-0.7371575236320496,-0.57784104347229,-0.39552041888237,-0.6186468601226807,0.6303770542144775,0.8838835144245465,0.43238801278803707,-0.15530642247053994,0.08758089193234236,0.8288540644955068,-0.5449610330021936,0.44214659773382237
1773063226075534848,2.1388988494873047,0.5706799030303955,4.239895343780518,0.257474809885025,-0.326560914516449,-0.7400222420692444,-0.5879839658737183,-0.348548948764801,-0.5164169669151306,0.6275042295455933,0.8854916994116315,0.4331090022602459,-0.13573733351445252,0.0994811181176256,0.833103438396401,-0.5069726374735738,0.4519945290536952
1773063226085572864,2.1489369869232178,0.022034088149666786,4.004632472991943,0.09385097771883011,-0.3039292097091675,-0.7412083745002747,-0.5985292196273804,-0.18685448169708252,-0.31779736280441284,0.5149263143539429,0.8872866867615674,0.4322348346578008,-0.1179339814673817,0.10948527056318634,0.8348686720615938,-0.4698628700801467,0.45705732496651374
1773063226095609856,2.1589739322662354,-0.6078265905380249,3.8736345767974854,-0.31353330612182617,-0.2793945372104645,-0.7395862936973572,-0.6123323440551758,-0.06281429529190063,-0.17311817407608032,0.5185060501098633,0.8901514843177609,0.42867164232932925,-0.10037161439549798,0.11745896613479818,0.83245550459556,-0.4280634740651465,0.4539750582577521
1773063226105648128,2.1690120697021484,-0.908701479434967,3.759124517440796,-0.7378882765769958,-0.25195667147636414,-0.7362585067749023,-0.6280454993247986,-0.08268383145332336,-0.16294187307357788,0.5040678381919861,0.8938229228562395,0.4232370002835683,-0.08275086642055539,0.1228949951098226,0.8275246091264061,-0.3815196090378796,0.44246094601623465
1773063226115685888,2.1790499687194824,-0.9923837780952454,3.6267969608306885,-0.3111296594142914,-0.2242550104856491,-0.7314077019691467,-0.6440128087997437,-0.0800967812538147,-0.26468604803085327,0.44711339473724365,0.8976091583786222,0.416756437381911,-0.06563276439152452,0.12768833908163812,0.8203839470736498,-0.3350838590794411,0.4294404607015347
1773063226125722880,2.1890869140625,-0.279751718044281,3.509199857711792,0.6700379848480225,-0.20207709074020386,-0.7264959812164307,-0.6567864418029785,0.09265629947185516,-0.39319396018981934,0.4338555335998535,0.8999880867920041,0.4111934446483565,-0.05026672125900337,0.13570035245548084,0.8132089093523793,-0.29848358094009747,0.42861510711395373
1773063226135759872,2.1991238594055176,0.8553847074508667,2.2173914909362793,2.0322682857513428,-0.19206136465072632,-0.7260246276855469,-0.6603034138679504,0.2748250365257263,-0.4310034513473511,0.20282965898513794,0.8990395063953247,0.410246794912338,-0.03931752836848549,0.14791747023803092,0.8125232639284251,-0.2830582210294047,0.4485711349094783
1773063226145797888,2.2091619968414307,-0.18426573276519775,0.36597976088523865,3.561453104019165,-0.20582982897758484,-0.7239152193069458,-0.6584686040878296,0.37500402331352234,-0.2647475600242615,0.03442990779876709,0.8958721372505941,0.4113042531405058,-0.03993147060371862,0.16324028827413614,0.809460654400711,-0.30296567036267835,0.4910734118730557
1773063226155835904,2.2191998958587646,-1.489943504333496,2.9347057342529297,2.5794992446899414,-0.21982906758785248,-0.7102994918823242,-0.6686925888061523,0.2761187255382538,-0.15327167510986328,0.46710872650146484,0.8953743417402776,0.4049315084390641,-0.0410388580978947,0.18069572202761286,0.7899235671604887,-0.3176150138844782,0.5316008643574117
1773063226165873152,2.2292370796203613,-3.942301034927368,3.696411609649658,0.3017309606075287,-0.20608338713645935,-0.6884751915931702,-0.6953642964363098,-0.34985533356666565,-0.35211318731307983,0.6436523199081421,0.9000422951820642,0.3890733340805978,-0.030655892492192305,0.19392254974336873,0.7593844964813474,-0.28812090599371737,0.5400796901430166
1773063226175910912,2.2392749786376953,-4.128381252288818,4.577428340911865,-3.2788774967193604,-0.16517329216003418,-0.6642981171607971,-0.7289895415306091,-0.6347382068634033,-0.5926598906517029,0.9016274809837341,0.9094361668482622,0.36789612914749625,-0.012556514748948634,0.19344400358130023,0.7265544233271001,-0.2228162943536772,0.5041724107739588
1773063226185947904,2.249311923980713,-4.543161392211914,2.8501570224761963,-2.270782947540283,-0.11589493602514267,-0.6367461085319519,-0.7623140215873718,-0.4576829671859741,-0.6379883885383606,0.6617128849029541,0.9198881823124072,0.3446636952642858,0.007064812453996438,0.18698315505177202,0.6902709424451327,-0.15087510735318038,0.4554035431469738
1773063226195985920,2.259350061416626,-4.937865734100342,0.151025652885437,0.481892466545105,-0.0992092490196228,-0.5995775461196899,-0.7941437363624573,0.8195766806602478,-0.49112069606781006,1.0892333984375,0.9287584584277461,0.32064577241098663,0.010697079417590473,0.1856866097069458,0.6429731575350053,-0.1242821920647012,0.4360947070293668
1773063226206022912,2.2693870067596436,-3.6210854053497314,-1.2783451080322266,2.1935040950775146,-0.11194843798875809,-0.56419438123703,-0.818017303943634,1.4117684364318848,-0.32607966661453247,0.29917269945144653,0.9340492884689833,0.30164223494845843,0.0018224215323772194,0.19120814453263538,0.5994571460622029,-0.13600849887487348,0.44592892930558065
1773063226216060928,2.2794249057769775,-2.7072017192840576,-1.1557132005691528,2.089878797531128,-0.13448190689086914,-0.5357109308242798,-0.8336236476898193,0.9547944068908691,0.057408928871154785,-0.40827393531799316,0.9364219456406238,0.28823956485489405,-0.010301534977030498,0.19981425257244262,0.5653494457841406,-0.15994408688865744,0.4670025637235638
1773063226226097920,2.289461851119995,-1.4715195894241333,-0.5298234820365906,1.892930030822754,-0.15282757580280304,-0.5157460570335388,-0.8430004119873047,0.22799237072467804,0.2776479721069336,-0.03816413879394531,0.9370875189596094,0.2795035873651208,-0.0194301009473854,0.20824806547868766,0.5418782610107356,-0.17934220061609035,0.4872902801675483
1773063226236135936,2.299499988555908,-1.2722325325012207,1.0830798149108887,0.5529051423072815,-0.1576002538204193,-0.5012636780738831,-0.850821316242218,-0.0868760496377945,0.34006989002227783,-0.04016989469528198,0.9378402971177128,0.27223459615915613,-0.021855846248467085,0.2141639334751621,0.5250585645150575,-0.18315712579029203,0.49836601274009157
1773063226246172928,2.309536933898926,-0.9069677591323853,1.512017846107483,-0.678462028503418,-0.14549045264720917,-0.49185052514076233,-0.8584378957748413,-0.3905355632305145,0.20301693677902222,0.1614011526107788,0.9394958090245608,0.2655387738459218,-0.01643845061515709,0.21579284539376709,0.5142138660535026,-0.16788743193227984,0.4957867388720507
1773063226256210944,2.319575071334839,-0.9987936019897461,0.9479482769966125,-0.5198773145675659,-0.13061876595020294,-0.4857366979122162,-0.8642908334732056,-0.25091201066970825,-0.06487670540809631,0.19780218601226807,0.9414384399626731,0.2602902622066508,-0.010177041733938913,0.21410069234487697,0.5072057677349457,-0.1499931977322644,0.4861746410265392
1773063226266247936,2.3296120166778564,-2.3043463230133057,0.29092642664909363,-0.059411149471998215,-0.12425902485847473,-0.4719465374946594,-0.8728265166282654,0.17900756001472473,-0.2795488238334656,0.18262571096420288,0.9438772870272906,0.25200816395295045,-0.008866662228412729,0.21332828994421105,0.4914973763393734,-0.14141368137223745,0.48008098539760724
1773063226276286208,2.3396501541137695,-3.008338212966919,-0.06682638078927994,0.5036900043487549,-0.1232488825917244,-0.44770875573158264,-0.8856447339057922,0.4227636456489563,-0.32791078090667725,0.47136861085891724,0.9469618424107296,0.23886875305156677,-0.010924485756407589,0.2146759208787635,0.46420127503922165,-0.13827482770639735,0.4785951852055729
1773063226286322944,2.349687099456787,-4.10207986831665,0.34122395515441895,-0.1331426352262497,-0.125200554728508,-0.4156211316585541,-0.9008795022964478,0.5124076008796692,-0.21981588006019592,0.36840879917144775,0.9508160394183377,0.22207874352076887,-0.015532827525786929,0.21538044479744434,0.42862560168988184,-0.13809140592201588,0.4756266130681509
1773063226296361216,2.3597252368927,-4.509848594665527,0.5808641314506531,-1.1612858772277832,-0.11769438534975052,-0.37574511766433716,-0.9192190170288086,0.2798953056335449,-0.09378308057785034,0.3637228012084961,0.9562784666089591,0.20024957786332942,-0.017046656391475484,0.21246408651804408,0.3852006744603647,-0.12734450961934649,0.4621204650071045
1773063226306398208,2.3697621822357178,-3.6568286418914795,0.11136559396982193,-1.156590223312378,-0.1098560243844986,-0.3389524817466736,-0.9343676567077637,0.2507556676864624,0.07909530401229858,0.19674253463745117,0.9615459624723117,0.18021182167605113,-0.01843587584311945,0.2064296824428401,0.34580323738662366,-0.11703529098072077,0.4434128311177835
1773063226316435968,2.3798000812530518,-3.3694164752960205,-0.039358142763376236,-0.01334258820861578,-0.10790301859378815,-0.30695590376853943,-0.9455870985984802,0.44364216923713684,0.27814731001853943,-0.2324371337890625,0.9651821618401694,0.16353664121134232,-0.021498931643257963,0.20301949103880146,0.3119928564191443,-0.11362072111616389,0.43253009312536256
1773063226326472960,2.3898370265960693,-3.27128005027771,0.10021466761827469,0.7833844423294067,-0.10921453684568405,-0.2748049795627594,-0.955277144908905,0.5118176937103271,0.5011385679244995,-0.16757136583328247,0.9672701333427299,0.14739607503901317,-0.0252156267533701,0.20500508318989605,0.27838686654832956,-0.11383334434957007,0.4336676154219775
1773063226336511232,2.3998751640319824,-2.9301629066467285,0.739508867263794,0.12787365913391113,-0.10657092183828354,-0.24423381686210632,-0.9638425707817078,0.30206653475761414,0.6192033290863037,-0.17803364992141724,0.968996719545142,0.1317581220424593,-0.026805172900622884,0.20728388872686102,0.24672950146368025,-0.11012149770874761,0.4351476619237636
1773063226346547968,2.409912109375,-2.492225170135498,0.725764811038971,-0.30932655930519104,-0.09861589968204498,-0.21793220937252045,-0.9709688425064087,0.021559014916419983,0.5730500221252441,-0.2621091604232788,0.9709581252098082,0.11770197540673723,-0.025726122530218096,0.20669969066983318,0.2196952575889643,-0.1012173561830068,0.43067494189266176
1773063226356586240,2.419950246810913,-2.1302850246429443,0.4779776632785797,0.04662301018834114,-0.09262529760599136,-0.19558170437812805,-0.9763033986091614,0.21521440148353577,0.6159308552742004,-0.2808071970939636,0.9724846637141271,0.1058939703646827,-0.025194501766429782,0.20597379965748455,0.19685058047785575,-0.09459035425099112,0.42678126487023355
1773063226366623232,2.4299871921539307,-1.3115177154541016,0.5188058018684387,0.43401867151260376,-0.0881006196141243,-0.17823055386543274,-0.9800367951393127,0.4847223162651062,0.6909563541412354,-0.353962779045105,0.9731767728651235,0.09681999475370383,-0.024647175899417596,0.2072324927276881,0.17918791389307193,-0.08965422622758147,0.4276803738889093
1773063226376660992,2.4400250911712646,-0.8062930107116699,0.6088767051696777,0.7301498055458069,-0.08365395665168762,-0.16768430173397064,-0.9822850823402405,0.5122427940368652,0.6540429592132568,-0.346221387386322,0.9731049189514099,0.09118946292199974,-0.023279591159894555,0.210259964354953,0.16848023581716068,-0.08495760999860788,0.4327777046630314
1773063226386697984,2.4500620365142822,-0.6079652905464172,0.5164402723312378,0.8237180709838867,-0.07900084555149078,-0.1600349247455597,-0.9839449524879456,0.4685119390487671,0.4911659061908722,-0.09396642446517944,0.9726411361958465,0.08699314396437707,-0.021440910277222586,0.21434000425435001,0.160726040117897,-0.08011803739733282,0.4402604113788449
1773063226396736256,2.4601001739501953,-0.47618532180786133,0.3938288390636444,0.640778124332428,-0.07617386430501938,-0.15413637459278107,-0.9851089119911194,0.4224720895290375,0.24750488996505737,0.08685451745986938,0.972105147392762,0.08384930455361128,-0.020367862717471364,0.21809634584351234,0.15475331630482284,-0.07717175809219207,0.4473864653421585
1773063226406772992,2.470137119293213,-0.8834401965141296,0.5857330560684204,0.49515300989151,-0.07210774719715118,-0.14758574962615967,-0.9864172339439392,0.32399982213974,0.10777556896209717,0.1523107886314392,0.9718030177148903,0.08022213137340034,-0.01886272235415114,0.22092435493649645,0.14812684426670933,-0.07297086321067074,0.4524874771890591
1773063226416811008,2.480175018310547,-0.9470183849334717,0.7380216121673584,0.4821980595588684,-0.06627548485994339,-0.13755907118320465,-0.9882737994194031,0.2082127332687378,0.16832080483436584,-0.017585575580596924,0.9716980144347912,0.07467614146868864,-0.016928811925848164,0.22347229532314325,0.13799663902761855,-0.06696160374530276,0.45673041344764004
1773063226426848256,2.4902122020721436,-0.8845211863517761,0.7865694761276245,0.5335438251495361,-0.059225235134363174,-0.12837466597557068,-0.989955723285675,0.10321632027626038,0.14551030099391937,-0.5925790667533875,0.9715149993174012,0.06940392848390002,-0.014326138662208072,0.22613357428495232,0.12872991769377148,-0.0597549219505278,0.46123613212963005
1773063226436886016,2.5002501010894775,-1.0086302757263184,0.7762694358825684,0.5808663368225098,-0.05227474868297577,-0.11861882358789444,-0.9915628433227539,0.017911963164806366,-0.017062321305274963,-0.6131886839866638,0.9712347687351367,0.0638607023596372,-0.011848015263042163,0.22909503430758957,0.11889877179349015,-0.05267078924103099,0.46642752598579135
1773063226446923008,2.510287046432495,-0.9790192246437073,0.7953397631645203,0.4162669777870178,-0.045009028166532516,-0.10837086290121078,-0.9930911064147949,-0.07700024545192719,-0.10473338514566422,-0.4250760078430176,0.9709915713211142,0.058030103816072015,-0.009324913468650671,0.23177800667213183,0.1085841149241239,-0.045291160443762274,0.4710972033998958
1773063226456961280,2.520325183868408,-0.8731018304824829,0.7363965511322021,0.13878396153450012,-0.037696052342653275,-0.09900625795125961,-0.994372546672821,-0.14043503999710083,-0.11692086607217789,-0.31704407930374146,0.970955192351865,0.05261073154804912,-0.006770178528910072,0.23330765659465896,0.09916872178837462,-0.037891241609628805,0.4735128274418385
1773063226466998016,2.530362129211426,-0.7529978156089783,0.7225558757781982,-0.11520490050315857,-0.03034113347530365,-0.09079195559024811,-0.9954075813293457,-0.12697698175907135,-0.11652921140193939,-0.2468409538269043,0.9711778023844034,0.047739358595871896,-0.004143346426458876,0.2334895444524129,0.0909171553016798,-0.03047168192253533,0.4732683636851186
1773063226477036032,2.5404000282287598,-0.6754105687141418,0.7494114637374878,-0.16266164183616638,-0.022877957671880722,-0.08381034433841705,-0.9962190389633179,-0.04986068606376648,-0.13754889369010925,-0.21720558404922485,0.9715333603469329,0.04345832551629283,-0.001357099990557305,0.2328785331077122,0.08390877498883213,-0.02296075061059052,0.4714903571134501
1773063226487073280,2.5504372119903564,-0.6726198792457581,0.5920681357383728,-0.029013561084866524,-0.015904976055026054,-0.0770946815609932,-0.9968969225883484,0.046651434153318405,-0.1879047155380249,-0.11957341432571411,0.9717804828507519,0.03937019161512942,0.001238990461490501,0.2325748005479223,0.07717125840791934,-0.01595313018478838,0.47043581165252485
1773063226497111040,2.5604751110076904,-0.6624833941459656,0.4678657650947571,-0.020756429061293602,-0.01067646499723196,-0.07053883373737335,-0.997451901435852,0.08945759385824203,-0.23118846118450165,-0.02746570110321045,0.9719188052358291,0.03556595606463444,0.0030189694738619703,0.23259392937119053,0.07059745935502532,-0.01070333001678099,0.4701708226174589
1773063226507148032,2.570512056350708,-0.836829662322998,0.37783282995224,-0.09864110499620438,-0.006293692160397768,-0.06303092837333679,-0.9979917407035828,0.05861607939004898,-0.2285797894001007,0.08045023679733276,0.9721040785353914,0.031399163178232624,0.004269407277063833,0.2323996402626952,0.06307273730349613,-0.006306273271784181,0.469527371325912
1773063226517186048,2.580550193786621,-0.9046030044555664,0.31164196133613586,-0.11094371229410172,-0.0027884303126484156,-0.05431336164474487,-0.9985200762748718,0.028255349025130272,-0.11888915300369263,0.18981951475143433,0.972354564227316,0.026749062687777873,0.004946147657601093,0.23191931994219803,0.05434009983572576,-0.0027925559593151147,0.4683530804669303
1773063226527223040,2.5905871391296387,-1.076773762702942,0.2593603730201721,-0.04257158190011978,0.00017252903489861637,-0.044424425810575485,-0.9990127086639404,0.04137715324759483,0.023855585604906082,0.2059524655342102,0.9725600115126485,0.02159339046925136,0.0052305823919645425,0.23158895601472254,0.044439051543760606,0.000172699530342831,0.46753518709958414
1773063226537261056,2.6006250381469727,-1.268180012702942,0.23262371122837067,-0.020546838641166687,0.002561128931120038,-0.032753199338912964,-0.9994601607322693,0.05200430005788803,0.11109182238578796,0.21734046936035156,0.9726907780163541,0.015637107662179926,0.005038507968704964,0.23152272194164306,0.03275905794278831,0.0025625066782316848,0.46730756228582715
1773063226547298304,2.6106622219085693,-1.5264924764633179,0.23369430005550385,-0.08888808637857437,0.005046341568231583,-0.018694300204515457,-0.9998124837875366,0.03543522581458092,0.08371200412511826,0.2640489935874939,0.9728287264537812,0.008510304313820194,0.0046172614829799626,0.23132355173379918,0.01869538870782077,0.005047245026320113,0.46685095231346746
1773063226557336064,2.6207001209259033,-1.6970348358154297,0.09843301773071289,-0.18475881218910217,0.006764441262930632,-0.002462746575474739,-0.9999740719795227,-0.006077796220779419,-0.02037966065108776,0.2894943952560425,0.9730197535403745,0.0004178992732390516,0.0035750839433218644,0.23069360818478316,0.002462749014082845,0.006764513315148701,0.46557564599639156
1773063226567373056,2.630737066268921,-1.768129587173462,0.004735549911856651,-0.18357157707214355,0.0072621796280145645,0.015031863003969193,-0.9998606443405151,-0.043196626007556915,-0.1415729969739914,0.23184001445770264,0.9732087200553177,-0.008149460237556881,0.0018069859179313415,0.22977170450139064,-0.015032429214905657,0.0072630641095762505,0.46375723764149923
1773063226577411072,2.640775203704834,-1.6205565929412842,-0.11308042705059052,-0.1098245158791542,0.0066580334678292274,0.032209593802690506,-0.9994589686393738,-0.05801911652088165,-0.2073041945695877,0.18134373426437378,0.9732751448560164,-0.016441366689898953,-0.0004489113505437521,0.2290521916919007,-0.03221516730318253,0.006661539303872114,0.46237871845289685
1773063226587448064,2.6508121490478516,-1.2461090087890625,-0.10017608106136322,-0.053571369498968124,0.0055031320080161095,0.046697791665792465,-0.9988939166069031,-0.07009358704090118,-0.19141215085983276,0.10376757383346558,0.9732183300842301,-0.02336571680558826,-0.0026629434974741522,0.22867654544744678,-0.04671478208512531,0.005509169950090169,0.46169463072843336
1773063226597486080,2.6608500480651855,-0.6727806925773621,-0.09984185546636581,-0.08495299518108368,0.0045790355652570724,0.056436069309711456,-0.9983957409858704,-0.09715411067008972,-0.13858938217163086,0.0005167126655578613,0.9731659358683242,-0.028006116875337158,-0.004219028129717434,0.22835483890427927,-0.05646607030322798,0.004586361425320362,0.4610928596989786
1773063226607523328,2.6708872318267822,-0.02727731317281723,-0.1377013623714447,-0.05613599345088005,0.0032476659398525953,0.059881001710891724,-0.9982002377510071,-0.13059751689434052,-0.11806276440620422,-0.10433882474899292,0.9732041319295749,-0.029534993087163022,-0.005250174488707122,0.22797785765501938,-0.05991684577744929,0.003253509967069142,0.4603090457121957
1773063226617561088,2.680925130844116,0.3218584656715393,0.020605193451046944,0.11797615140676498,0.002593061188235879,0.05816429853439331,-0.9983036518096924,-0.1339407116174698,-0.1341835856437683,-0.15910601615905762,0.9732001515118883,-0.02862277643163253,-0.005376652447060654,0.2281081828623036,-0.05819714338651103,0.0025974614434372788,0.46054284736740425
1773063226627598080,2.690962076187134,0.5368784070014954,0.048538822680711746,0.26870760321617126,0.0031978029292076826,0.05393315851688385,-0.9985394477844238,-0.1232539564371109,-0.13034917414188385,-0.08591794967651367,0.973027244186273,-0.026624971013959168,-0.004625700891942066,0.22910201481853906,-0.05395934008382899,0.0032024695314519596,0.4625685291478384
1773063226637636096,2.701000213623047,0.707623302936554,0.20589607954025269,0.4091325104236603,0.004507050383836031,0.04758530482649803,-0.9988570213317871,-0.14119528234004974,-0.15114670991897583,-0.06358194351196289,0.9727258866827668,-0.023677199629154395,-0.003299323950767259,0.23072251619159462,-0.047603283366475097,0.004512177307620273,0.4658833314862733
1773063226647673088,2.7110371589660645,0.7679105997085571,0.21331138908863068,0.5739645957946777,0.00694775627925992,0.040100861340761185,-0.9991714954376221,-0.13564038276672363,-0.10658340156078339,-0.14281153678894043,0.9722325409744333,-0.020311960222857237,-0.0012974817606161105,0.23313023354335002,-0.040111617195571755,0.0069534051322203815,0.4708295902060515
1773063226657711104,2.7210750579833984,0.9204434752464294,0.3431670069694519,0.6933022737503052,0.009827112779021263,0.031742170453071594,-0.999447762966156,-0.08017013221979141,0.04558936506509781,-0.21634197235107422,0.9715601285136887,-0.01658492080163374,0.001025201466423711,0.2362092267391655,-0.03174750428373186,0.009832225264002065,0.47714886433526227
1773063226667748096,2.731112241744995,1.2577298879623413,0.5402616858482361,0.7335668802261353,0.014431936666369438,0.020749012008309364,-0.9996805191040039,-0.05956743657588959,0.1809416562318802,-0.2695760130882263,0.9707720117143086,-0.011802620595604836,0.004519319376764365,0.23967046220401764,-0.020750501855067587,0.014435545579284809,0.4842420184388986
1773063226677786112,2.741150140762329,1.6418530941009521,0.7870914340019226,0.7487186789512634,0.021224763244390488,0.00613653939217329,-0.9997559189796448,-0.10000589489936829,0.24200189113616943,-0.2956237196922302,0.9699115640190382,-0.005557630485245671,0.009548013777726927,0.24320664755922963,-0.0061365778236218485,0.02122675695920781,0.49143652513096714
1773063226687823104,2.7511870861053467,2.1418638229370117,0.8868324160575867,0.7898296117782593,0.02977907657623291,-0.013079032301902771,-0.9994709491729736,-0.1621185541152954,0.23189006745815277,-0.27060961723327637,0.968931786717875,0.0026624208177035156,0.01604509648735551,0.24679264664456418,0.013079404889605316,0.029786027805226864,0.49861081097295235
1773063226697861120,2.7612252235412598,2.3012399673461914,0.9946021437644958,0.8874865770339966,0.03899182006716728,-0.035853929817676544,-0.9985960721969604,-0.18454541265964508,0.20237308740615845,-0.25932323932647705,0.9677057632045709,0.012469421352114308,0.02337675892934473,0.25068632318336337,0.03586161547725029,0.039026814315151086,0.5062602392164525
1773063226707898112,2.7712621688842773,2.3398642539978027,1.1824074983596802,0.9800548553466797,0.04930596426129341,-0.059567492455244064,-0.997005820274353,-0.1935778111219406,0.21665672957897186,-0.2182956337928772,0.9661660185984893,0.022523193212828103,0.03146089564909508,0.25500233687267876,0.059602775096945955,0.049413778740426864,0.5146221825271177
1773063226717936128,2.7813000679016113,2.3001487255096436,1.4054014682769775,1.0324655771255493,0.061589691787958145,-0.08344654738903046,-0.994607150554657,-0.21770235896110535,0.22436147928237915,-0.17819863557815552,0.9643073578662779,0.032325529259522215,0.04063846593813127,0.2596438994228397,0.08354369994259751,0.061844667465319976,0.523447675457014
1773063226727972864,2.791337013244629,2.2971575260162354,1.4471358060836792,1.0663268566131592,0.07492440193891525,-0.10695488005876541,-0.9914368391036987,-0.24083320796489716,0.20752555131912231,-0.16040337085723877,0.9621687256637043,0.04172495909906582,0.05040449048097394,0.26448018193798173,0.107159851624146,0.0754281575937508,0.5324606089546057
1773063226738011136,2.801375150680542,2.475916862487793,1.5152053833007812,1.0032960176467896,0.0881946012377739,-0.13146215677261353,-0.9873902201652527,-0.2425220012664795,0.21292883157730103,-0.19560843706130981,0.9598103737184835,0.05154414097327153,0.06039950673760719,0.2691823079164876,0.13184379658123727,0.08908451317007524,0.5409735828406809
1773063226748048128,2.8114120960235596,2.8335013389587402,1.5922905206680298,0.8229773044586182,0.10236146301031113,-0.15833152830600739,-0.9820657968521118,-0.23824098706245422,0.2616182863712311,-0.2664692997932434,0.9572890156450893,0.06236185969950623,0.07126074055684198,0.27318606674303125,0.15900063762962538,0.10385574560160693,0.5476899390898581
1773063226758086144,2.8214502334594727,3.395928144454956,1.490619421005249,0.6371942758560181,0.11632104218006134,-0.18972232937812805,-0.9749230146408081,-0.22403284907341003,0.33362796902656555,-0.3111335039138794,0.9546159674217317,0.0754503887074046,0.08273899980143237,0.27598861425776494,0.19087933792660028,0.11875168119428448,0.551490259399862
1773063226768123136,2.8314871788024902,3.9136111736297607,1.4532026052474976,0.4885976314544678,0.1293094903230667,-0.22603382170200348,-0.9654987454414368,-0.1584080010652542,0.4063164293766022,-0.28839224576950073,0.9516573765176303,0.09117383080585784,0.09454085655247005,0.27766476199880447,0.22800419870543456,0.13313797888217357,0.5525117781014648
1773063226778161152,2.841525077819824,4.284737586975098,1.5657190084457397,0.3590068817138672,0.14289511740207672,-0.26624953746795654,-0.953253448009491,-0.09243430197238922,0.45046892762184143,-0.14846163988113403,0.9482377819160674,0.10889253789083035,0.10731114196006952,0.27833787740112315,0.2695000313554411,0.1487946376290379,0.5508153218002254
1773063226788197888,2.851562023162842,4.534389495849609,1.4468613862991333,0.33303600549697876,0.15623627603054047,-0.30856263637542725,-0.9382852911949158,-0.07251130044460297,0.45021000504493713,-0.08647966384887695,0.9442839579087616,0.1278886368239362,0.12042358442323708,0.27833531603940287,0.31368157558331744,0.1649987112509703,0.547130894911955
1773063226798236160,2.861600160598755,4.5407915115356445,1.1588680744171143,0.14255593717098236,0.16779564321041107,-0.3516787886619568,-0.9209596514701843,-0.015894398093223572,0.4312686324119568,-0.030593693256378174,0.9399190026036417,0.14783154219151473,0.13291356073979488,0.27754673273702474,0.3593638597733822,0.18021970483044567,0.5414352489330271
1773063226808273152,2.8716371059417725,3.9631288051605225,1.0387104749679565,-0.17577891051769257,0.17748425900936127,-0.3908078372478485,-0.9031990766525269,-0.009134039282798767,0.350112646818161,0.09292685985565186,0.9358342613662134,0.16648927052310702,0.14381161160055098,0.27534327137554376,0.40150907252570284,0.1940339393272894,0.5326912900200269
1773063226818311168,2.8816752433776855,3.1749444007873535,1.1020437479019165,-0.4204312562942505,0.18855750560760498,-0.42234936356544495,-0.8866042494773865,0.01243126392364502,0.20829910039901733,0.4059829115867615,0.932326712873995,0.18151680179626772,0.154108791940075,0.2721565792087763,0.43603564384315774,0.2095516841294085,0.5214528832596181
1773063226828348160,2.891712188720703,2.492278575897217,0.880424439907074,-0.3066157400608063,0.19902142882347107,-0.4463822543621063,-0.8724295496940613,0.09983721375465393,0.07466292381286621,0.5273826122283936,0.9294254555728428,0.19297608668922758,0.16292774206011276,0.26904099819537175,0.46271836259932037,0.2242851537915118,0.5104906197637572
1773063226838386176,2.901750087738037,2.0067193508148193,0.6994345188140869,0.06570282578468323,0.2063797265291214,-0.46565482020378113,-0.8605655431747437,0.1786452978849411,-0.03170540928840637,0.42324864864349365,0.9267123327686156,0.20227622603046663,0.16971024946446142,0.2673706128279595,0.48437439748721145,0.23537357113795554,0.5033754743171033
1773063226848422912,2.9117870330810547,1.5684465169906616,0.513365626335144,0.25056853890419006,0.21070672571659088,-0.481319785118103,-0.850843071937561,0.2577838897705078,-0.06917151808738708,0.27906572818756104,0.9241038110111418,0.20988581103750098,0.17471805465258006,0.2673084775905544,0.5021597638991117,0.24276062259832482,0.5006003996328798
1773063226858461184,2.9218251705169678,1.2997426986694336,0.37463808059692383,0.08662861585617065,0.21354596316814423,-0.49377384781837463,-0.842962384223938,0.27276694774627686,-0.031509965658187866,0.282812237739563,0.9219502907316345,0.21603164620870433,0.1784632818471006,0.2673742275190042,0.516424225656478,0.24810842504204605,0.4986903724946388
1773063226868498176,2.9318621158599854,1.298043131828308,0.26359254121780396,-0.13258415460586548,0.2163720577955246,-0.5045033097267151,-0.8358585238456726,0.19614927470684052,-0.004514575004577637,0.22150921821594238,0.9202958637906653,0.22150098308317623,0.1816811534101921,0.266429452256924,0.5288065884074019,0.25330186813544553,0.494678603143378
1773063226878535936,2.9419000148773193,1.4377951622009277,0.220498189330101,-0.22962722182273865,0.21929225325584412,-0.5155410170555115,-0.8283286094665527,0.1459268182516098,-0.009178221225738525,0.11516344547271729,0.9187944755796623,0.2273469457723533,0.18479460825205954,0.26453900819126813,0.5416389012887695,0.25880337956946753,0.4884480627417847
1773063226888573184,2.951937198638916,1.3731637001037598,0.37919917702674866,-0.2239016890525818,0.2229163944721222,-0.5267663598060608,-0.8202593922615051,0.140242800116539,-0.023404479026794434,0.05410033464431763,0.9171878586827698,0.23328129159155434,0.18828208820416795,0.2624807646266566,0.5547918588860492,0.2653545808683743,0.4814940356810418
1773063226898610944,2.96197509765625,1.1676465272903442,0.4646799564361572,-0.15131163597106934,0.2274886816740036,-0.5367851257324219,-0.8124719262123108,0.1494339257478714,-0.045536041259765625,0.06782776117324829,0.9155154310548833,0.2383947588373218,0.19217692524555777,0.2608975279812488,0.5666221143123101,0.27300474528588786,0.47529102624576175
1773063226908647936,2.9720120429992676,0.856104850769043,0.4402843415737152,-0.08187157660722733,0.23179683089256287,-0.5448054671287537,-0.8058891296386719,0.17398014664649963,-0.09479719400405884,0.043926239013671875,0.9139915815938412,0.24237167869103396,0.19573299844364508,0.2599309239176452,0.5761571123052751,0.2800686874984473,0.47066303426900763
1773063226918686208,2.9820501804351807,0.4696829319000244,0.4384833872318268,-0.14877192676067352,0.2359059900045395,-0.5498784184455872,-0.8012378215789795,0.19826757907867432,-0.16421759128570557,-0.021317660808563232,0.9128896601984748,0.24472129845146465,0.19872740726975066,0.25932846316541686,0.5822186833747811,0.28633608362177204,0.467235684946332
1773063226928723200,2.9920871257781982,0.09999169409275055,0.4522024095058441,-0.3209977447986603,0.24075494706630707,-0.5516181588172913,-0.7985953092575073,0.18340888619422913,-0.24737781286239624,-0.11131680011749268,0.9123926493982608,0.24521922247651087,0.20141965753570898,0.25852924520561393,0.5843030303325787,0.2928076512978979,0.46358998200990104
1773063226938760960,3.0021250247955322,-0.3212132453918457,0.5545080304145813,-0.5459837317466736,0.24711230397224426,-0.5497297644615173,-0.797955334186554,0.15402601659297943,-0.34104782342910767,-0.20395201444625854,0.9125691380661504,0.2436591195005985,0.2040896004601362,0.25728453045772065,0.582040718620327,0.3003154016280475,0.4590309815208752
1773063226948798208,3.012162208557129,-0.7687857151031494,0.6877521276473999,-0.850867509841919,0.2559448182582855,-0.5435611009597778,-0.799395740032196,0.11542356014251709,-0.44214141368865967,-0.2643249034881592,0.913483710814663,0.23961249031928242,0.20709411042479678,0.2554319294970208,0.5746739105945011,0.3098597425473433,0.4530775286192584
1773063226958835968,3.022200107574463,-1.1601027250289917,0.8213054537773132,-1.194988489151001,0.26753199100494385,-0.5331007242202759,-0.8026396036148071,0.04920995235443115,-0.5958512425422668,-0.30729997158050537,0.9151489549401978,0.23314682788160984,0.2105297323011528,0.2526308029102081,0.562261307346576,0.32173425363717106,0.4450409651312602
1773063226968872960,3.0322370529174805,-1.5288662910461426,1.0214508771896362,-1.4985401630401611,0.28210628032684326,-0.5184938907623291,-0.807205080986023,-0.01960936188697815,-0.7890011668205261,-0.3443451523780823,0.9174118585310966,0.22435333035591593,0.21462301067301948,0.2489134263209618,0.5450886663085536,0.33621617581797736,0.43508941575621324
1773063226978911232,3.0422751903533936,-1.9174346923828125,1.1879141330718994,-1.7674485445022583,0.29945263266563416,-0.49977201223373413,-0.812745988368988,-0.07511794567108154,-0.9744405746459961,-0.3663921356201172,0.9201136748573249,0.2132902424638508,0.21939526709568755,0.24446627907551433,0.5233355548154313,0.3530119442629704,0.4239221694590596
1773063226988948224,3.052312135696411,-2.3538243770599365,1.3147865533828735,-2.0426883697509766,0.31906744837760925,-0.47634032368659973,-0.8193264603614807,-0.11743780970573425,-1.1099634170532227,-0.3789920210838318,0.9232447690644123,0.1997518919787112,0.2245794759275355,0.23933742824886195,0.4964877825881248,0.37135819120286634,0.4121489369998552
1773063226998985984,3.062350034713745,-2.6913998126983643,1.423393964767456,-2.280076742172241,0.34046629071235657,-0.44822144508361816,-0.8265472054481506,-0.15620115399360657,-1.1824395656585693,-0.38648074865341187,0.9266883377934653,0.18387835617288903,0.23003292032864353,0.23350046499894328,0.46477473594504726,0.39073460283256867,0.40007082625064044
1773063227009023232,3.072387218475342,-2.889908790588379,1.5495822429656982,-2.4369330406188965,0.363066703081131,-0.4166320562362671,-0.833426833152771,-0.19166472554206848,-1.185723900794983,-0.4230581521987915,0.9301408215924971,0.16640558400444622,0.23578754651452183,0.22704931569705183,0.42973735794223056,0.4108407657557177,0.3879588861249936
1773063227019060992,3.082425117492676,-3.0410397052764893,1.662725806236267,-2.5198042392730713,0.38655927777290344,-0.3822256922721863,-0.8393303751945496,-0.22757795453071594,-1.1089088916778564,-0.47362738847732544,0.9333515210939894,0.14766375841017595,0.24193023476796646,0.22027282144974356,0.39220368424589763,0.4315981803652674,0.3764823147272633
1773063227029097984,3.0924620628356934,-3.054067611694336,1.7709622383117676,-2.517662286758423,0.41029757261276245,-0.34644272923469543,-0.8435836434364319,-0.28564852476119995,-0.9660420417785645,-0.5027298331260681,0.9360877609080204,0.12841888807857887,0.2484285978174023,0.21338126710244024,0.35377631013506516,0.45268791058116514,0.36595593312918245
1773063227039136256,3.1025002002716064,-3.0275943279266357,1.9469342231750488,-2.5142197608947754,0.4342465400695801,-0.30991601943969727,-0.8458026051521301,-0.35059788823127747,-0.7957663536071777,-0.5195690989494324,0.9382188376642397,0.10894575871978791,0.2554007230924121,0.20651096707759303,0.3151047094188913,0.4743208162733197,0.3565472221141662
1773063227049172992,3.112537145614624,-2.84057354927063,2.277005434036255,-2.6312453746795654,0.45962223410606384,-0.27346906065940857,-0.8449627757072449,-0.41940006613731384,-0.6025227308273315,-0.4494860768318176,0.9395491512816492,0.08960903389564844,0.2636073464663294,0.1993208408824891,0.2769977298990096,0.49819074423612153,0.3472052040110026
1773063227059211008,3.122575044631958,-2.5052711963653564,2.5486996173858643,-2.8808465003967285,0.4871477484703064,-0.23766963183879852,-0.8403571844100952,-0.4869036078453064,-0.4332440495491028,-0.400029718875885,0.940067456054807,0.07086528049404386,0.27349498405880956,0.19092369835634215,0.23996603581784462,0.525352751595703,0.33592790731879296
1773063227069249280,3.132613182067871,-2.065704822540283,2.827949047088623,-3.15562105178833,0.5163480639457703,-0.20326478779315948,-0.8319063186645508,-0.5063688158988953,-0.3072027266025543,-0.34112828969955444,0.939835960300428,0.05334250305535837,0.2849586257510813,0.1807251502251745,0.20469116924763517,0.5554871559196563,0.3214028891633892
1773063227079286016,3.1426501274108887,-1.6516501903533936,3.1191914081573486,-3.478921413421631,0.5472270846366882,-0.170177161693573,-0.8195012211799622,-0.44699209928512573,-0.2234232872724533,-0.27638500928878784,0.9388093667691746,0.03713302798406713,0.2981116022594075,0.16848639391266887,0.17100945550918575,0.5887565904052126,0.303192610642348
1773063227089324032,3.1526880264282227,-1.4983842372894287,3.413705825805664,-3.8309175968170166,0.5794440507888794,-0.13694007694721222,-0.8034251928329468,-0.3729315996170044,-0.21318809688091278,-0.19698679447174072,0.9369928660439943,0.02162573807120189,0.31276147704260093,0.15413303797538472,0.1373717271244201,0.6248242328982411,0.28164274289968555
1773063227099361280,3.1627252101898193,-1.7718126773834229,3.6734700202941895,-4.1811747550964355,0.6125019192695618,-0.10008931905031204,-0.7841068506240845,-0.30552560091018677,-0.29053565859794617,-0.08877217769622803,0.9343294459532658,0.004992279283472435,0.3285142909502227,0.13813775696551434,0.10025719319248351,0.6631383731771451,0.2590252975639769
1773063227109399040,3.1727631092071533,-2.4020094871520996,3.842332124710083,-4.395809650421143,0.6452320218086243,-0.05694036930799484,-0.7618618011474609,-0.26562386751174927,-0.46704643964767456,0.05443382263183594,0.9306930503905738,-0.014386145683762069,0.3447638716485809,0.12141431746576131,0.05697118241500941,0.702700212364393,0.23855824628653902
1773063227119436032,3.182800054550171,-3.4456076622009277,3.890174627304077,-4.366439342498779,0.6757765412330627,-0.005988950375467539,-0.7370821833610535,-0.21824181079864502,-0.7017136812210083,0.18860507011413574,0.9259581292715555,-0.03787312300270675,0.36058912975603313,0.10555892583915905,0.005988985964179132,0.7420341579058285,0.2246893785912074
1773063227129474048,3.192838191986084,-4.8404541015625,3.7682442665100098,-4.101622581481934,0.7026966214179993,0.0533050037920475,-0.7094900012016296,-0.13780099153518677,-0.8971160650253296,0.30664271116256714,0.9198842488508511,-0.06671032200138938,0.3752395650983348,0.09250962672156421,-0.05333028070756118,0.7805876617431872,0.22240353783172448
1773063227139511040,3.2028751373291016,-6.397158622741699,3.5053720474243164,-3.7127621173858643,0.7246986031532288,0.12045801430940628,-0.6784554123878479,-0.058118462562561035,-0.9588369131088257,0.3715859055519104,0.9122564217016952,-0.10163493593227851,0.38786935353183083,0.08376046567685237,-0.12075123959890717,0.8183428408971599,0.2355352125378926
1773063227149549056,3.2129130363464355,-7.716185092926025,3.203536033630371,-3.296373128890991,0.741408109664917,0.19323892891407013,-0.6426295042037964,-0.017622768878936768,-0.8300340175628662,0.4108179807662964,0.9027483554941829,-0.1421949292125143,0.39807770887035515,0.07975018847180959,-0.1944622334963554,0.8566472779496394,0.2652378736195962
1773063227159586304,3.2229502201080322,-8.595904350280762,3.2009284496307373,-2.8959767818450928,0.7541183233261108,0.2674739360809326,-0.5998026728630066,-0.04296720027923584,-0.5694148540496826,0.3879496455192566,0.8908135378115978,-0.18650732459336736,0.40658785351215304,0.07970302425392285,-0.27077049302815925,0.898885280297984,0.3096953595186763
1773063227169624064,3.232988119125366,-9.114893913269043,3.4618475437164307,-2.505236864089966,0.7650180459022522,0.3392857015132904,-0.5473870038986206,-0.13817179203033447,-0.2682560384273529,0.3866509199142456,0.875716859792197,-0.23282179521202687,0.4148499874512722,0.08254339289630924,-0.3461574431180766,0.9497289156544191,0.3672374682424581
1773063227179661056,3.243025064468384,-9.191518783569336,3.8573482036590576,-2.158872127532959,0.7753251194953918,0.4048401713371277,-0.48474276065826416,-0.27140361070632935,0.016302436590194702,0.44078218936920166,0.8571997269149307,-0.2791942737178793,0.42388580064282155,0.08706394615244209,-0.416804028512851,1.0120443749013586,0.43575138198131114
1773063227189699072,3.253063201904297,-8.813148498535156,4.212894916534424,-2.0364420413970947,0.784466028213501,0.46194300055503845,-0.4137896001338959,-0.412212610244751,0.19488686323165894,0.4149492383003235,0.8357740773707509,-0.3238650730038901,0.43383939426590373,0.0915235849841434,-0.48018469571269085,1.085407712864504,0.5113283585706836
1773063227199736064,3.2631001472473145,-8.060125350952148,4.46360445022583,-2.0266475677490234,0.7909411191940308,0.5099554657936096,-0.3381679356098175,-0.5351733565330505,0.22036069631576538,0.2691066265106201,0.8125341395295463,-0.365318229706127,0.44436316322958913,0.09419275845418446,-0.535133037212989,1.1667666638439629,0.5888188270189443
1773063227209774080,3.2731380462646484,-7.504545211791992,4.607015609741211,-1.9277362823486328,0.7940419316291809,0.5490831136703491,-0.2607777714729309,-0.5388387441635132,0.1772657036781311,0.1374715268611908,0.7882712174083756,-0.40310702009396976,0.45509981828611484,0.09495960833855986,-0.5812667931655439,1.2534759581935828,0.6663655397184222
1773063227219811328,3.283175230026245,-7.28272819519043,4.5683722496032715,-1.7532333135604858,0.7938055992126465,0.5802273154258728,-0.18223266303539276,-0.42291033267974854,0.18046903610229492,0.22170718014240265,0.7629310168002709,-0.4383230477760249,0.4655712313502372,0.09514461438454842,-0.6190077533931693,1.345137913925917,0.7469083927391339
1773063227229849088,3.293213129043579,-7.094607830047607,4.464243412017822,-1.474307656288147,0.790656328201294,0.6034446358680725,-0.10352465510368347,-0.27789992094039917,0.250116765499115,0.3258909583091736,0.7366162842057971,-0.4713754796959348,0.47543961904097903,0.09570202085928561,-0.6478139021736675,1.4406018865703918,0.8314549597449679
1773063227239886080,3.3032500743865967,-6.834542751312256,4.323739528656006,-1.0321754217147827,0.7857707738876343,0.6179662942886353,-0.0261123925447464,-0.12178462743759155,0.31051576137542725,0.3344162106513977,0.7096585374332935,-0.50179093796076,0.48492232196626767,0.09716420160805601,-0.6661532904219488,1.5375769862828867,0.9180299171027704
1773063227249924096,3.3132882118225098,-6.764106273651123,4.170990943908691,-0.5505576133728027,0.7803654074668884,0.6233514547348022,0.049623455852270126,0.0067438483238220215,0.3499760627746582,0.3988475799560547,0.6820329631268016,-0.5295350070692326,0.49437273886103195,0.10009574639788169,-0.6730214710297419,1.6343008479457086,1.0050646690057423
1773063227259960320,3.32332444190979,-6.626277923583984,4.0077128410339355,-0.2206501066684723,0.7744896411895752,0.6204175353050232,0.123482346534729,0.023407697677612305,0.3730669617652893,0.471396803855896,0.6537061395012503,-0.555071890876624,0.5036232419221447,0.10453278408888358,-0.6692749661667574,1.7289026498130395,1.0911185167287762
1773063227269998592,3.333362579345703,-5.842742443084717,3.9325854778289795,-0.1087866872549057,0.7672306895256042,0.611626923084259,0.1930532455444336,-0.06242728233337402,0.3190828561782837,0.23492524027824402,0.6258072893794063,-0.5777821434616363,0.5125372316771631,0.10880538145302023,-0.6581153891465304,1.8173023662954735,1.170011939950155
1773063227280035584,3.3433995246887207,-4.625777244567871,3.883286476135254,-0.05954337492585182,0.7578616142272949,0.600600004196167,0.25480541586875916,-0.18028581142425537,0.20469796657562256,-0.17993050813674927,0.6003143991710764,-0.5962550288077231,0.5214236799011279,0.11054442486162679,-0.6442513163367497,1.895139297665939,1.2336071565513698
1773063227290073344,3.3534374237060547,-3.8420770168304443,3.7963836193084717,0.16816942393779755,0.7472676634788513,0.588401734828949,0.30882787704467773,-0.26277053356170654,0.13292700052261353,-0.36243200302124023,0.5774567864808651,-0.6106684742609076,0.5305638020682021,0.11013528979111648,-0.6290807295647219,1.962694984215364,1.2824783695978623
1773063227300110336,3.3634743690490723,-3.5041942596435547,3.698547601699829,0.4070274233818054,0.7364084720611572,0.5740025043487549,0.35808372497558594,-0.2751046419143677,0.13208281993865967,-0.22925367951393127,0.5559176452492948,-0.6223199212187731,0.5401479235802081,0.10915041192750694,-0.6113854773407033,2.0233891604283296,1.322030603052505
1773063227310148352,3.3735125064849854,-3.366746187210083,3.4927284717559814,0.5639704465866089,0.7254098653793335,0.5573123097419739,0.4039596915245056,-0.279502272605896,0.10592615604400635,-0.019194066524505615,0.535018639780024,-0.6323218034847923,0.549680798059842,0.10851348974416059,-0.5911453059615713,2.078899451699281,1.356234021430141
1773063227320185344,3.383549451828003,-3.2678074836730957,3.1556859016418457,0.7208240628242493,0.7147298455238342,0.5384709239006042,0.44632983207702637,-0.273445725440979,0.04909926652908325,0.13843274116516113,0.5147741769058316,-0.6411228451698238,0.5586827473737842,0.10882389606073051,-0.5686214139461594,2.129016908845149,1.3867183544254318
