time,seconds_elapsed,rotationRateX,rotationRateY,rotationRateZ,gravityX,gravityY,gravityZ,accelerationX,accelerationY,accelerationZ,quaternionW,quaternionX,quaternionY,quaternionZ,pitch,roll,yaw
1773063232058886656,0.03426647186279297,-0.2857399880886078,-0.053857963532209396,-0.08267058432102203,0.028489219024777412,-0.08665750920772552,-0.9958307147026062,0.001494305208325386,-0.008847251534461975,0.0292169451713562,0.1326380615952032,0.01989227208953426,-0.04109662753251248,-0.9901124409424242,0.0867663368244665,0.028600693670468184,-2.876494779555212
1773063232068922624,0.04430246353149414,-0.3642381429672241,-0.04619944468140602,-0.06229119002819061,0.028027735650539398,-0.08321522921323776,-0.9961373805999756,0.0003688707947731018,-0.10596323758363724,0.043363332748413086,0.13231834461866332,0.019419944897403743,-0.039423062812808204,-0.9902325788181864,0.08331157387365734,0.028128994532611765,-2.8770919060633195
1773063232078959360,0.05433940887451172,-0.2380112260580063,-0.033638112246990204,-0.06017184630036354,0.027668546885252,-0.08008560538291931,-0.9964039325714111,-0.024479461833834648,-0.09500899910926819,0.022465944290161133,0.1320333029534192,0.01902179188814048,-0.03789746403462747,-0.9903378886365197,0.08017146465637606,0.02776127153251279,-2.877626393329102
1773063232088995584,0.06437540054321289,-0.0545172244310379,-0.006657860241830349,-0.026600170880556107,0.02751062624156475,-0.07863257825374603,-0.9965239763259888,-0.0298909991979599,-0.03087974339723587,-0.014248669147491455,0.1318269907628151,0.018838893803969824,-0.03718999971098541,-0.9903956798562691,0.0787138377047595,0.027599577067526845,-2.8780244042221925
1773063232099031552,0.07441139221191406,0.019656604155898094,-0.008489316329360008,-0.010346099734306335,0.027480995282530785,-0.0785299688577652,-0.9965329170227051,-0.008590612560510635,0.026726379990577698,-0.03435087203979492,0.13173590608691638,0.01881394933340853,-0.03714270714318314,-0.9904101131083247,0.07861091086160556,0.027569618410926797,-2.878206381881619
1773063232109068288,0.08444833755493164,-0.011969499289989471,-0.030838429927825928,-0.01362800132483244,0.027295371517539024,-0.07861560583114624,-0.9965312480926514,0.015307167544960976,0.04176563024520874,-0.026707887649536133,0.13167331197210222,0.018725177960171865,-0.037198633558401695,-0.9904179930415496,0.07869680992242048,0.027383535292895573,-2.8783265095024175
1773063232119104512,0.09448432922363281,-0.09385477751493454,-0.052727483212947845,-0.007182885892689228,0.026886997744441032,-0.07808037102222443,-0.996584415435791,0.012770593166351318,0.007355891168117523,-0.004941403865814209,0.13160119403868326,0.018484294437524328,-0.03696093966915004,-0.9904409962609994,0.07815992544262412,0.026972604363675007,-2.878452241989873
1773063232129140736,0.10452055931091309,-0.10647689551115036,-0.054222483187913895,0.019963381811976433,0.0263155996799469,-0.07698439061641693,-0.9966849684715271,-0.005319505929946899,-0.03135301172733307,0.0147666335105896,0.1316402088780637,0.01812946065297913,-0.03645335147594715,-0.9904611585341792,0.07706063553171955,0.02639699437942491,-2.878343089713535
1773063232139177472,0.11455750465393066,-0.026039578020572662,-0.03114992007613182,0.05202651023864746,0.02585793472826481,-0.0763113871216774,-0.996748685836792,-0.015451442450284958,-0.0343911275267601,0.019896268844604492,0.13180785704949483,0.01786382128870878,-0.03614611942745331,-0.9904549363385101,0.07638564925327374,0.025936464041019104,-2.877982275250993
1773063232149213440,0.12459349632263184,0.051645029336214066,-0.010412318632006645,0.06971029937267303,0.025618573650717735,-0.07651222497224808,-0.9967394471168518,-0.013854047283530235,-0.009898290038108826,0.006596684455871582,0.13211786682882115,0.017769747602233047,-0.03625605928722731,-0.990411350978501,0.07658707693475048,0.02569671891689372,-2.8773491168368577
1773063232159249664,0.134629487991333,0.050137680023908615,-0.010326297953724861,0.0552341528236866,0.025487640872597694,-0.07709057629108429,-0.996698260307312,-0.004033783450722694,0.01822216808795929,-0.006322979927062988,0.1324286754259991,0.017754774151166563,-0.03654637410429231,-0.9903594486493206,0.07716713885635794,0.02556650122234076,-2.8767211535002657
1773063232169286400,0.14466643333435059,-0.001598550472408533,-0.01928747072815895,0.04731883853673935,0.02528482861816883,-0.07735948264598846,-0.9966825842857361,0.0018147826194763184,0.015347763895988464,0.000756680965423584,0.13266468882850294,0.017680846268955195,-0.03668912344901226,-0.9903239491592835,0.07743685122703545,0.025363547729856398,-2.876239097236365
1773063232179322368,0.15470242500305176,-0.059911392629146576,-0.015762776136398315,0.041464678943157196,0.025070004165172577,-0.07705104351043701,-0.9967119097709656,-0.0014341380447149277,-0.008382916450500488,0.015083491802215576,0.1329018704218841,0.017562391311618193,-0.03654595830623702,-0.990299537654887,0.07712748518500082,0.025147405564251255,-2.875749783450685
1773063232189358592,0.16473841667175293,-0.08490969240665436,-0.014638256281614304,0.018900247290730476,0.024881698191165924,-0.0763300210237503,-0.9967721104621887,-0.006937362253665924,-0.017404720187187195,0.02167445421218872,0.13307036720940557,0.01742683151886705,-0.03619741715519003,-0.9902920507779318,0.07640433358507573,0.024957091005779277,-2.875397110583906
1773063232199395328,0.1747753620147705,-0.07685069739818573,-0.013637440279126167,-0.014368493109941483,0.024729376658797264,-0.07550271600484848,-0.9968389272689819,-0.010508181527256966,-0.00730673223733902,0.011411070823669434,0.1330895718627808,0.017296476802669273,-0.03579637205732354,-0.9903064022172116,0.07557463476656427,0.024802708357282863,-2.875346668452535
1773063232209431296,0.18481135368347168,-0.0331219881772995,-0.01014783326536417,-0.0343770906329155,0.024634137749671936,-0.07495016604661942,-0.996882975101471,-0.004568830132484436,0.004652924835681915,-0.00023311376571655273,0.13296662193897102,0.017207765428270336,-0.03553046254881029,-0.9903339408466382,0.0750205132819558,0.024706134822253797,-2.8755873514187127
1773063232219467520,0.19484734535217285,0.02096894197165966,-0.004062510095536709,-0.026722898706793785,0.02458416484296322,-0.07486139982938766,-0.9968908429145813,0.0048042647540569305,0.02130305767059326,-0.009761929512023926,0.13281610344035905,0.017171631601624496,-0.03549230978736568,-0.9903562371739147,0.07493149947289526,0.02465584089424487,-2.8758889488373707
1773063232229504512,0.20488452911376953,0.049039192497730255,0.018422426655888557,-0.03203120082616806,0.024673154577612877,-0.07529585808515549,-0.9968559145927429,0.006271667778491974,0.032494962215423584,-0.010285139083862305,0.13266210597270103,0.017239305396832976,-0.0357048369701856,-0.9903679915513313,0.07536719050268163,0.024745920908796983,-2.8762063172188914
1773063232239540480,0.2149205207824707,-0.022816885262727737,0.01097462885081768,-0.05230105295777321,0.024856403470039368,-0.07543379068374634,-0.9968409538269043,-0.005386188626289368,0.026117391884326935,0.0035396218299865723,0.1324669435631146,0.01733238828807406,-0.03576461041266621,-0.9903903754419104,0.07550551228017043,0.024930009001517588,-2.876608130905825
1773063232249576448,0.22495651245117188,-0.06942819058895111,-0.01413624919950962,-0.07969139516353607,0.024898195639252663,-0.07491517812013626,-0.9968790411949158,-0.011790895834565163,0.010095842182636261,0.01715797185897827,0.13214299801901802,0.017306890286878172,-0.03550996648808656,-0.9904431624054902,0.07498542751785067,0.024970953794977442,-2.8772598063035484
1773063232259613440,0.23499345779418945,-0.03473147004842758,-0.025072786957025528,-0.07593261450529099,0.024738730862736702,-0.07430987805128098,-0.9969282746315002,-0.005238000303506851,-0.011307179927825928,0.01893150806427002,0.13174368364360217,0.017173269938275105,-0.035226812146078514,-0.990508810600858,0.07437843511356929,0.02480986278883092,-2.87805583123227
1773063232269649408,0.24502944946289062,0.05239517241716385,-0.004603597801178694,-0.011750872246921062,0.024592190980911255,-0.07437063008546829,-0.9969273805618286,0.006322113797068596,-0.01435922086238861,-0.00035649538040161133,0.1315044237239621,0.017096076738000378,-0.03527075245452794,-0.9905404468475782,0.07443936165003387,0.02466298423237427,-2.878534210262573
1773063232279685376,0.2550654411315918,0.16609829664230347,0.025287188589572906,0.03945132717490196,0.024663127958774567,-0.07550547271966934,-0.9968403577804565,0.005442464724183083,0.012624002993106842,-0.013749241828918457,0.1315892999168775,0.017209545527071348,-0.035828255788203735,-0.9905072012414499,0.07557740326328669,0.024736255113861533,-2.8783738684849753
1773063232289722368,0.2651023864746094,0.1035030409693718,0.02503974922001362,0.0105255376547575,0.02491740882396698,-0.07698164135217667,-0.996721088886261,-0.00933818519115448,0.028123006224632263,-0.013624310493469238,0.13171805040737883,0.017438371943617925,-0.03654248783263525,-0.9904599969974949,0.07705787939493991,0.024994173621013246,-2.8781342419540414
1773063232299758336,0.27513837814331055,-0.0161109808832407,-0.015015260316431522,-0.031335894018411636,0.025007614865899086,-0.0773816928267479,-0.9966878890991211,-0.018278487026691437,0.008823953568935394,0.00028896331787109375,0.13165611306026542,0.01750739635657921,-0.03673635973897661,-0.9904598705086823,0.07745912654029327,0.025085455068080662,-2.878265678160004
1773063232309794304,0.2851743698120117,-0.028819985687732697,-0.04358531907200813,-0.0284719280898571,0.02467915788292885,-0.07706847041845322,-0.9967203140258789,-0.0059108491986989975,-0.027835696935653687,0.02716165781021118,0.13149795997384933,0.0173177888094914,-0.03660513172262677,-0.9904890043315304,0.07714496537247234,0.024755306512169947,-2.8785704436918587
1773063232319831552,0.2952115535736084,0.05454254895448685,0.0019502084469422698,-0.019297871738672256,0.02446829341351986,-0.07716713100671768,-0.9967178702354431,0.01143564097583294,-0.04616966098546982,0.016920506954193115,0.1313892354906308,0.017215671508815124,-0.03666986777270115,-0.9905028927007161,0.07724391935611176,0.02454393567546724,-2.8787829329805343
1773063232329867520,0.30524754524230957,0.15677404403686523,0.032602228224277496,-0.03542202711105347,0.02469099499285221,-0.0782061442732811,-0.996631383895874,0.0033546574413776398,-0.012064844369888306,-0.009380519390106201,0.13124783340540486,0.017389695405720267,-0.037173875998092354,-0.9904996936539824,0.07828608623675873,0.02476938294962856,-2.8790842550754503
1773063232339903488,0.31528353691101074,0.1789962500333786,0.028072722256183624,-0.006656156852841377,0.02501729130744934,-0.08001567423343658,-0.9964796304702759,-0.00927022285759449,0.033751025795936584,-0.02596604824066162,0.13111762953313275,0.017666376728151592,-0.03805378731220358,-0.990478604628266,0.08010130162709206,0.025100400491821252,-2.8793728609297635
1773063232349940480,0.3253204822540283,0.04686572030186653,0.007523405831307173,-0.01340012438595295,0.025224415585398674,-0.08118177950382233,-0.996380090713501,-3.215484321117401e-05,0.030247941613197327,-0.019260168075561523,0.13108108982975702,0.017844863283061167,-0.03862026449483975,-0.9904583616051604,0.08127121270065811,0.025310651388211362,-2.879463336710047
1773063232359976448,0.3353564739227295,-0.04363568127155304,-0.012636191211640835,-0.013840077444911003,0.025183942168951035,-0.0811321958899498,-0.9963851571083069,0.005333637818694115,-0.013609625399112701,0.007127344608306885,0.13099909118847056,0.01781830148236607,-0.03859975130847689,-0.9904705639313145,0.08122147006317193,0.025269928147463008,-2.879627021507926
1773063232370012416,0.34539246559143066,-0.01322225108742714,0.001376363798044622,0.03625797852873802,0.02509395405650139,-0.08079337328672409,-0.9964149594306946,-0.0026330184191465378,-0.04644966870546341,0.02526932954788208,0.13104737894163287,0.017753128195339606,-0.038436424260174795,-0.9904716165792843,0.08088153297790386,0.02517891867553234,-2.87952344300864
1773063232380049408,0.35542941093444824,0.03385524824261665,0.027766425162553787,0.0677567794919014,0.025195594877004623,-0.08092811703681946,-0.9964014291763306,-0.004886146634817123,-0.028156965970993042,0.005953431129455566,0.13131804713935946,0.017822995315042767,-0.03849185125881281,-0.9904324133915549,0.08101671541850243,0.025281203007206,-2.8789818849421693
1773063232390085376,0.3654654026031494,0.04491495341062546,0.008835145272314548,0.05692410469055176,0.02534310333430767,-0.08135957270860672,-0.996362566947937,-0.006178062409162521,0.01095551997423172,-0.008672833442687988,0.13162829891553685,0.017936901389986513,-0.03869093517316299,-0.9903813933484844,0.0814495989529886,0.02543014017960846,-2.8783643204159004
1773063232400121344,0.3755013942718506,0.03999955952167511,-0.016202030703425407,0.08150002360343933,0.025222770869731903,-0.08177855610847473,-0.9963313341140747,-0.003753652796149254,0.014990836381912231,0.00019180774688720703,0.1319673498915952,0.01791832873678509,-0.0389008749403464,-0.9903284595055178,0.08186998341963307,0.02531024024288301,-2.877678032953059
1773063232410157568,0.38553738594055176,0.03479794040322304,-0.011543995700776577,0.13231131434440613,0.02497459389269352,-0.08219889551401138,-0.9963029623031616,0.009693371132016182,-0.00289936363697052,0.0070299506187438965,0.1324944188722544,0.017843989616880926,-0.039116572756814835,-0.9902507901181709,0.08229173977369152,0.02506202037809587,-2.8766066823330476
1773063232420194304,0.39557433128356934,0.04161136969923973,-0.018349170684814453,0.1642327606678009,0.0246986486017704,-0.08259278535842896,-0.9962772727012634,0.01736983098089695,-0.016345202922821045,0.006210744380950928,0.13322389806660836,0.01776236948162621,-0.03931743891898883,-0.9901464424030977,0.08268698023465386,0.024785861925696536,-2.875125104922578
1773063232430230528,0.4056105613708496,0.10152210295200348,-0.03106003813445568,0.2125551998615265,0.024274079129099846,-0.08329877257347107,-0.9962289333343506,0.010973721742630005,-0.02253618836402893,-0.002916574478149414,0.1341483027077518,0.017636233433445857,-0.039679942713212346,-0.9900093846452097,0.08339540559644829,0.02436114471465112,-2.8732455447684213
1773063232440267520,0.4156475067138672,0.21085365116596222,-0.002005751011893153,0.25996506214141846,0.02389170229434967,-0.0849284827709198,-0.9961005449295044,0.01651356928050518,-0.020372413098812103,-0.02964097261428833,0.1353253378702261,0.01760501676620855,-0.040494196853179586,-0.9898168240312563,0.08503091317078046,0.023980632716450935,-2.8708625531641174
1773063232450303488,0.42568349838256836,0.2706925570964813,0.018535776063799858,0.23726405203342438,0.023773010820150375,-0.08746672421693802,-0.9958837628364563,0.031646907329559326,-0.009716503322124481,-0.0440942645072937,0.13655543545924945,0.0177714088974836,-0.041740975929189794,-0.9895930562130125,0.08757863686080697,0.023866739158361287,-2.868387431340198
1773063232460339456,0.43571949005126953,0.24941788613796234,0.0016803635517135262,0.24781203269958496,0.02368254028260708,-0.09014721214771271,-0.9956468343734741,0.03979402035474777,-0.0044877976179122925,-0.05298292636871338,0.1377055284683836,0.01796142318921329,-0.043057758501345855,-0.9893737942848825,0.09026975619915358,0.023781600476686992,-2.866074666405996
1773063232470376448,0.4457564353942871,0.2052357941865921,-0.03019580990076065,0.3526333272457123,0.023268161341547966,-0.09249144047498703,-0.9954415559768677,0.05800015106797218,-0.01355714350938797,-0.050884127616882324,0.13913908153216936,0.017983091654536487,-0.04422467084411513,-0.9891214094639453,0.0926238217176571,0.023370457928025442,-2.8631710648756896
1773063232480412416,0.4557924270629883,0.18339334428310394,-0.05941468104720116,0.51715487241745,0.02241097018122673,-0.09450606256723404,-0.9952719807624817,0.08327139914035797,-0.029883578419685364,-0.055890679359436035,0.1412698495654184,0.01779721975192906,-0.045246648167079566,-0.9887764991390847,0.09464731281229047,0.022513628805486293,-2.8588330076946575
1773063232490448384,0.46582841873168945,0.19683697819709778,-0.0729784294962883,0.6803314685821533,0.021196043118834496,-0.09652190655469894,-0.9951051473617554,0.09486230462789536,-0.027272649109363556,-0.06918013095855713,0.14420447121036048,0.01747635440031971,-0.04628179756909992,-0.9883104536834865,0.09667241147564351,0.02129708465682522,-2.8528475704530765
1773063232500485376,0.47586536407470703,0.2306620478630066,-0.06812268495559692,0.7910329699516296,0.019764576107263565,-0.09883569926023483,-0.9949074387550354,0.09136518090963364,-0.01009678840637207,-0.08356845378875732,0.14784108065729407,0.01711052030498718,-0.047471015047641056,-0.9877229715664518,0.09899732388333111,0.019863129863948396,-2.8454252781592255
1773063232510521344,0.4859013557434082,-0.08949344605207443,-0.03834621608257294,0.8254384398460388,0.01837834157049656,-0.10030510276556015,-0.9947869777679443,0.10561458021402359,0.00023796409368515015,-0.10103821754455566,0.15183975823995963,0.016729254824172344,-0.048235311270046786,-0.9870857147030798,0.10047406837030022,0.01847254829588964,-2.8372615808023744
1773063232520557312,0.4959373474121094,-0.23912902176380157,-0.09363663196563721,0.8373832702636719,0.016840927302837372,-0.09847380965948105,-0.9949971437454224,0.14680957794189453,-0.010153509676456451,-0.10638225078582764,0.15592938720612087,0.01602436280306962,-0.04737778397587763,-0.9865011308046935,0.0986336632046133,0.01692398700255299,-2.82889575160799
1773063232530594560,0.505974531173706,-0.13675324618816376,-0.04638223722577095,0.7964902520179749,0.015467311255633831,-0.09658492356538773,-0.9952045679092407,0.1963246762752533,-0.07329117506742477,-0.08008229732513428,0.16000124544512034,0.015388375654339303,-0.04648568059363002,-0.9859014813720274,0.09673572294347321,0.015540589921893295,-2.8205716678167856
1773063232540630528,0.5160105228424072,-0.30257147550582886,0.009763590060174465,1.2144420146942139,0.014204972423613071,-0.09499480575323105,-0.9953764081001282,0.2480936050415039,-0.17413970828056335,-0.07847613096237183,0.16463183452694233,0.014851162992228882,-0.04573003500358692,-0.9851824893336618,0.0951382635787063,0.014269986644504929,-2.811115955795048
1773063232550666496,0.5260465145111084,-0.5001391768455505,-0.13565818965435028,1.6939752101898193,0.012409592978656292,-0.0909060686826706,-0.9957821369171143,0.28689154982566833,-0.2010708451271057,-0.10095852613449097,0.17197791059925446,0.013952047269056968,-0.043752325192092795,-0.9840297903027242,0.09103174521430682,0.012461511792601122,-2.7961171746617173
1773063232560703488,0.536083459854126,-0.5147039890289307,-0.21272261440753937,1.7455116510391235,0.00883028469979763,-0.08616700768470764,-0.996241569519043,0.3326766788959503,-0.16664060950279236,-0.06956958770751953,0.180519811971935,0.01213862446028903,-0.04161570576678166,-0.9826156145374736,0.08627399497787687,0.008863366181331168,-2.778600031727754
1773063232570739456,0.5461194515228271,-0.7568461298942566,-0.2061222642660141,1.9325873851776123,0.00533512607216835,-0.07998590171337128,-0.9967817068099976,0.28572627902030945,-0.23802252113819122,-0.06562674045562744,0.18947371897032694,0.010211099216290853,-0.038792713768962116,-0.9810660526901057,0.08007143372830111,0.005352300378552469,-2.7602439174206133
1773063232580775424,0.5561554431915283,-0.8961118459701538,-0.2714008688926697,2.1723380088806152,0.0014270177343860269,-0.07169018685817719,-0.99742591381073,0.3172527849674225,-0.19956529140472412,-0.10178667306900024,0.19957697331499372,0.007862660314246782,-0.03500306861457492,-0.9792252306029348,0.07175173864381294,0.0014306994875962315,-2.739529263842084
1773063232590812416,0.5661923885345459,-1.0333867073059082,-0.3478296101093292,2.341987133026123,-0.003204564331099391,-0.062090154737234116,-0.9980654120445251,0.4185640513896942,-0.10673308372497559,-0.10482460260391235,0.21065692238911385,0.004979142387847307,-0.030700291563198853,-0.9770652113451194,0.06213011958645921,-0.003210764787357951,-2.7167904942048495
1773063232600848384,0.5762283802032471,-1.3295466899871826,-0.4332909882068634,2.4608640670776367,-0.008459215052425861,-0.05020918697118759,-0.998702883720398,0.497167706489563,-0.12216934561729431,-0.17697149515151978,0.22237894036148004,0.0014613880029956986,-0.025424694668155418,-0.9746276871731848,0.05023030643404465,-0.008469999056853719,-2.6927242640747897
1773063232610884352,0.5862643718719482,-1.6954867839813232,-0.5309720635414124,2.5712454319000244,-0.014348579570651054,-0.034760527312755585,-0.9992926716804504,0.5329185128211975,-0.11512655764818192,-0.17397087812423706,0.23460701957525223,-0.002896244739184213,-0.01858173529724303,-0.9719083040978855,0.03476753095379221,-0.014357749507879826,-2.6676289958787796
1773063232620921600,0.5963015556335449,-2.106092691421509,-0.6587915420532227,2.6927990913391113,-0.02096077799797058,-0.015288976952433586,-0.9996634125709534,0.563410758972168,-0.14131197333335876,-0.15072721242904663,0.24732961402479725,-0.00826455103903404,-0.010000115375789195,-0.9688444901102037,0.015289572630351498,-0.02096476478780383,-2.641542784478073
1773063232630957568,0.6063375473022461,-2.555239677429199,-0.8315159678459167,2.811842679977417,-0.028511418029665947,0.008764940313994884,-0.9995550513267517,0.5857318639755249,-0.21124906837940216,-0.11462646722793579,0.2605413709086229,-0.01490684340531674,0.0005165196286478705,-0.9653474575463947,-0.008765052884508687,-0.02851637723011202,-2.6144917921670854
1773063232640993536,0.6163735389709473,-2.9609642028808594,-1.0420037508010864,2.8819899559020996,-0.03719048202037811,0.03744068741798401,-0.9986065626144409,0.6023913025856018,-0.257991224527359,-0.09105408191680908,0.2740944435882644,-0.023023540191749955,0.01290876590627003,-0.9613404970244842,-0.03744944068827844,-0.03722517210545598,-2.586795280174568
1773063232651030528,0.6264104843139648,-3.1341471672058105,-1.3285647630691528,2.9073269367218018,-0.047478094696998596,0.06937611848115921,-0.9964601397514343,0.6351703405380249,-0.2525731325149536,-0.07168561220169067,0.28772609579371217,-0.03275186984083274,0.026405518841304716,-0.9567882564520329,-0.06943188855851382,-0.04761075158604807,-2.5590106579516037
1773063232661066496,0.636446475982666,-3.080894947052002,-1.5271047353744507,2.960355281829834,-0.05928421393036842,0.10205366462469101,-0.9930108189582825,0.6714210510253906,-0.2041044533252716,-0.04794377088546753,0.301403460343585,-0.043741802876094464,0.03976504733709628,-0.9516624215364394,-0.10223164671154875,-0.05963070109705099,-2.531208199298034
1773063232671101696,0.6464817523956299,-2.859180450439453,-1.673328161239624,3.0136654376983643,-0.07168243825435638,0.1336800903081894,-0.9884287118911743,0.6992611885070801,-0.11474393308162689,-0.030370116233825684,0.3152678278160762,-0.055296429970409906,0.052229911279923914,-0.9459495164101204,-0.13408147767028833,-0.07239487166101463,-2.503046947082778
1773063232681138944,0.6565189361572266,-2.5351147651672363,-1.5928775072097778,3.1150546073913574,-0.08338923752307892,0.16278128325939178,-0.983132004737854,0.7259215712547302,0.010436490178108215,0.026726365089416504,0.3293892899103402,-0.06655166084162757,0.06328417819876027,-0.9397173583685404,-0.1635088894721715,-0.08461744923767066,-2.474254929026386
1773063232691174912,0.6665549278259277,-2.283942461013794,-1.4023221731185913,3.226189613342285,-0.09245703369379044,0.18918541073799133,-0.9775789380073547,0.7397806644439697,0.13013526797294617,0.07776814699172974,0.3439837213878958,-0.0765268607408126,0.07317220096421514,-0.9329869753008375,-0.19033250881522784,-0.09429707396416635,-2.444144609140759
1773063232701210880,0.6765909194946289,-2.3520700931549072,-1.4453027248382568,3.075730085372925,-0.09972798079252243,0.21461735665798187,-0.9715933799743652,0.760036826133728,0.22143305838108063,0.10587072372436523,0.35841322875747117,-0.08585051766477005,0.08266192194984254,-0.9259247247997199,-0.21630004109984516,-0.10228552776014928,-2.414057760711784
1773063232711247872,0.6866278648376465,-2.5734381675720215,-1.4617048501968384,3.0726370811462402,-0.10707268863916397,0.24176980555057526,-0.9644079804420471,0.7777422666549683,0.22966574132442474,0.1846991777420044,0.371961050778381,-0.09584936134854175,0.09278413197158451,-0.9186125763389247,-0.2441893458787303,-0.11057143402837967,-2.3856995623059016
1773063232721283840,0.6966638565063477,-2.810528039932251,-1.4917956590652466,3.454859972000122,-0.11288130283355713,0.27133557200431824,-0.9558424949645996,0.7187162637710571,0.16224291920661926,0.2730727195739746,0.3862958924714009,-0.10613062929325219,0.10399545690190565,-0.9103278497234141,-0.2747803914917692,-0.11755166502688436,-2.355227224225961
1773063232731319808,0.7066998481750488,-3.045233726501465,-1.5638246536254883,3.735109806060791,-0.11700327694416046,0.3034365177154541,-0.9456408023834229,0.6920002102851868,0.0816342830657959,0.30512261390686035,0.40190368466004384,-0.11684546276067777,0.11630454019913863,-0.9007184398253804,-0.30829716921115174,-0.12310344785944928,-2.3213596687507208
1773063232741356800,0.7167367935180664,-3.200455665588379,-1.6816539764404297,3.79771089553833,-0.12011968344449997,0.33749812841415405,-0.9336307048797607,0.7015405893325806,0.03820377588272095,0.35751986503601074,0.4179717786059394,-0.1282417688787317,0.12937813268798876,-0.8900083907174274,-0.3442578104465503,-0.1279557411096881,-2.28575683234855
1773063232751392768,0.7267727851867676,-3.1666042804718018,-1.7059180736541748,3.7807605266571045,-0.12248359620571136,0.3718024492263794,-0.920195996761322,0.7126325368881226,0.0810326337814331,0.373107373714447,0.43379380607589785,-0.14003699220197213,0.14244868889024148,-0.8785903878485016,-0.3809499181442917,-0.13232814270622495,-2.2498915903012806
1773063232761428736,0.7368087768554688,-3.0906925201416016,-1.6524436473846436,3.797089099884033,-0.12311703711748123,0.40512019395828247,-0.9059358835220337,0.7348266243934631,0.15704411268234253,0.3656526803970337,0.44934353473065014,-0.1514929260556641,0.15518359316651298,-0.8666362650265509,-0.4171102909916393,-0.13507289376683587,-2.2135578378052054
1773063232771465728,0.7468457221984863,-2.9588658809661865,-1.5287013053894043,3.860250234603882,-0.12120754271745682,0.4371560513973236,-0.8911808729171753,0.7233498692512512,0.2228018045425415,0.3493717908859253,0.4647726491668272,-0.1621779840045634,0.16765401728186957,-0.854152755905597,-0.4524341474061454,-0.13517834789780095,-2.1760946900736906
1773063232781501696,0.7568817138671875,-2.6405227184295654,-1.5820358991622925,3.879509687423706,-0.11735028773546219,0.46671590209007263,-0.8765872716903687,0.6597544550895691,0.26099103689193726,0.36259496212005615,0.48023491128051277,-0.17204200314989285,0.17918683761998874,-0.8412301429390016,-0.4855737786616712,-0.13308052724626127,-2.137145655735125
1773063232791537664,0.7669177055358887,-2.2301321029663086,-1.518982172012329,3.9276554584503174,-0.11223321408033371,0.49247637391090393,-0.8630589246749878,0.5800066590309143,0.25222882628440857,0.3628605604171753,0.4958426595586744,-0.1809527747401246,0.18901487285207672,-0.8280516460441044,-0.514932798959216,-0.12931550879052955,-2.0966041643669193
1773063232801574912,0.7769548892974854,-1.8612991571426392,-1.3208867311477661,4.051290988922119,-0.10420502722263336,0.5143526792526245,-0.8512242436408997,0.49362456798553467,0.2369595766067505,0.3284275531768799,0.5117642427912016,-0.1880492871440664,0.1975483628962879,-0.814683759171235,-0.5402526646346615,-0.12181174952153745,-2.0536014362749095
1773063232811610880,0.7869908809661865,-1.682422399520874,-1.302825689315796,4.206210613250732,-0.0935201644897461,0.5333400964736938,-0.8407153487205505,0.4335317611694336,0.25912511348724365,0.2676258087158203,0.5281356919498669,-0.19371578155582114,0.2052230703827444,-0.8008934927273541,-0.5625442201482083,-0.11078334146299991,-2.0076755079231403
1773063232821646848,0.7970268726348877,-1.7231674194335938,-1.3345191478729248,4.289801120758057,-0.08143894374370575,0.5512915849685669,-0.8303284049034119,0.45373815298080444,0.3047722578048706,0.24106448888778687,0.5447919856557024,-0.1990789073915973,0.21261088017264723,-0.7863624382770971,-0.58391155635959,-0.09776770043148836,-1.9592425189931666
1773063232831683840,0.8070638179779053,-1.7466297149658203,-1.2794394493103027,4.2783918380737305,-0.0681789293885231,0.5689289569854736,-0.8195556402206421,0.5229366421699524,0.34046435356140137,0.2717651128768921,0.5612190890909943,-0.2043774335947454,0.2201182409949708,-0.7712398686235145,-0.60520291280778,-0.0829990043749064,-1.9093866759908615
1773063232841719808,0.8170998096466064,-1.6196775436401367,-1.1753908395767212,4.221548080444336,-0.05357853323221207,0.5853347182273865,-0.8090195655822754,0.5406543016433716,0.321571409702301,0.3313279151916504,0.577131485909899,-0.20912801553053376,0.2274987870195716,-0.7559292318054489,-0.6252927919289701,-0.06612993324954036,-1.858839667449566
1773063232851755776,0.8271358013153076,-1.4547446966171265,-1.0712627172470093,4.190033912658691,-0.03761982172727585,0.5996541976928711,-0.799374520778656,0.49082112312316895,0.2560434341430664,0.364437997341156,0.5925902117877411,-0.21296918344265897,0.23442880831006963,-0.740624183675727,-0.6430689245866908,-0.04702687341848986,-1.8076281548545106
1773063232861792768,0.8371727466583252,-1.4025983810424805,-0.9384064078330994,4.171792984008789,-0.020188026130199432,0.6121575236320496,-0.7904781103134155,0.42845219373703003,0.20484381914138794,0.392696738243103,0.6076495378217076,-0.21593047637981252,0.24111197384347258,-0.7252593289632956,-0.6587862215931373,-0.025533457110381734,-1.7555403138323606
1773063232871828736,0.8472087383270264,-1.4871585369110107,-0.8494613766670227,4.136810779571533,-0.0014276308938860893,0.623965322971344,-0.7814506888389587,0.38135620951652527,0.18946540355682373,0.4028191566467285,0.6221346788938628,-0.21847569614142473,0.24807864911533914,-0.7096997464627451,-0.6738067876086048,-0.0018268961830042688,-1.7027425682022166
1773063232881864704,0.8572447299957275,-1.5623009204864502,-0.8139369487762451,4.092203140258789,0.018128659576177597,0.6355485320091248,-0.7718480229377747,0.3564898669719696,0.2068890929222107,0.42233020067214966,0.6359867000853519,-0.22102442417829848,0.2553902957969916,-0.6938622384515071,-0.6887188172464548,0.02348302640943175,-1.649359550144334
1773063232891901952,0.8672819137573242,-1.5195516347885132,-0.8268232345581055,4.077116012573242,0.03811115026473999,0.6463314890861511,-0.7621043920516968,0.36411052942276,0.2319033145904541,0.44070857763290405,0.6493789176423841,-0.22353036258929562,0.2626441968011945,-0.6777604012554969,-0.70276692863852,0.04996615964723101,-1.5952398930188991
1773063232901937920,0.8773179054260254,-1.3335442543029785,-0.8041666746139526,4.120250225067139,0.05861007049679756,0.6552693843841553,-0.753118097782135,0.39805495738983154,0.2710306644439697,0.4294334650039673,0.6625989294999444,-0.2255483546658402,0.2693861132789027,-0.6614542407021641,-0.7145391610736532,0.07766666674323386,-1.5400626043867243
1773063232911973888,0.8873538970947266,-1.0615546703338623,-0.7218679785728455,4.252853870391846,0.08053159713745117,0.6613580584526062,-0.7457346320152283,0.41833925247192383,0.3422735333442688,0.43280744552612305,0.6760000170338184,-0.22634799511020692,0.27549819390030916,-0.6448963084997867,-0.722627860568531,0.1075727394023494,-1.4830243239355965
1773063232922010880,0.8973908424377441,-0.8085204362869263,-0.5364342331886292,4.372093677520752,0.10454095900058746,0.6642730236053467,-0.7401435971260071,0.40482792258262634,0.4170410633087158,0.44508445262908936,0.689628630446809,-0.22552253584166387,0.2811899330504275,-0.6280797932890868,-0.7265208425695833,0.14031597345689178,-1.4240330177735514
1773063232932046848,0.9074268341064453,-0.6816418170928955,-0.31332871317863464,4.398906707763672,0.13072581589221954,0.6645268201828003,-0.7357410788536072,0.34864428639411926,0.461068332195282,0.45621538162231445,0.7030737245368428,-0.22313952142297372,0.28694634009361525,-0.6111939432186545,-0.72686039521517,0.17584396791495568,-1.3641792214797788
1773063232942082816,0.9174628257751465,-0.7160751819610596,-0.0895499512553215,4.328041076660156,0.1583515852689743,0.663251519203186,-0.7314521074295044,0.257770836353302,0.47105634212493896,0.4440680742263794,0.7158119994516511,-0.2198360017338718,0.2931656182046778,-0.5944234614533391,-0.7251551161181785,0.21319925652863939,-1.3048910660048
1773063232952119808,0.9274997711181641,-0.8574582934379578,0.07592084258794785,4.246329307556152,0.18685747683048248,0.6615728735923767,-0.7262269854545593,0.15667888522148132,0.4383874535560608,0.4352418780326843,0.7275616172275993,-0.21629979631578877,0.3001681230442493,-0.5777262332510865,-0.7229143015735666,0.2518364224422912,-1.2465701449203845
1773063232962155776,0.9375357627868652,-1.0238182544708252,0.20118288695812225,4.197510242462158,0.21586517989635468,0.659835696220398,-0.7197353839874268,0.08134551346302032,0.3678284287452698,0.46178555488586426,0.7384000368115238,-0.21290443294506375,0.3079025984804297,-0.5609216081935243,-0.720600115740424,0.2913861386974674,-1.1888408607596948
1773063232972191744,0.9475717544555664,-1.2845535278320312,0.28723594546318054,4.138423442840576,0.24526435136795044,0.6584275364875793,-0.7115607261657715,0.05423514544963837,0.29391926527023315,0.4902777671813965,0.748354173917286,-0.20995801819277224,0.3164447504908018,-0.5438257322949278,-0.7187275654678512,0.3319320955467384,-1.1311464746198978
1773063232982228992,0.9576089382171631,-1.3822638988494873,0.31682100892066956,4.087177276611328,0.27458980679512024,0.6572826504707336,-0.7018404603004456,0.06772586703300476,0.28033941984176636,0.5001803040504456,0.7574884419327305,-0.20761690251479087,0.3255380040276137,-0.5264329162761372,-0.7172074514411378,0.3729340756022452,-1.0734994074589936
1773063232992264960,0.9676449298858643,-1.3213739395141602,0.3206568658351898,4.097249984741211,0.3037441670894623,0.6549075245857239,-0.6919795870780945,0.09342682361602783,0.3504940867424011,0.4896022081375122,0.7661854099492661,-0.20521162010214386,0.33451219119919934,-0.5088711778327948,-0.7140602441619156,0.4136265163915039,-1.0163244406643948
1773063233002300928,0.9776809215545654,-1.1314492225646973,0.445082426071167,4.15376615524292,0.33336955308914185,0.6502053737640381,-0.6827135682106018,0.12309709191322327,0.4288046360015869,0.47348499298095703,0.7746413740671638,-0.20200785061198145,0.34327256096998376,-0.491210375862289,-0.7078547089095912,0.45424449468311173,-0.9598816524781172
1773063233012337920,0.987717866897583,-0.9722180962562561,0.6274611353874207,4.128667831420898,0.363987535238266,0.6428009271621704,-0.6740326881408691,0.1349138617515564,0.4851440191268921,0.5072541236877441,0.7826993056778679,-0.19754481620250797,0.3520791264446542,-0.4737067908864746,-0.6981490857250277,0.49514462671896975,-0.9050196812342863
1773063233022373888,0.9977538585662842,-0.9085459113121033,0.7557706832885742,3.990165948867798,0.3946981132030487,0.6335898041725159,-0.6654151678085327,0.1028451919555664,0.5325173139572144,0.496088445186615,0.7900348319331019,-0.19232987809525678,0.3609731952955918,-0.4566754674257795,-0.686184428112184,0.5353754382388706,-0.8529126266940014
1773063233032409856,1.0077898502349854,-0.8953417539596558,0.8609709143638611,3.866123676300049,0.42484143376350403,0.6234296560287476,-0.6563880443572998,0.043435513973236084,0.5747362375259399,0.4761207103729248,0.7965213501869737,-0.18689665020003435,0.36996704206931247,-0.44016804310065916,-0.6731215321513399,0.5744334098680597,-0.8037323701851102
1773063233042446848,1.017826795578003,-0.9321380853652954,0.9601778984069824,3.8063199520111084,0.4545876681804657,0.612459123134613,-0.6467177867889404,0.0008108913898468018,0.5989513993263245,0.49132227897644043,0.8022812499801671,-0.18136568139983192,0.379140617281647,-0.4239146769892227,-0.6591676830688531,0.612679715222941,-0.756649995631074
1773063233052482816,1.027862787246704,-1.007855772972107,1.037846326828003,3.767159938812256,0.4841151535511017,0.6008458137512207,-0.6360949277877808,-0.004577219486236572,0.601989209651947,0.5057238936424255,0.8073866656776856,-0.17588706489321873,0.38860811096056813,-0.40764468554312805,-0.6445587836239633,0.6505507081137284,-0.7108225128377105
1773063233062518784,1.0378987789154053,-1.1415672302246094,1.0891276597976685,3.652834415435791,0.513073205947876,0.5889766216278076,-0.6243895888328552,-0.000652611255645752,0.6033756136894226,0.498046875,0.8118091014334775,-0.17073581659699777,0.3983145434608679,-0.3913576172554421,-0.6297919573407628,0.687845041737329,-0.6661418971244838
1773063233072555776,1.0479357242584229,-1.3211822509765625,1.1049439907073975,3.4353890419006348,0.540681779384613,0.5778812766075134,-0.6113235354423523,-0.009035050868988037,0.6241298317909241,0.4769088625907898,0.8153621680044929,-0.16648882967146605,0.4081907677188151,-0.3752949994372378,-0.6161302283689915,0.7241541557527835,-0.6228473880004949
1773063233082591744,1.057971715927124,-1.386286973953247,1.1372451782226562,3.238273859024048,0.566635012626648,0.5676026344299316,-0.5972872972488403,-0.03759753704071045,0.6814055442810059,0.47050201892852783,0.8180712813424207,-0.16309266987977505,0.4180396440258294,-0.35972635713281587,-0.6035910106966895,0.7590689133829608,-0.5814754978860798
1773063233092627712,1.0680077075958252,-1.2758952379226685,1.159352421760559,3.1377856731414795,0.5914389491081238,0.5570686459541321,-0.5829875469207764,-0.06144016981124878,0.7406303286552429,0.45923876762390137,0.8201565846784592,-0.15982333994823808,0.4277414285752267,-0.3447273024161138,-0.5908518128076206,0.7925942495013404,-0.5424754017267247
1773063233102664960,1.0780448913574219,-1.1277883052825928,1.1756418943405151,3.068023443222046,0.6153681874275208,0.5451549291610718,-0.5693225860595703,-0.06576186418533325,0.7588459849357605,0.42639344930648804,0.8219442037319687,-0.1560276827863889,0.43702869827832896,-0.33025616746927683,-0.5765739281402332,0.8242458354474981,-0.5062738155750962
1773063233112700928,1.088080883026123,-1.044955849647522,1.196334958076477,2.8926186561584473,0.6382796764373779,0.5324686169624329,-0.5559461712837219,-0.0761001706123352,0.7382985353469849,0.3753736615180969,0.8233186700440156,-0.15195205974411588,0.44602410048419366,-0.3164164014808764,-0.5615143358713758,0.8542322686857124,-0.4728231803539952
1773063233122736896,1.0981168746948242,-0.9533037543296814,1.1605411767959595,2.6316099166870117,0.659381628036499,0.5199800133705139,-0.542988657951355,-0.11029410362243652,0.7113890051841736,0.29246985912323,0.8242011016445614,-0.14800156068285894,0.4545340718237808,-0.30362288953398503,-0.546827530688735,0.88190044609676,-0.4427460536985875
1773063233132773888,1.1081538200378418,-0.8421415090560913,1.1331279277801514,2.4648923873901367,0.6786616444587708,0.5077635049819946,-0.5306548476219177,-0.17023885250091553,0.6639589071273804,0.2111663818359375,0.8247011915031512,-0.14416292814087475,0.46248202015367057,-0.2918825264546978,-0.5325867553469553,0.9071813139262317,-0.4159382000908314
1773063233142809856,1.118189811706543,-0.6969150900840759,1.1383732557296753,2.4124069213867188,0.696886420249939,0.49504923820495605,-0.5189176797866821,-0.21385419368743896,0.6108009815216064,0.16488325595855713,0.8249891407423013,-0.14004752141550889,0.47002962845963503,-0.2808055699055463,-0.5178915070711779,0.9307453746024821,-0.3916652181100851
1773063233152845824,1.1282258033752441,-0.521240770816803,1.1682913303375244,2.3973188400268555,0.7146167159080505,0.4811519980430603,-0.507755696773529,-0.24577516317367554,0.6109653115272522,0.12492793798446655,0.8251510592631301,-0.13526023761634265,0.47731208093680944,-0.27019192364869105,-0.5019683465408358,0.9530389957440841,-0.36971869155065806
1773063233162882816,1.1382627487182617,-0.32997754216194153,1.2120879888534546,2.407724142074585,0.7320541143417358,0.4658622741699219,-0.49706047773361206,-0.29780423641204834,0.6336708068847656,0.05721062421798706,0.8251834828859781,-0.12964363272125362,0.48441953962399886,-0.26000470392474345,-0.4846088539891419,0.9743077730523226,-0.3501007595023567
1773063233172918784,1.148298740386963,-0.19261397421360016,1.2366904020309448,2.449427366256714,0.7492820620536804,0.4490538537502289,-0.486751526594162,-0.3833000063896179,0.6100891828536987,-0.001178741455078125,0.825121367278732,-0.12317301607994469,0.49137830842773284,-0.250101058573557,-0.46570613140576955,0.9946855591745255,-0.332537962335988
1773063233182954752,1.158334732055664,-0.22433727979660034,1.183343529701233,2.4762401580810547,0.7660545706748962,0.4311843812465668,-0.4766974151134491,-0.481997013092041,0.5206283330917358,-0.05139404535293579,0.8250307083636998,-0.11632084036055712,0.4981172122617274,-0.24015215187506195,-0.44580503228239055,1.0141582206283608,-0.31598722587379563
1773063233192992000,1.1683719158172607,-0.508187472820282,1.050858974456787,2.4504787921905518,0.781869113445282,0.4137260913848877,-0.4663812816143036,-0.576760470867157,0.4247138798236847,-0.0473974347114563,0.8248931276880564,-0.11028410354556353,0.5046253868422341,-0.22965637924189675,-0.426543058802084,1.0329577885076704,-0.2983190176879556
1773063233203027968,1.178407907485962,-0.8930650949478149,0.9466248154640198,2.4052011966705322,0.7963575124740601,0.39770734310150146,-0.4556792080402374,-0.6486982703208923,0.39837417006492615,-0.06228038668632507,0.8247137685934123,-0.10585555495860176,0.5108375517477812,-0.21837301785313404,-0.4090167135229102,1.0510656365670357,-0.278277514155348
1773063233213063936,1.188443899154663,-1.1794559955596924,0.7668538689613342,2.3377325534820557,0.8095751404762268,0.3832574486732483,-0.44463685154914856,-0.6685076355934143,0.4246191382408142,-0.13011598587036133,0.824473798221627,-0.10311715293310729,0.5167672800413861,-0.2063043420492129,-0.3933204727112224,1.0685502556222803,-0.25569997533905947
1773063233223100928,1.1984808444976807,-1.4242113828659058,0.6915258169174194,2.365797281265259,0.8216081857681274,0.3698481619358063,-0.4337884485721588,-0.6567522287368774,0.4520512819290161,-0.2439611554145813,0.8242700157886483,-0.10169402395005912,0.5222682274903936,-0.19358010985246982,-0.37884557751540887,1.0850201256604044,-0.23120431482625398
1773063233233136896,1.2085168361663818,-1.5399757623672485,0.7013048529624939,2.489957809448242,0.8334442973136902,0.3560633659362793,-0.42259836196899414,-0.6481873989105225,0.4703373908996582,-0.29439687728881836,0.8239635798123847,-0.10080312174136749,0.5277684681550961,-0.17995311035403597,-0.3640517559954221,1.101524249827694,-0.20491525124032714
1773063233243172864,1.218552827835083,-1.6250014305114746,0.750760018825531,2.491177558898926,0.8452419638633728,0.34158000349998474,-0.41096118092536926,-0.6381344795227051,0.47449055314064026,-0.30829232931137085,0.8234067511382551,-0.10002962313533799,0.5333980555056016,-0.16577663312317284,-0.3485975011732181,1.1182452050343763,-0.17787051896267436
1773063233253209856,1.2285897731781006,-1.843056559562683,0.8602997064590454,2.3917083740234375,0.8567085862159729,0.3277084529399872,-0.3983183205127716,-0.6213570833206177,0.45888209342956543,-0.3260316252708435,0.822328633407175,-0.09993606365141393,0.5393084724309241,-0.15144196835614118,-0.3338770598280976,1.1355877701541515,-0.15009785060947717
1773063233263245824,1.2386257648468018,-2.0710394382476807,1.0153694152832031,2.257059335708618,0.8679000735282898,0.31530413031578064,-0.38383954763412476,-0.5721847414970398,0.500003457069397,-0.33658891916275024,0.8204593204095821,-0.10102363708076781,0.5457787552813487,-0.13699010092160338,-0.3207771277964261,1.1543956031732117,-0.1209666929898699
1773063233273281792,1.248661756515503,-2.2577271461486816,1.167677402496338,2.1685702800750732,0.8788718581199646,0.30408182740211487,-0.367584764957428,-0.4834708571434021,0.6087141036987305,-0.34774723649024963,0.8177924290215695,-0.10310731446957938,0.552789744637864,-0.12250686457158662,-0.30897447998683575,1.1746601289803156,-0.09079536564130747
1773063233283319040,1.2586989402770996,-2.452564001083374,1.3757972717285156,2.1162447929382324,0.889868438243866,0.2935463488101959,-0.3492346405982971,-0.36807888746261597,0.689684271812439,-0.3568963408470154,0.8142442029567372,-0.10604400247012488,0.5604795653559439,-0.10781385619666259,-0.29793452604889287,1.196809838194251,-0.05935062576070755
1773063233293355008,1.2687349319458008,-2.495828866958618,1.4871717691421509,2.0184998512268066,0.9007547497749329,0.2833958566188812,-0.3291317820549011,-0.26749974489212036,0.7296046018600464,-0.3180239796638489,0.8098774423405332,-0.10959838850666478,0.5687022902484665,-0.09308326695954125,-0.28733329676480746,1.2204724526946429,-0.027234112017463574
1773063233303390976,1.278770923614502,-2.379812002182007,1.7098737955093384,1.8887230157852173,0.9113152027130127,0.2734828293323517,-0.30775290727615356,-0.2358238697052002,0.7330327033996582,-0.22397011518478394,0.8047557131047745,-0.11322563176808459,0.5773244382987441,-0.07902391256059023,-0.277012035780095,1.245119210069672,0.0036865074701262243
1773063233313427968,1.2888078689575195,-2.024578094482422,1.8961156606674194,1.7287745475769043,0.921504020690918,0.263548880815506,-0.28525856137275696,-0.24064159393310547,0.6866769790649414,-0.07642048597335815,0.7988969864692824,-0.11629704141366652,0.5863835892319833,-0.06627929502325083,-0.26669932359055687,1.270594315636341,0.03161136010197703
1773063233323463936,1.2988438606262207,-1.1691733598709106,1.1761739253997803,1.3431915044784546,0.930267870426178,0.25344333052635193,-0.2652698755264282,-0.23361265659332275,0.6511434316635132,-0.01796373724937439,0.7934108468787728,-0.11776538250908597,0.594555614435281,-0.05598355802086269,-0.2562381643939796,1.2930144857631944,0.05295305489913935
1773063233333499904,1.3088798522949219,1.2688329219818115,0.9781184792518616,1.3158842325210571,0.9358426928520203,0.24145369231700897,-0.25670725107192993,-0.18103617429733276,0.6862348914146423,-0.06874746084213257,0.7910218965153218,-0.11373248194540729,0.5989251161691866,-0.051361955466989455,-0.24386359285523346,1.303075453304738,0.056684222888242444
1773063233343536896,1.3189167976379395,2.4924678802490234,2.855278253555298,1.4135161638259888,0.9440926313400269,0.22277167439460754,-0.24302679300308228,-0.07325828075408936,0.8170995712280273,-0.6522521376609802,0.7865785252797565,-0.10072351349982026,0.606911342076075,-0.05298777684339424,-0.22465666795513137,1.3188479388446115,0.03991578059643261
1773063233353572864,1.3289527893066406,0.8973867893218994,2.604379653930664,-0.07799798250198364,0.9521754384040833,0.2117864042520523,-0.22024615108966827,0.11133158206939697,1.2042292356491089,-1.4385062456130981,0.7790183070168926,-0.09069788795856515,0.6177789365123313,-0.057039639698182154,-0.21340246850109837,1.343485654369699,0.023733183958954875
1773063233363609856,1.3389897346496582,-0.5522804260253906,1.8422996997833252,0.17342226207256317,0.9564717411994934,0.21325771510601044,-0.1992054581642151,0.23742163181304932,1.4295034408569336,-0.7932567000389099,0.7720840614668889,-0.09019075419819567,0.6263089480077123,-0.05906671655303865,-0.21490817222144265,1.3654605513578266,0.022279940974326933
1773063233373645824,1.3490257263183594,-0.8716471791267395,0.9298495650291443,2.4623701572418213,0.9620306491851807,0.20192773640155792,-0.1836361140012741,0.21344542503356934,0.868583083152771,-0.6393619179725647,0.767533929126853,-0.08863205024226857,0.632713447154227,-0.05205479056387981,-0.20332581227149019,1.3821814676795137,0.032934001437593376
1773063233383681792,1.3590617179870605,-0.31988468766212463,0.20678211748600006,3.163966655731201,0.9685256481170654,0.17439576983451843,-0.1776062548160553,0.4688979387283325,-0.2999603748321533,-0.8808653950691223,0.7663498671468338,-0.08152263509241495,0.6360431869140615,-0.0388700400596616,-0.17529210068170262,1.3894333859672734,0.044829500630767606
1773063233393719040,1.3690989017486572,0.21947765350341797,0.2349887490272522,2.099454402923584,0.9731760025024414,0.1483069509267807,-0.17587946355342865,0.3052816390991211,-1.238791584968567,-0.8644343018531799,0.7662372275799677,-0.07293748340749659,0.6377620176901969,-0.0286408688950156,-0.14885606673374466,1.391999011910693,0.049712107170747595
1773063233403755008,1.3791348934173584,0.1559402197599411,0.6783488988876343,1.3684073686599731,0.9763290882110596,0.13160118460655212,-0.17164719104766846,-0.46418309211730957,-1.4464815855026245,-0.852812647819519,0.7650439039771197,-0.0667199960961778,0.6400975286530665,-0.023054087985870626,-0.13198403739928208,1.396766054748578,0.050601326483156815
1773063233413790976,1.3891708850860596,0.10132989287376404,1.0759923458099365,1.1086152791976929,0.9793896675109863,0.11907254904508591,-0.1631489098072052,-0.9066967964172363,-0.869484543800354,-0.6169261336326599,0.7623777761109857,-0.06218976592392734,0.6438617697251123,-0.018830409602365965,-0.1193557369678735,1.4057298147539519,0.05176266420235549
1773063233423827968,1.3992078304290771,0.6366580724716187,1.51641047000885,0.9654149413108826,0.9825108051300049,0.10911169648170471,-0.15088872611522675,-0.4954196810722351,0.4122048616409302,-0.32436150312423706,0.758399270262505,-0.05774345705923081,0.6490156619076026,-0.016583964192353178,-0.1093293669457093,1.4184122567042428,0.05011836899034321
1773063233433863936,1.4092438220977783,2.788532257080078,1.986156702041626,2.844374895095825,0.9868481159210205,0.08900696784257889,-0.1349392831325531,0.227614164352417,1.5890631675720215,0.2426052689552307,0.7531466673311198,-0.04560070494208024,0.6560875984759442,-0.015484918752468067,-0.08912490759600983,1.434901461871147,0.036664989048809604
1773063233443899904,1.4192798137664795,3.7350738048553467,1.4630181789398193,2.5732858180999756,0.9913294911384583,0.05445674806833267,-0.11958415061235428,0.9405094981193542,1.4816913604736328,0.3013773560523987,0.7480242530562773,-0.022331948605953673,0.663105729806958,-0.015870069853076443,-0.05448369842217437,1.4507463200953974,0.005883255733515733
1773063233453936896,1.429316759109497,2.0602126121520996,1.0104678869247437,-0.4264243543148041,0.9932475686073303,0.04082050174474716,-0.10859581083059311,1.418083667755127,-0.03143633157014847,-0.13504129648208618,0.7441820298201972,-0.007547214929638794,0.6675665755019097,-0.02216070920981339,-0.0408318461004801,1.4618948046435678,-0.0229277837363417
1773063233463972864,1.4393527507781982,0.10865944623947144,0.1275559961795807,-0.5257017016410828,0.9935771822929382,0.04661938548088074,-0.10310816019773483,0.5383748412132263,-1.4839363098144531,0.22116540372371674,0.7421318154719883,-0.00597442872198581,0.6696343978215337,-0.028188334562978448,-0.0466362875243797,1.4673917743781462,-0.033880866275362014
1773063233474008832,1.4493887424468994,-0.5256609320640564,-0.16656236350536346,0.5014876127243042,0.993475615978241,0.046668242663145065,-0.10405939817428589,-0.40607327222824097,-1.659476399421692,0.5613653063774109,0.7424951476991071,-0.0070606764261815745,0.6692685930095048,-0.027031901351372328,-0.04668519774938615,1.4664340967342704,-0.030729445463237876
1773063233484046080,1.459425926208496,0.19464558362960815,0.15055380761623383,0.6797740459442139,0.9937262535095215,0.040610987693071365,-0.10420649498701096,-0.386838436126709,-0.6034924387931824,0.45024532079696655,0.7426489205080921,-0.005716327944397041,0.6692264754719569,-0.023998257178961445,-0.04062215894688479,1.4663138056856322,-0.028020302839460918
1773063233494082048,1.4694619178771973,0.523108720779419,0.39465421438217163,0.6403513550758362,0.9942753314971924,0.033655114471912384,-0.1014101579785347,-0.2996647357940674,0.5614224076271057,0.1070406436920166,0.7417390251663303,-0.001914573909289276,0.6702919169451954,-0.022986168855787265,-0.033661471320024464,1.4691537662344427,-0.031555940258336614
1773063233504118016,1.4794979095458984,0.10326241701841354,0.008202644996345043,0.7586050033569336,0.994730532169342,0.026353584602475166,-0.09908095002174377,-0.08243793249130249,0.9708998799324036,-0.11051376163959503,0.7409965524676435,0.0017445366788841575,0.6711605486415595,-0.021558907178146226,-0.02635663604152784,1.4715179673843108,-0.034310525826626935
1773063233514155008,1.489534854888916,-0.6403581500053406,-0.5095001459121704,0.6035211086273193,0.9946183562278748,0.019589614123106003,-0.10173815488815308,0.17711937427520752,0.5421474575996399,0.03166978061199188,0.7419869701413722,0.003068982049583522,0.6701652816293383,-0.01801339541159383,-0.01959086817884067,1.4688622193226792,-0.03085567582066959
1773063233524190976,1.4995708465576172,-0.7947407960891724,-0.7049015760421753,0.22502703964710236,0.9940361976623535,0.016216307878494263,-0.10783861577510834,0.24207830429077148,-0.20531846582889557,0.26015186309814453,0.744128653366017,0.0015380466299267186,0.667890952689644,-0.013853546329517097,-0.0162170181913464,1.462733334777396,-0.022677061584573905
1773063233534226944,1.5096068382263184,-0.3381783664226532,-0.6524077653884888,-0.1630106419324875,0.9932669401168823,0.016730092465877533,-0.11463262885808945,0.12991714477539062,-0.49135473370552063,0.25685977935791016,0.7464413055000583,-0.0006007696435492468,0.6653445154143363,-0.011898507422923092,-0.016730872410864028,1.4558949785386608,-0.016966825817035777
1773063233544263936,1.519643783569336,-0.08876774460077286,-0.5563337206840515,-0.08316775411367416,0.9925373792648315,0.018474910408258438,-0.12053199112415314,0.01664823293685913,-0.292934775352478,0.10338111966848373,0.7484164463003666,-0.0019086565308948187,0.6631216785995052,-0.011776097731363313,-0.01847596241086962,1.4499498202047787,-0.015098657928441775
1773063233554299904,1.529679775238037,-0.19738216698169708,-0.509746253490448,0.04148145765066147,0.9918654561042786,0.01882953941822052,-0.12588930130004883,-0.11683511734008789,-0.02995322458446026,-0.004924267530441284,0.750209177833128,-0.0024748635014927817,0.661096987504033,-0.01143267171647101,-0.01883065313863382,1.4445496017172308,-0.013884448501502162
1773063233564335872,1.5397157669067383,-0.3220692574977875,-0.4792245924472809,0.1470550149679184,0.9912461638450623,0.018155215308070183,-0.13077205419540405,-0.14827442169189453,0.06994902342557907,-0.014857828617095947,0.7518532172702987,-0.003186450892392039,0.6592448862192665,-0.01013563264992319,-0.01815621220654689,1.4396268983638867,-0.011041757349676721
1773063233574372864,1.5497527122497559,-0.2811800539493561,-0.4635109603404999,-0.045146603137254715,0.9906246662139893,0.0179233867675066,-0.13543027639389038,-0.04165011644363403,0.07185931503772736,-0.057379767298698425,0.7534164173334205,-0.004150685778364067,0.6574706322064406,-0.008874157824848438,-0.017924345708055883,1.4349266252381943,-0.007915318514933375
1773063233584408832,1.559788703918457,-0.16146564483642578,-0.432871550321579,-0.09368564188480377,0.9899866580963135,0.0191620085388422,-0.13985413312911987,0.08273667097091675,0.030978361144661903,-0.03801755607128143,0.7548880462736103,-0.00536951822438723,0.655777479741584,-0.008429107670975839,-0.019163181066566972,1.430456286271797,-0.005684721359356518
1773063233594445056,1.5698249340057373,-0.08642655611038208,-0.32881465554237366,-0.057580191642045975,0.9894222021102905,0.020070917904376984,-0.14366883039474487,-0.016979634761810303,-0.10161390155553818,0.013892784714698792,0.7561512836870193,-0.006055523249026761,0.6543156085826713,-0.008339350356911709,-0.020072265375772516,1.426599347222487,-0.0046881357482740915
1773063233604482048,1.5798618793487549,-0.15803097188472748,-0.224595844745636,0.01880166493356228,0.9890378713607788,0.02040277048945427,-0.14624635875225067,-0.05776333808898926,-0.056077804416418076,0.0017456263303756714,0.7570069532056388,-0.006584718378186994,0.6533249261739147,-0.007984859185470544,-0.02040418605583148,1.4239927935803072,-0.0034859992490657173
1773063233614518016,1.589897871017456,0.013911565765738487,-0.19829589128494263,0.0012147268280386925,0.9887241125106812,0.020428527146577835,-0.14834901690483093,0.028747200965881348,0.13434137403964996,-0.021496593952178955,0.7577047144185447,-0.006914929908013772,0.6525164195145291,-0.007624004602900497,-0.020429947509016954,1.4218664201305418,-0.002529808479885058
1773063233624553984,1.5999338626861572,0.2602404057979584,-0.00846338365226984,0.03480411320924759,0.9885426759719849,0.020197873935103416,-0.1495848000049591,-0.004671156406402588,0.12311269342899323,-0.0382051020860672,0.7581077701313782,-0.006378924783167638,0.6520482432786732,-0.008071526746168595,-0.020199248110488552,1.420617146338936,-0.003920250650382914
1773063233634590976,1.6099708080291748,0.43245169520378113,0.2172711342573166,0.18463416397571564,0.9887330532073975,0.018490057438611984,-0.1485435515642166,-0.17838454246520996,-0.04935857653617859,-0.07035905122756958,0.7577565821729069,-0.0046534201160063245,0.6524619311869991,-0.008765061735179942,-0.018491111390942734,1.4216753366038657,-0.007212503035316541
1773063233644626944,1.620006799697876,0.46635666489601135,0.3149857223033905,0.03303266316652298,0.9891601800918579,0.016575032845139503,-0.14590325951576233,-0.09563589096069336,0.08636078238487244,-0.19271977245807648,0.7568721056312864,-0.0024713171341740263,0.6534847055458026,-0.009819732904227189,-0.016575791578629144,1.4243501401564373,-0.011636489080250008
1773063233654662912,1.6300427913665771,0.4017695486545563,0.36218830943107605,-0.06685904413461685,0.9896460175514221,0.016210641711950302,-0.1426115334033966,0.18848508596420288,0.1991671770811081,-0.202176034450531,0.755762670562868,-0.0009000304286271866,0.6547468396305585,-0.011340431189021923,-0.016211351832074884,1.4276779809761926,-0.015965541020922975
1773063233664699904,1.6400797367095947,0.4175242781639099,0.3803883492946625,-0.19828523695468903,0.9901517629623413,0.016923116520047188,-0.1389714628458023,0.17087417840957642,0.0003345683217048645,-0.1390741914510727,0.7545281679925543,0.00022104790791767197,0.6561358264942115,-0.013150242734870714,-0.0169239249029202,1.4313535049936885,-0.020138777079569736
1773063233674736384,1.650116205215454,0.41201427578926086,0.3786943554878235,-0.28360268473625183,0.9906467795372009,0.01878318190574646,-0.1351514756679535,0.07263129949569702,-0.08473168313503265,-0.09414230287075043,0.753217531352613,0.0010277762682475325,0.6575889344982946,-0.015459094992071562,-0.01878428605238014,1.4352059087917233,-0.024646674281065473
1773063233684772352,1.6601521968841553,0.3556756377220154,0.24976754188537598,-0.40966206789016724,0.9909921884536743,0.021811604499816895,-0.13213194906711578,0.020558714866638184,-0.0681067630648613,-0.014733850955963135,0.7521559274988439,0.0013497537214134927,0.658735303463558,-0.018096840127964635,-0.021813334257005774,1.43824512588841,-0.029012523076172577
1773063233694809088,1.6701891422271729,0.3202211558818817,0.21813979744911194,-0.17823518812656403,0.9912136197090149,0.02444428764283657,-0.12999370694160461,-0.07577764987945557,-0.10339323431253433,0.1463969200849533,0.7513868975442826,0.0016097660545328239,0.6595457201062713,-0.020365079915924504,-0.024446723346524386,1.4403945279841068,-0.03274316959523189
1773063233704845312,1.680225133895874,0.32648545503616333,0.22049376368522644,-0.03785677254199982,0.9914767742156982,0.02499897964298725,-0.12786385416984558,-0.1757417917251587,-0.07884721457958221,0.09401987493038177,0.750637836177306,0.002520509577735685,0.6603496960724227,-0.021793725070245587,-0.0250015843222478,1.4425411940473076,-0.03606631237980073
1773063233714882048,1.6902620792388916,0.2844044268131256,0.19053779542446136,-0.07273086905479431,0.9917237162590027,0.025101616978645325,-0.1259128451347351,-0.025293052196502686,0.13706879317760468,-0.0427577942609787,0.7499512193429226,0.003551000630270105,0.661083174951599,-0.02301357330523106,-0.0251042545092521,1.444508371212577,-0.03923555397697183
1773063233724918272,1.7002983093261719,0.11064809560775757,0.17429889738559723,-0.21280647814273834,0.9919408559799194,0.02617836743593216,-0.1239679679274559,0.13475286960601807,0.14871788024902344,-0.011896312236785889,0.7492669791582867,0.0038579340714393834,0.6618165407404041,-0.024145371318680768,-0.026181357985439756,1.4464657927169269,-0.04131505583885016
1773063233734954240,1.710334300994873,0.06078146770596504,0.07546007633209229,-0.3695036768913269,0.9919886589050293,0.029255229979753494,-0.12289253622293472,0.14624065160751343,-0.005207391455769539,0.028638966381549835,0.748858954551199,0.0031246825001033734,0.6622265235833183,-0.02562199020609818,-0.029259404775239244,1.447539306493504,-0.04254404624838431
1773063233744991232,1.7203712463378906,0.21014699339866638,0.10429572314023972,-0.010571358725428581,0.9920343160629272,0.03107311576604843,-0.12207607179880142,-0.027373552322387695,-0.16991281509399414,0.08768270909786224,0.7485470104329546,0.002919924520739656,0.6625356128541338,-0.0267491409780125,-0.03107811803645756,1.448355585628123,-0.043950451254696925
1773063233755027200,1.7304072380065918,0.41787493228912354,0.16939511895179749,0.04226366803050041,0.9922149777412415,0.030304009094834328,-0.1207946240901947,-0.19071650505065918,-0.09130862355232239,-0.0626160055398941,0.7480856283925256,0.004264627148285446,0.6630116894985064,-0.027665139189975464,-0.030308648901683718,1.4496501005652884,-0.04708579539442865
1773063233765063168,1.740443229675293,0.4988004267215729,0.1739797592163086,-0.00943734124302864,0.9924277067184448,0.0295956302434206,-0.11921244859695435,0.03706765174865723,0.24190403521060944,-0.11334677040576935,0.7475001535348816,0.006084437368965654,0.6635938177225311,-0.02915327501478205,-0.029599952576606168,1.451247088320425,-0.051705019278060566
1773063233775100160,1.7504801750183105,0.6489945650100708,0.20267948508262634,-0.047356534749269485,0.9926452040672302,0.029204614460468292,-0.11748530715703964,0.17289751768112183,0.2102973610162735,-0.05448128283023834,0.746843721643828,0.00810769569179316,0.6642225609204545,-0.031100252222324456,-0.029208768180615675,1.452988581530811,-0.05728042251971084
1773063233785136128,1.7605161666870117,0.896452784538269,0.23939009010791779,-0.2634073495864868,0.9928560256958008,0.029757585376501083,-0.11554809659719467,0.17055028676986694,0.07148447632789612,-0.01407533884048462,0.7460579370371774,0.01056265905633702,0.6649168232428805,-0.034228565040395835,-0.029761979755106645,1.4549380120796693,-0.06519458927938684
1773063233795172096,1.770552158355713,1.2186014652252197,0.29126858711242676,-0.34239476919174194,0.9930590391159058,0.03185814991593361,-0.11322057247161865,0.172651469707489,0.022783584892749786,0.03042636811733246,0.7450495970610924,0.013359151421974446,0.6657411264573982,-0.038877431458592175,-0.031863540747995085,1.4572745906083473,-0.07582980796844666
1773063233805209088,1.7805891036987305,1.42538321018219,0.19942736625671387,-0.7189574837684631,0.9931609034538269,0.03525502607226372,-0.11130495369434357,0.042651593685150146,-0.008811511099338531,-0.07080872356891632,0.7440399601692987,0.016930434153731345,0.666378933910557,-0.04535622359056519,-0.03526233200288817,1.4591906080893682,-0.09023628389076314
1773063233815245056,1.7906250953674316,1.0009210109710693,0.1753552407026291,-0.22234149277210236,0.993160605430603,0.03954647481441498,-0.10985510796308517,-0.18140828609466553,-0.17238949239253998,-0.0038991570472717285,0.7431507099240042,0.019625464918477303,0.6668487747597971,-0.05152279841400085,-0.03955678882050696,1.4606325296657665,-0.10301539222965224
1773063233825281024,1.8006610870361328,0.7100159525871277,0.16149376332759857,0.33682486414909363,0.9933822154998779,0.03733895346522331,-0.10861679166555405,-0.5177352428436279,-0.2853247821331024,0.032612740993499756,0.7425688270849969,0.023243503903150265,0.6671966298988855,-0.05385125759108069,-0.03734763405914473,1.4618885771348273,-0.11129960594830575
1773063233835318272,1.8106982707977295,0.5737670063972473,0.15666411817073822,0.008143117651343346,0.9936244487762451,0.03478123992681503,-0.10724146664142609,-0.16188311576843262,0.09993860125541687,-0.028271853923797607,0.7420034248084508,0.026264984196530013,0.6675997437066937,-0.05524167583246166,-0.034788257301999796,1.4632829274376047,-0.11738829792877933
1773063233845354240,1.8207342624664307,0.40219151973724365,0.19651858508586884,0.03292356804013252,0.9938127398490906,0.03447161614894867,-0.10558421164751053,0.3093641400337219,0.2525614798069,0.04074960947036743,0.741314750049793,0.02808863383032052,0.6681458849264215,-0.05696110290120349,-0.034478446586809826,1.4649518103672072,-0.12236449788141344
1773063233855390208,1.8307702541351318,0.21163523197174072,0.16890470683574677,0.1620302051305771,0.9940453171730042,0.032912272959947586,-0.10387986153364182,0.2648354172706604,0.0851602703332901,-0.029832914471626282,0.740699036969306,0.02968545305605312,0.6687143220525992,-0.05748960736494191,-0.03291821940563171,1.4666721298655634,-0.12526216925241587
1773063233865427200,1.8408071994781494,0.5792643427848816,0.2499428242444992,0.06010117009282112,0.9942728877067566,0.03157972916960716,-0.10209982842206955,0.13452666997909546,-0.01229260116815567,0.03512899577617645,0.7400404264739945,0.03132346200271828,0.6693048073794736,-0.058225328804936846,-0.031584979927585397,1.468467063432092,-0.12852556551686906
1773063233875463168,1.8508431911468506,1.1810696125030518,0.31526023149490356,-0.09557706862688065,0.9945788383483887,0.03053986094892025,-0.09939929097890854,-0.010921001434326172,-0.036567091941833496,-0.005291283130645752,0.7388814884582121,0.03490130941800023,0.6701359953720779,-0.06126795555034124,-0.03054461117987283,1.4711860008458653,-0.13781670003363117
1773063233885499136,1.8608791828155518,0.9427704811096191,0.28017812967300415,-0.11246629804372787,0.9948239326477051,0.031041130423545837,-0.0967564508318901,-0.14121675491333008,-0.08604905754327774,-0.1231074333190918,0.7376273685221927,0.03849305990953803,0.6709247791044037,-0.06545308940873466,-0.031046117250269442,1.4738414005266176,-0.14883218805510917
1773063233895536128,1.8709161281585693,0.7280182838439941,0.24809013307094574,0.2927395701408386,0.9951174855232239,0.029042599722743034,-0.094326913356781,-0.3572086691856384,-0.14635218679904938,-0.0115232914686203,0.7365969061552824,0.042048048784010604,0.6716163383510819,-0.06773772461117558,-0.029046684178191923,1.4762889831726482,-0.15698101110926074
1773063233905572096,1.8809521198272705,0.37939560413360596,0.17610915005207062,0.030739374458789825,0.9953657984733582,0.026786429807543755,-0.09235541522502899,-0.2621504068374634,-0.07260856032371521,0.08081978559494019,0.7358173252527699,0.04476135772974307,0.6721746142681784,-0.06892464658319601,-0.026789634725239316,1.4782758210378488,-0.16237741542939424
1773063233915608064,1.8909881114959717,0.19165965914726257,0.19843530654907227,0.04577673599123955,0.9955334067344666,0.026454269886016846,-0.09062729775905609,0.11513853073120117,-0.00786907784640789,0.06143725663423538,0.7351509172735824,0.04584747442447291,0.6727439031669151,-0.06976198194114507,-0.026457356838973115,1.4800126447520956,-0.16506443898818152
1773063233925645312,1.9010252952575684,0.1097666546702385,0.19514310359954834,0.05423200502991676,0.9957327842712402,0.025620626285672188,-0.08865586668252945,0.15731287002563477,0.05084116756916046,0.01486438512802124,0.7344625532047411,0.046692503552913656,0.6734180547916243,-0.06994794454123598,-0.02562343054464644,1.4819946846046717,-0.166457470167622
1773063233935681280,1.9110612869262695,0.2083635926246643,0.2218979150056839,0.02566787227988243,0.9959102869033813,0.025234675034880638,-0.08675102889537811,0.06613188982009888,0.02756071835756302,0.012410230934619904,0.7337810743676132,0.04737641114243107,0.6740771193977908,-0.07029055001002561,-0.025237354168708565,1.4839083744303667,-0.16786695185389122
1773063233945717248,1.9210972785949707,0.4331431984901428,0.3315053880214691,-0.017211951315402985,0.9961605668067932,0.024670477956533432,-0.08399704098701477,-0.08830839395523071,-0.03678595647215843,0.0002262592315673828,0.7327490192028119,0.04880559446531289,0.6749959205363621,-0.07125597234782592,-0.024672981573281103,1.4866745331766527,-0.1711995594250996
1773063233955754240,1.9311342239379883,0.2307911515235901,0.2822663187980652,-0.1347455084323883,0.9963940978050232,0.02546287141740322,-0.08093699812889099,-0.08176684379577637,-0.045299261808395386,-0.06441820412874222,0.7315557867065619,0.04984143344001617,0.6760527584472005,-0.07276536347006309,-0.025465623596798416,1.489744374952106,-0.17479991952995652
1773063233965790208,1.9411702156066895,-0.010790050961077213,0.10796242207288742,-0.03259756416082382,0.9965395331382751,0.02600565180182457,-0.07894670963287354,-0.014453411102294922,-0.05812540650367737,-0.04554974287748337,0.7308184127605011,0.0501176042573072,0.6767679601960233,-0.07333339822867306,-0.026008584814340447,1.491740587545291,-0.17598904028570836
1773063233975827200,1.951207160949707,-0.3270603120326996,-0.038406070321798325,-0.09351164847612381,0.9965447783470154,0.026923755183815956,-0.07857271283864975,-0.007668435573577881,-0.0932537093758583,0.07201141119003296,0.7307240598556273,0.04920599897377993,0.6769729790259336,-0.07299831164072516,-0.026927008160196175,1.4921139651882924,-0.17424879428842813
1773063233985863168,1.9612431526184082,-0.423300564289093,-0.04103966802358627,0.0966939777135849,0.9965054392814636,0.027278415858745575,-0.07895005494356155,-0.04608112573623657,-0.15365168452262878,0.14251816272735596,0.7309814952670527,0.04774254579009858,0.6769384185710965,-0.07170242447791893,-0.027281800814828876,1.4917345540938567,-0.17034960354974757
1773063233995899136,1.9712791442871094,-0.3681657612323761,-0.017558878287672997,0.12145359814167023,0.9965161085128784,0.026385881006717682,-0.07911692559719086,-0.07531249523162842,-0.019595712423324585,0.08853161334991455,0.7312126037545819,0.046674301803290054,0.6769512869683842,-0.06990425907433666,-0.026388943455853898,1.4915689842781286,-0.1662445218536292
1773063234005936128,1.981316089630127,-0.28962966799736023,0.01666567102074623,0.07669758796691895,0.9965420961380005,0.025634542107582092,-0.0790378674864769,0.04134559631347656,0.1500704437494278,0.01760595291852951,0.731325621495761,0.04581923966575557,0.6770388949159861,-0.06842451045773966,-0.02563735040812582,1.4916498863792431,-0.16289676969552447
1773063234015972096,1.9913520812988281,-0.28454750776290894,0.014361271634697914,-0.06442762166261673,0.9965559244155884,0.025808244943618774,-0.07880520075559616,0.07638108730316162,0.11510667949914932,-0.0011661648750305176,0.731338209939156,0.044794902281033784,0.6771933376510519,-0.06743177099707877,-0.02581111068923206,1.491882992616344,-0.1600358097854841
1773063234026008320,2.0013883113861084,-0.04656529426574707,-0.020486989989876747,-0.09101875126361847,0.996540904045105,0.02674780786037445,-0.07868210971355438,0.001795947551727295,-0.04432591795921326,0.02458970993757248,0.7313305735765238,0.04381660462052024,0.6773027763810153,-0.06705764047597372,-0.026750997424131753,1.492004562866516,-0.15815162578874417
1773063234036045312,2.011425256729126,0.13253387808799744,-0.08326994627714157,-0.22989550232887268,0.996448278427124,0.028324047103524208,-0.07930243760347366,-0.07942545413970947,-0.11030949652194977,-0.01772821694612503,0.7314628664298273,0.04351257045054915,0.6770933742767753,-0.06792246861173357,-0.02832783644516518,1.4913786150011275,-0.15902259059227608
1773063234046081280,2.021461248397827,0.03719032183289528,-0.10022948682308197,-0.016953667625784874,0.996337354183197,0.02965663932263851,-0.08020249754190445,-0.10304206609725952,-0.11368678510189056,-0.02804332971572876,0.7316923033523475,0.04333146064665234,0.6767725885342916,-0.06875812782755143,-0.029660988779982446,1.4904721954148152,-0.16002284735978958
1773063234056117248,2.0314972400665283,-0.04138737544417381,-0.16168063879013062,0.020086152479052544,0.9962400794029236,0.029406381770968437,-0.08149386197328568,-0.09519320726394653,-0.0284145325422287,0.01652192324399948,0.7321394810436481,0.04337144263788649,0.6762928258361224,-0.06869381856727283,-0.029410622115590146,1.4891766230404255,-0.16000121241477477
1773063234066154240,2.041534185409546,-0.1173950582742691,-0.2083037942647934,-0.02981589362025261,0.9960837364196777,0.029599398374557495,-0.08331341296434402,0.12731409072875977,0.112078458070755,-0.010863840579986572,0.7327785980930285,0.042962642164004555,0.6756459895658214,-0.06850007878894744,-0.02960372147713955,1.487349580804415,-0.15918677072183096
1773063234076190208,2.051570177078247,-0.13260644674301147,-0.2609368860721588,0.03619237616658211,0.9958907961845398,0.02974938228726387,-0.08553730696439743,0.21344459056854248,0.08217384666204453,0.01267658919095993,0.7335777089790817,0.04233767681767435,0.674862110651386,-0.06806229985666488,-0.02975377265760554,1.4851163592447656,-0.1577248249678723
1773063234086226176,2.0616061687469482,-0.04275457561016083,-0.29596197605133057,-0.0033957818523049355,0.9956409335136414,0.02964722365140915,-0.08843238651752472,0.10279351472854614,0.05130065977573395,0.06513220071792603,0.7345896164370552,0.04199378531572653,0.6738103068237832,-0.06778140636624902,-0.029651567974145247,1.4822092330434302,-0.1568861950884557
1773063234096263168,2.071643114089966,0.027071775868535042,-0.19051297008991241,0.03864283859729767,0.9954185485839844,0.029537009075284004,-0.09093652665615082,0.01247018575668335,0.038700297474861145,0.07512844353914261,0.7354440063678142,0.041908056781522235,0.6728859137586957,-0.06775224843704156,-0.029541305380410793,1.4796941419083423,-0.1567640607870727
1773063234106299136,2.081679105758667,0.17130698263645172,-0.07152774184942245,-0.02255607210099697,0.9953065514564514,0.029255228117108345,-0.09224392473697662,-0.04624044895172119,0.037425681948661804,-0.01035618782043457,0.7358628004865441,0.042281289917439714,0.6723766273075069,-0.06802860325723604,-0.029259403535852345,1.4783814099584394,-0.15769736117319633
1773063234116335104,2.091715097427368,0.3214090168476105,0.0182390995323658,-0.1357542723417282,0.995255172252655,0.029907509684562683,-0.09258823841810226,-0.006119489669799805,0.06564301252365112,-0.04971521347761154,0.7358721721865662,0.04287627522888327,0.6722109094307163,-0.06918247279788216,-0.029911970639735094,1.4780336715737965,-0.16021866760183903
1773063234126372352,2.101752281188965,0.6058393716812134,0.08370518684387207,-0.092135950922966,0.9952713847160339,0.03062213398516178,-0.09218133985996246,-0.016313135623931885,-0.019361117854714394,-0.09930122643709183,0.735548455318034,0.04419427524930859,0.6722768732023456,-0.07112857736184762,-0.03062692120775664,1.4784405069944546,-0.16488164542752703
1773063234136408320,2.111788272857666,0.7305493950843811,0.08492852002382278,-0.3208998739719391,0.9952877759933472,0.031897783279418945,-0.09156885743141174,-0.030642330646514893,-0.05480121448636055,-0.14105141162872314,0.7350385126726444,0.04615900442995926,0.6723726034661601,-0.07418139602651562,-0.03190319646921009,1.4790522083756334,-0.1720592853466359
1773063234146445312,2.1218252182006836,0.6198002099990845,0.08340705186128616,-0.20351652801036835,0.9952647686004639,0.03431711345911026,-0.09094328433275223,0.018895506858825684,-0.06388862431049347,-0.09329134970903397,0.7344788808943113,0.047636118701498024,0.6725021618504157,-0.07754068757066952,-0.03432385298256398,1.4796734034204446,-0.1790345822559593
1773063234156481280,2.1318612098693848,0.5331858396530151,0.0981164202094078,-0.06189122796058655,0.9953137636184692,0.034781139343976974,-0.09022633731365204,-0.06661808490753174,-0.051169078797101974,-0.010466396808624268,0.7339880328028198,0.04947502236166282,0.6726358987704982,-0.07984207138065468,-0.0347881546506867,1.4803922709644228,-0.184927077548317
1773063234166517248,2.141897201538086,0.3720256984233856,0.08222853392362595,-0.11184892803430557,0.9953647255897522,0.03537438064813614,-0.08942990750074387,-0.016360878944396973,0.05648352578282356,-0.0012835785746574402,0.7335118494423901,0.05083077646443718,0.6728307941899023,-0.08170281220197922,-0.035381764098336856,1.4811905512579064,-0.18951121717138192
1773063234176554240,2.1519341468811035,0.34513741731643677,0.061700791120529175,-0.04693726822733879,0.9953989386558533,0.03580987825989723,-0.08887346088886261,0.06578874588012695,0.06347903609275818,0.004400856792926788,0.7331613908322016,0.051884573256482325,0.6729571002341159,-0.08313264652574624,-0.0358175355686781,1.4817481793181573,-0.19305143098746066
1773063234186590208,2.1619701385498047,0.46295860409736633,0.07410446554422379,-0.08016926050186157,0.9954389333724976,0.03605424985289574,-0.08832582086324692,0.05764639377593994,0.04619060829281807,-0.041251830756664276,0.732796758541344,0.05318243535264599,0.6730592236933056,-0.0846865179909154,-0.03606206741784362,1.4822975662974194,-0.1971070228529897
1773063234196626176,2.172006130218506,0.5385740399360657,0.04288742318749428,-0.0981518030166626,0.9954562187194824,0.03656350076198578,-0.08792267739772797,0.0968901515007019,0.09771387279033661,-0.05723417550325394,0.7324199893071205,0.05474490865483043,0.6730836923828208,-0.08673218081386368,-0.036571653997989235,1.482700930030262,-0.2022550235826133
1773063234206663424,2.1820433139801025,0.5819366574287415,0.05433502048254013,-0.14853961765766144,0.995455265045166,0.03720089793205261,-0.0876646414399147,0.11823809146881104,0.14430241286754608,-0.0593690350651741,0.7320565502832707,0.056440286689211125,0.6730395031679774,-0.08902587524294737,-0.03720948432148323,1.482958057712719,-0.2079555650721443
1773063234216699392,2.1920793056488037,0.5565073490142822,0.038249626755714417,-0.29127657413482666,0.9954156875610352,0.03890296816825867,-0.08737292140722275,0.11296743154525757,0.13526083528995514,-0.08567702025175095,0.7316187746758486,0.05782719964274623,0.6730301301127821,-0.09176253348747114,-0.038912789395041954,1.4832454058664524,-0.2138972828826624
1773063234226735360,2.202115297317505,0.6175877451896667,-0.024281661957502365,-0.42181113362312317,0.9952794313430786,0.04195181652903557,-0.0875149816274643,0.11876475811004639,0.09769661724567413,-0.10398280620574951,0.7312554299009218,0.058724081950583026,0.6728996881818939,-0.09498921459743553,-0.04196413349023304,1.483091832037079,-0.21991394229414477
1773063234236772352,2.2121522426605225,0.8835887908935547,-0.055265579372644424,-0.5949451327323914,0.9950172305107117,0.046376775950193405,-0.0882602408528328,0.10529404878616333,0.0318855457007885,-0.0536922812461853,0.7309250531244591,0.059726924840636395,0.67253444182348,-0.09939162971700194,-0.046393417684773265,1.4823256552112245,-0.22784170044491628
1773063234246808320,2.2221882343292236,1.1797778606414795,-0.08999053388834,-0.6665996313095093,0.9946344494819641,0.051891956478357315,-0.0894952267408371,0.07361799478530884,-0.05619495362043381,-0.04662840813398361,0.7305321046674497,0.061260124520547056,0.6719371865123908,-0.10521588582204604,-0.05191527435667586,1.4810599654587946,-0.23862986465454925
1773063234256844288,2.232224225997925,1.5422158241271973,-0.05573492869734764,-0.7272396683692932,0.9941829442977905,0.057546596974134445,-0.09104090183973312,0.022922039031982422,-0.08006860315799713,-0.016945593059062958,0.7299981508352813,0.06387461255004774,0.6711181589858953,-0.1123522681573013,-0.057578406047875744,1.47947742711156,-0.2528695920251465
1773063234266881280,2.2422611713409424,1.7647279500961304,-0.1412239819765091,-0.7728031873703003,0.993644118309021,0.06368602067232132,-0.09281834959983826,-0.016440868377685547,-0.06295362114906311,-0.015656404197216034,0.7292569378863067,0.06734127210541838,0.6701163915419415,-0.12080304707804698,-0.06372915377095419,1.477654546036397,-0.27026610514857646
1773063234276917248,2.2522971630096436,2.5534398555755615,-0.3083999752998352,-0.6674821972846985,0.9929508566856384,0.06864768266677856,-0.09662316739559174,-0.016815602779388428,-0.03913719207048416,-0.10145115852355957,0.728902492069617,0.07247328834358606,0.6681586927292734,-0.1304327909332065,-0.06870171694313598,1.4737926222860798,-0.29179469108161993
1773063234286953216,2.2623331546783447,3.6480369567871094,-0.43155837059020996,-0.8039670586585999,0.9919504523277283,0.07257578521966934,-0.103763148188591,0.04668468236923218,-0.09807323664426804,-0.4329190254211426,0.7289307772358764,0.08087445197968444,0.6645131680398777,-0.14332262109606522,-0.07263964760078467,1.4665702128563696,-0.3228445990451782
1773063234296990208,2.2723701000213623,4.018932819366455,-0.282654345035553,-1.1920679807662964,0.9908356070518494,0.07842922955751419,-0.10997164994478226,0.09894710779190063,-0.3124685287475586,-0.8584426641464233,0.7274781579303822,0.09187362678820546,0.6607370222586764,-0.1605035998043036,-0.07850985592560429,1.4602599326664012,-0.364017158100673
1773063234307026176,2.2824060916900635,4.620428085327148,-0.4982460141181946,-1.1019364595413208,0.9894828200340271,0.08493342995643616,-0.11709030717611313,0.0186195969581604,-0.28622737526893616,-0.6814173460006714,0.7257097670376214,0.1030032855094318,0.6563879717421588,-0.17857914936567512,-0.08503587741420696,1.4530092265035481,-0.40698655731569444
1773063234317063424,2.29244327545166,5.541123867034912,-0.5794869065284729,-1.5759375095367432,0.9876063466072083,0.09179011732339859,-0.12731251120567322,-0.008297264575958252,0.0787878930568695,-0.17192763090133667,0.7234766125494566,0.11682635627816124,0.650150251643574,-0.2005939323479325,-0.09191950449685579,1.4425931827158038,-0.4600958009721906
1773063234327099392,2.3024792671203613,5.89986515045166,-0.10782645642757416,-1.2476304769515991,0.9856929779052734,0.09894735366106033,-0.1364510953426361,0.21424293518066406,0.30074137449264526,-0.6912161111831665,0.7195026937130935,0.13234622902272347,0.6436294968777665,-0.22481434699418737,-0.09910952768889164,1.4332389288031504,-0.5193413890936618
1773063234337135360,2.3125152587890625,5.740417957305908,0.19635920226573944,-0.8235434889793396,0.9848560094833374,0.10024942457675934,-0.14145152270793915,0.05232959985733032,0.43986591696739197,-0.5563176274299622,0.7138887267239817,0.15055490246002495,0.6376577898625274,-0.24716103359133726,-0.10041810246351922,1.428145279344844,-0.5795588415732144
1773063234347172352,2.32255220413208,4.5698394775390625,-0.111219123005867,-1.2507041692733765,0.9839081764221191,0.10289740562438965,-0.146071195602417,-0.09952408075332642,0.05327628552913666,-0.2859508991241455,0.7082122692802089,0.16592807036873639,0.632006547190697,-0.2673405822925927,-0.1030798542966858,1.4234126431143634,-0.6329711674866233
1773063234357208320,2.3325881958007812,3.2156591415405273,-0.5312176942825317,-1.4915729761123657,0.9819270372390747,0.11071854084730148,-0.15349507331848145,-0.1349421739578247,-0.6209877133369446,-0.036919355392456055,0.7040381687020544,0.174812612199945,0.626652227011009,-0.2847417015392977,-0.1109460060592993,1.4157310183255492,-0.6736811397629292
1773063234367244288,2.3426241874694824,1.7741248607635498,-1.0056134462356567,-1.7648953199386597,0.9787678122520447,0.12277482450008392,-0.16413374245166779,-0.12996721267700195,-0.7887599468231201,0.2681223750114441,0.7018772834683267,0.1774148351995475,0.6216567442581011,-0.2990570879522665,-0.12308538161208035,1.4046480041431202,-0.7013723911294801
1773063234377281280,2.3526611328125,1.5417050123214722,-1.3527034521102905,-1.4959181547164917,0.9745743870735168,0.1364509016275406,-0.17772457003593445,-0.013087570667266846,-0.4062873125076294,-0.08909064531326294,0.7016271990347399,0.17587853862846115,0.6166072139480584,-0.31077582709600055,-0.13687791489234677,1.3904172227533609,-0.7196994778903208
1773063234387317248,2.362697124481201,2.267247200012207,-1.0622564554214478,-1.3511537313461304,0.9702877402305603,0.14645734429359436,-0.19259291887283325,-0.020382344722747803,0.17612873017787933,-0.5889775156974792,0.7015467791427563,0.17638467665761662,0.610403131547725,-0.32268964586203486,-0.14698603529177887,1.374852598872302,-0.7414769872321808
1773063234397353216,2.3727331161499023,2.496751308441162,-0.9155638813972473,-1.5843985080718994,0.9661255478858948,0.1558501273393631,-0.20569930970668793,-0.16624456644058228,0.2830689251422882,-0.6163984537124634,0.6999682817075696,0.17875538467232052,0.6043151943376232,-0.3359971227355303,-0.15648804569732022,1.361017164858788,-0.7683019891777161
1773063234407390464,2.382770299911499,2.64957594871521,-0.9323516488075256,-1.7532471418380737,0.961453914642334,0.16659551858901978,-0.2187519669532776,-0.4484381675720215,0.3280944228172302,-0.7163829207420349,0.6975203470475797,0.18114734025911336,0.5981719317606988,-0.35048738064072527,-0.16737591949288,1.3470826614906395,-0.7975682715934986
1773063234417426432,2.3928062915802,2.6229116916656494,-0.9680827856063843,-1.7924206256866455,0.95622718334198,0.1776609718799591,-0.23252108693122864,-0.5775193572044373,0.456997811794281,-0.488639771938324,0.6947444257544889,0.18342295347446447,0.5916886657486928,-0.36550060077355545,-0.17860910420820555,1.3322607813965575,-0.8280828459343628
1773063234427462400,2.4028422832489014,2.298678159713745,-0.9918304681777954,-1.8159071207046509,0.9505595564842224,0.1889837682247162,-0.24641776084899902,-0.5002269148826599,0.5442925691604614,-0.304882287979126,0.6919649930060955,0.18487713137273631,0.5853303018056893,-0.37999124205370327,-0.19012716595447016,1.317145488209085,-0.8570756494866881
1773063234437499392,2.412879228591919,1.7116076946258545,-1.0893447399139404,-1.9195221662521362,0.9442844390869141,0.20152558386325836,-0.2602197229862213,-0.38796424865722656,0.6140413880348206,-0.2545660138130188,0.689494785874842,0.18446188832501642,0.5795377091818518,-0.39332782218165663,-0.2029152173684037,1.3018970729787995,-0.8820445625230791
1773063234447535360,2.42291522026062,1.0126405954360962,-1.2994577884674072,-2.0614013671875,0.9368699193000793,0.21671484410762787,-0.2744254171848297,-0.3529924154281616,0.5718288421630859,-0.156101256608963,0.6877326272373872,0.18097174422481302,0.5744880456378694,-0.40526099527078946,-0.21844808199615096,1.2858500042905927,-0.9010611964002935
1773063234457572096,2.4329521656036377,0.5457740426063538,-1.3524115085601807,-2.154679775238037,0.9283146858215332,0.23430843651294708,-0.28867170214653015,-0.4004674553871155,0.4998987019062042,-0.07515886425971985,0.6865407604072499,0.1747935357270321,0.5701853748059903,-0.41592982890757507,-0.23650714117137323,1.269312135425532,-0.9148912537303862
1773063234467608320,2.442988157272339,0.06175345554947853,-1.3614510297775269,-2.2709150314331055,0.9188733696937561,0.2538769841194153,-0.3020234704017639,-0.4317517876625061,0.44850030541419983,-0.06307348608970642,0.6854506265041692,0.16673187872204692,0.5667351599394078,-0.4256396640759986,-0.2566864704895346,1.253231560362647,-0.9250694726583022
1773063234477644288,2.45302414894104,-0.43924158811569214,-1.3506885766983032,-2.307778835296631,0.9085832238197327,0.27558428049087524,-0.3138943910598755,-0.47213613986968994,0.47797098755836487,-0.05816057324409485,0.6845202969995255,0.15656226160185138,0.564394415929292,-0.4340265860744897,-0.27919745713939065,1.2381567783522147,-0.9306041138266092
1773063234487681024,2.4630610942840576,-0.7152265906333923,-1.3691463470458984,-2.4197733402252197,0.8974596858024597,0.29871776700019836,-0.3245517313480377,-0.5323321223258972,0.5780980587005615,-0.04484832286834717,0.6836455657275102,0.14494972312259835,0.5627732385485888,-0.4414799811572256,-0.3033487917220078,1.2237951745958868,-0.9330914791362879
1773063234497717248,2.473097085952759,-1.162710428237915,-1.328927993774414,-2.6831302642822266,0.8850055932998657,0.3246302902698517,-0.3337370753288269,-0.5937153100967407,0.5529332160949707,0.023647964000701904,0.6824092463257946,0.13153103023619736,0.5619884749059876,-0.4485379065792467,-0.33062081764144613,1.2101843646847272,-0.933200124418941
1773063234507753216,2.48313307762146,-1.4535905122756958,-1.277125597000122,-2.886472702026367,0.8710666298866272,0.35370883345603943,-0.34078311920166016,-0.6370273232460022,0.5051626563072205,0.045617103576660156,0.68059965423751,0.11616010941689096,0.5622412946482946,-0.45516568572390576,-0.3615332989505789,1.197877358831283,-0.9307004516082448
1773063234517790208,2.4931702613830566,-1.6191630363464355,-1.10806405544281,-2.99753475189209,0.8560065031051636,0.3845606744289398,-0.34549421072006226,-0.646869421005249,0.5150671005249023,0.07970133423805237,0.6780398810271379,0.09983282261218628,0.5632817279442913,-0.46152920612071907,-0.3947318431317919,1.1871803230957905,-0.9270399220078563
1773063234527826432,2.503206253051758,-1.7041261196136475,-0.7418806552886963,-2.9436609745025635,0.840797483921051,0.4157373905181885,-0.3467308282852173,-0.6405104994773865,0.4964636266231537,0.0646110475063324,0.6745110696033884,0.08354537788679423,0.5653801923745985,-0.4673332643378802,-0.42875341680396967,1.1796604997346938,-0.9224088830228407
1773063234537862400,2.513242244720459,-1.8043341636657715,-0.5166292190551758,-2.9577863216400146,0.8259479403495789,0.4463796615600586,-0.3443182408809662,-0.6323597431182861,0.45369046926498413,0.005222231149673462,0.6699773927026211,0.06785968146875386,0.5685384218595417,-0.4725349544127098,-0.46271544622600275,1.1758264542518022,-0.9170508339286265
1773063234547899136,2.5232791900634766,-2.1168198585510254,-0.502404510974884,-3.0428872108459473,0.8103006482124329,0.47776105999946594,-0.33934807777404785,-0.5887278914451599,0.38165968656539917,-0.045799046754837036,0.6648408819231687,0.05151020233345645,0.5724269932959097,-0.4771378958594529,-0.4981043007355866,1.1741949746838851,-0.9097074568666182
1773063234557935360,2.5333151817321777,-2.1722095012664795,-0.6318142414093018,-3.0685555934906006,0.7932347655296326,0.5097541213035583,-0.333060622215271,-0.5289525389671326,0.28214651346206665,-0.039116501808166504,0.6595788873680921,0.0340763984696774,0.5764620476225134,-0.4811299160371724,-0.5348989738113148,1.1732733356406142,-0.9001156826436735
1773063234567971328,2.543351173400879,-1.629255771636963,-0.7048554420471191,-3.1030919551849365,0.7747024297714233,0.5403711795806885,-0.3283824622631073,-0.4610275626182556,0.16032761335372925,0.044324904680252075,0.6543325545594769,0.017162714592410505,0.5792358834137357,-0.48583958497711077,-0.5708781984010458,1.1698729679092121,-0.893472108835882
1773063234578008064,2.5533881187438965,-1.12270188331604,-0.4988861083984375,-3.169006109237671,0.7551796436309814,0.5689692497253418,-0.32554230093955994,-0.39902424812316895,0.0841526985168457,0.19646823406219482,0.648489526193043,0.002042255076987505,0.5807104892885893,-0.4921712668545538,-0.6052519314135445,1.1637877331044437,-0.8932443843349607
1773063234588044288,2.5634241104125977,-0.4544751048088074,-0.1953195482492447,-3.153569459915161,0.7355663776397705,0.5952962636947632,-0.32336464524269104,-0.36692923307418823,0.2703500986099243,0.33387792110443115,0.6416118470943941,-0.010695223752549292,0.5815524884920175,-0.5000166788608384,-0.6376342977677402,1.1566136138905314,-0.8995704877268289
1773063234598081280,2.5734612941741943,0.38332489132881165,0.18670523166656494,-3.1463940143585205,0.7163224220275879,0.6183269619941711,-0.3233480751514435,-0.3813157081604004,0.6388751864433289,0.33358675241470337,0.6336649048933976,-0.01999288243548182,0.5813142449651542,-0.5100420396486167,-0.6666121806070064,1.146778639327777,-0.915533545649104
1773063234608117248,2.5834972858428955,0.6560909152030945,0.5480125546455383,-3.1579935550689697,0.6977126598358154,0.6388140916824341,-0.3242121636867523,-0.4164779782295227,0.7294567227363586,0.2782832682132721,0.624466470325327,-0.026383092581878317,0.5806873957327005,-0.5216777469449924,-0.6929558659387716,1.135802930189844,-0.9391103624989381
1773063234618153216,2.5935332775115967,0.15022647380828857,0.6118131875991821,-3.2249367237091064,0.6788656115531921,0.6593864560127258,-0.3230343759059906,-0.40597736835479736,0.5673440098762512,0.1599789559841156,0.6143321900892035,-0.032675992051645,0.5808744143676046,-0.5330227912602554,-0.7200023396828276,1.1266592709700478,-0.9624931855210392
1773063234628190208,2.6035702228546143,-1.0346647500991821,0.42515939474105835,-3.1954891681671143,0.6588335633277893,0.6823790073394775,-0.3166976571083069,-0.2819262146949768,0.38688069581985474,0.1203475296497345,0.6040239161646241,-0.04195605548194702,0.5830015984346,-0.5417601862921665,-0.7510122066310663,1.1227120852093875,-0.9762257056544893
1773063234638226176,2.6136062145233154,-2.3221023082733154,0.2510102391242981,-2.940483331680298,0.6383561491966248,0.7076924443244934,-0.3027753233909607,-0.055149972438812256,0.1744639277458191,0.2123059630393982,0.5942076286727025,-0.05516168778683963,0.587851620451808,-0.5461730766907966,-0.7862267643741093,1.1279154636760353,-0.9735843217900095
1773063234648262144,2.6236422061920166,-3.4748992919921875,0.2681924104690552,-2.4532904624938965,0.6195205450057983,0.7332857251167297,-0.28015390038490295,0.19485622644424438,-0.09006679058074951,0.27765151858329773,0.5851382245720127,-0.0711297208921275,0.5957042967050252,-0.5456098781808537,-0.8231419683313379,1.146105388873463,-0.951802328961481
1773063234658299136,2.633679151535034,-4.461625576019287,0.46610698103904724,-2.131765842437744,0.6034429669380188,0.7577893733978271,-0.24821718037128448,0.3714104890823364,-0.3853529095649719,0.37182867527008057,0.5762691343828807,-0.0886027566831854,0.6066637973040195,-0.5403910071679379,-0.8599185029817836,1.1805568062901217,-0.9104160974158272
1773063234668335104,2.6437151432037354,-5.385622978210449,0.8064779043197632,-1.990930199623108,0.588962733745575,0.7813805937767029,-0.20631888508796692,0.4349477291107178,-0.4893730878829956,0.5092058181762695,0.5663401323137474,-0.107379855496873,0.6207335393723183,-0.5314305491562351,-0.8968750284486467,1.2338463697183613,-0.8494953661126411
1773063234678371328,2.6537513732910156,-5.797206401824951,1.0707145929336548,-1.7985612154006958,0.575547456741333,0.802757978439331,-0.1559636890888214,0.4152666926383972,-0.32022935152053833,0.6393773555755615,0.5550216810223514,-0.12675320844746688,0.6371434530696173,-0.519550533535609,-0.9319060736693662,1.3061683334112704,-0.7702214523661626
1773063234688408320,2.663788318634033,-5.431491851806641,1.5549778938293457,-1.5673465728759766,0.5635252594947815,0.8197271823883057,-0.10240413248538971,0.3984193205833435,-0.13633179664611816,0.7568840980529785,0.5426018994954854,-0.1444341796906195,0.6541687093976808,-0.5067398259665672,-0.9609345549211482,1.391037313200038,-0.6818055334768583
1773063234698444288,2.6738243103027344,-4.7498250007629395,1.9199086427688599,-1.5021178722381592,0.5521544814109802,0.8322206139564514,-0.050341926515102386,0.4281921982765198,-0.15531021356582642,0.7849916219711304,0.5290458119820974,-0.1588276222847148,0.6705242902770291,-0.4952590621035872,-0.9831008872829949,1.47987408354439,-0.5955725295757625
1773063234708480256,2.6838603019714355,-3.9337010383605957,2.1323132514953613,-1.2938299179077148,0.540729820728302,0.8411926627159119,-0.00250488449819386,0.4779927134513855,-0.19367069005966187,0.7332635521888733,0.5150087006781706,-0.1700995116872023,0.6854295834594054,-0.4858173768276537,-0.9994850812403908,1.5661639455912977,-0.5168853466026289
1773063234718517248,2.693897247314453,-2.938692331314087,2.28018856048584,-1.0053679943084717,0.5306394100189209,0.8467196822166443,0.038568757474422455,0.5720979571342468,-0.015985488891601562,0.6971795558929443,0.5015634402547602,-0.17751531918507485,0.698407253001775,-0.4786958327476224,-1.009789128498706,1.6433522946004928,-0.4517080627495539
1773063234728553216,2.7039332389831543,-1.6265349388122559,2.496211528778076,-0.8932846188545227,0.5213108658790588,0.850424587726593,0.07080212980508804,0.7240350842475891,0.1355983018875122,0.6252732276916504,0.48882781523421015,-0.1808838099398717,0.7090007849462016,-0.47502240247482574,-1.0167918203081787,1.7057859335638406,-0.4062882235750802
1773063234738590464,2.713970422744751,-0.4160934090614319,2.6865105628967285,-0.9233220815658569,0.5114346742630005,0.8542949557304382,0.0928155779838562,0.8345431089401245,0.14701730012893677,0.506702184677124,0.476473540764821,-0.18035125961331214,0.7168550856810676,-0.475988627270825,-1.0241928931633957,1.7503232392216441,-0.3846039545900593
1773063234748626432,2.724006414413452,-1.2285447120666504,1.3344929218292236,-0.8465503454208374,0.5012642741203308,0.8584522604942322,0.10859845578670502,0.8265402317047119,0.13858741521835327,0.4823744297027588,0.4657020176309909,-0.1794941514218372,0.7225517821137661,-0.4783537196107115,-1.0322443097777825,1.784148202525764,-0.3714282652027228
1773063234758662400,2.7340424060821533,-3.0966506004333496,-0.863154947757721,1.5212002992630005,0.502650797367096,0.8541510701179504,0.1332969069480896,0.7516826391220093,0.23737108707427979,0.4120980501174927,0.4647662667352512,-0.18765833179553526,0.7289943781794911,-0.4662015199244553,-1.0239162203847472,1.8300176155788705,-0.3122374214434863
1773063234768699392,2.744079351425171,2.876608371734619,2.1794240474700928,1.9060078859329224,0.5210517048835754,0.8431748747825623,0.13251861929893494,1.1730247735977173,-0.35554981231689453,-1.3608053922653198,0.46838122555245215,-0.17716298277627743,0.7313498381990944,-0.46298995213501964,-1.0031613897663638,1.8198452781067926,-0.33070211760032453
1773063234778735360,2.754115343093872,-1.6728792190551758,1.5363024473190308,-3.6849148273468018,0.5096307396888733,0.8490759134292603,0.13909116387367249,2.3184332847595215,-3.2163703441619873,-4.5398783683776855,0.4579984690405412,-0.17360954306533066,0.7344421760621843,-0.4697783734680709,-1.0142335568590921,1.8372327517301597,-0.33825712727308965
1773063234788771328,2.7641513347625732,-2.530334711074829,-0.1540830433368683,-1.5641801357269287,0.48258623480796814,0.8608410954475403,0.1614416390657425,1.724689245223999,-3.060380220413208,-0.4174383878707886,0.44729360497577125,-0.1897346969212596,0.7380525460467892,-0.46819624061896853,-1.0369202107846565,1.8936273375096468,-0.27620662086043885
1773063234798808320,2.774188280105591,0.13504771888256073,1.002421259880066,0.6494340300559998,0.48088836669921875,0.8592272400856018,0.174571692943573,1.2094039916992188,0.8053084015846252,2.565311908721924,0.44394877022288887,-0.1915984948795169,0.7420079929119506,-0.464353085267716,-1.0337572449657777,1.9190220978987362,-0.2528097894784272
1773063234808844288,2.784224271774292,2.1870439052581787,0.6227631568908691,-1.2001688480377197,0.4771689176559448,0.8625494241714478,0.16828112304210663,0.7861825227737427,1.8123927116394043,0.7181782722473145,0.44131007129916044,-0.18789799823006104,0.7408339243190237,-0.470217991179177,-1.040286921805332,1.9098439882803104,-0.2734110249969543
1773063234818880256,2.794260263442993,1.4167907238006592,0.4723069667816162,-0.8541098833084106,0.466226726770401,0.8713018894195557,0.15318629145622253,0.013524860143661499,0.6663111448287964,-0.26376664638519287,0.43854449408515717,-0.18656165139714925,0.7360624277295906,-0.4807137822054246,-1.0578489510965043,1.8882502415721858,-0.3041852426578342
1773063234828917248,2.8042972087860107,-1.4894906282424927,1.0032778978347778,-0.4434102177619934,0.4604579210281372,0.873704731464386,0.15690338611602783,-0.09287369251251221,-0.4317644238471985,-0.28805267810821533,0.43476818110059384,-0.18719361066813098,0.7371636496773356,-0.4822084397239459,-1.062766728122148,1.8992115407140673,-0.29904332664582095
1773063234838953472,2.814333438873291,-1.8652715682983398,1.1157870292663574,-1.062864899635315,0.45195576548576355,0.8741773962974548,0.1776226907968521,0.26267436146736145,-0.44098037481307983,0.18443787097930908,0.42708925286633304,-0.19112324328990374,0.7431576236344176,-0.47831306665579393,-1.0637392003946788,1.9452615021093007,-0.25926556200091766
1773063234848989440,2.824369430541992,-1.0693187713623047,0.41535574197769165,-1.0090218782424927,0.4411414563655853,0.8760682940483093,0.19467614591121674,0.46408629417419434,0.19412225484848022,0.5396683216094971,0.4202192829361947,-0.19667668470142272,0.7474331795688399,-0.4754763522388577,-1.0676468542247988,1.98639264305661,-0.2207986420629165
1773063234859026432,2.8344063758850098,0.9548969864845276,0.3501710891723633,-0.797520637512207,0.4327520728111267,0.8797953724861145,0.19668692350387573,0.3663201928138733,0.730876624584198,0.523833155632019,0.416802369546173,-0.19929364876655498,0.74741253647399,-0.4774225745971951,-1.0754315378206085,1.9973882653969897,-0.21210974725555198
1773063234869062400,2.844442367553711,1.855578064918518,0.29396775364875793,-1.1822131872177124,0.42358288168907166,0.8868195414543152,0.1847400963306427,0.17857471108436584,0.8048003911972046,0.2392711639404297,0.414744110811826,-0.19894781866725414,0.7434983626015098,-0.4854043255251074,-1.0904166126573873,1.982062044483168,-0.23322458860636203
1773063234879099392,2.8544793128967285,1.524782657623291,0.28764837980270386,-1.3515735864639282,0.4112890660762787,0.8954504728317261,0.17032165825366974,-0.16145697236061096,0.2303580641746521,-0.03537300229072571,0.41220259261853265,-0.19954630237269885,0.7384728171001091,-0.4949020912518166,-1.1094421443958833,1.963412708985093,-0.257301242947169
1773063234889135360,2.8645153045654297,0.47550949454307556,0.5027921199798584,-1.0668693780899048,0.39978542923927307,0.9020758867263794,0.16257500648498535,-0.40834560990333557,-0.16419142484664917,0.04148077964782715,0.4087819245952923,-0.20087418713268823,0.7354842366007294,-0.5016072446359391,-1.124555660841546,1.9570271314511145,-0.26880075201993364
1773063234899171328,2.874551296234131,-0.6024535298347473,0.8079400062561035,-1.1448371410369873,0.3887643814086914,0.9061667323112488,0.16650596261024475,-0.4063577353954315,-0.4505850672721863,0.016309618949890137,0.40345747398148735,-0.2035774078335473,0.7360769099728648,-0.5039534916712272,-1.134130319525921,1.9754548175440767,-0.2556611243958078
1773063234909208320,2.8845882415771484,0.1257510781288147,0.9039051532745361,-1.0540441274642944,0.37700214982032776,0.9099178910255432,0.1729714423418045,-0.14722001552581787,-0.6415614485740662,-0.06020902097225189,0.39701342174290477,-0.20620702274364522,0.7375394117629671,-0.5058604077604726,-1.143086054115874,2.000950440117426,-0.23726769389844352
1773063234919244288,2.8946242332458496,1.645117163658142,0.754715621471405,-0.7129607200622559,0.3674907684326172,0.9147897958755493,0.16765998303890228,0.24521058797836304,-0.39014703035354614,-0.28991344571113586,0.39257670436284775,-0.20544783525197458,0.7359491700270699,-0.5119115363691349,-1.154987248529569,1.9988182992967032,-0.2489701017419427
1773063234929280256,2.904660224914551,2.043510675430298,0.5376988649368286,-0.47894740104675293,0.36108651757240295,0.9199062585830688,0.1529339849948883,0.44482168555259705,0.1331026554107666,-0.3742474317550659,0.3906125768442322,-0.20230948894880246,0.7318045256257208,-0.5205331153152615,-1.1678413205037816,1.9714282799567084,-0.2857945766239284
1773063234939317504,2.9146974086761475,1.6549797058105469,0.47796007990837097,-0.7593774199485779,0.3549511134624481,0.9247949719429016,0.13698068261146545,0.2660968601703644,0.5293369889259338,-0.0013147741556167603,0.38917574630824325,-0.1993790600690514,0.7271439530262678,-0.5291991801548899,-1.1804963133372168,1.9391011151978526,-0.326282727762745
1773063234949353472,2.9247334003448486,0.8816112875938416,0.4835908114910126,-1.0323835611343384,0.34569475054740906,0.9297116994857788,0.12700985372066498,-0.09166643023490906,0.26102328300476074,0.10414554178714752,0.3861695658830166,-0.19898352340468067,0.7238166112295051,-0.536067386971357,-1.1936293142369552,1.922891500442675,-0.34909084901784393
1773063234959390464,2.934770345687866,0.7541913986206055,0.3519313633441925,-0.869802713394165,0.33623620867729187,0.9339341521263123,0.1212945207953453,-0.33451199531555176,-0.08794111013412476,0.18176031112670898,0.3828112830478351,-0.1998134127351863,0.7216106006255225,-0.5411176711419092,-1.205265505164233,1.917008596036345,-0.35999462548430067
1773063234969426432,2.9448063373565674,0.6770694851875305,0.22051237523555756,-0.9225947856903076,0.32758957147598267,0.9377480149269104,0.11538605391979218,-0.20930340886116028,0.09876638650894165,0.13580407202243805,0.3801236961602416,-0.20086412840684284,0.7192681209807322,-0.5457224878244544,-1.2160885035503175,1.9094541781089887,-0.37104631779670977
1773063234979462400,2.9548423290252686,0.6106873750686646,0.23421956598758698,-0.8726476430892944,0.31878960132598877,0.9413928389549255,0.11023898422718048,0.07310181856155396,0.2581310272216797,0.008764378726482391,0.37745187028571153,-0.20232639730271085,0.717065912399234,-0.5499186706139425,-1.226735968222724,1.9037289225875371,-0.37954338440868224
1773063234989499392,2.964879274368286,0.5770055651664734,0.2191774994134903,-0.7507947087287903,0.31086093187332153,0.9446045756340027,0.10529899597167969,0.26836270093917847,0.20462650060653687,0.041475310921669006,0.37499498135767917,-0.20348400859721147,0.7150131164094184,-0.5538315160915341,-1.2363876720768656,1.8973990754404757,-0.3886782642502277
1773063234999535360,2.9749152660369873,0.5228764414787292,0.18140597641468048,-0.6937388777732849,0.30383074283599854,0.9474003911018372,0.10059570521116257,0.44406354427337646,0.05494946241378784,-0.07114613056182861,0.3728600105858477,-0.20446547568630025,0.7130860552669889,-0.5573846074178351,-1.2450132131691096,1.8905276792189312,-0.39802045312128986
1773063235009571328,2.9849512577056885,0.48045098781585693,0.24046237766742706,-0.6711406111717224,0.29718294739723206,0.9499308466911316,0.09650762379169464,0.46810635924339294,0.008473694324493408,-0.04813730716705322,0.37071417452150435,-0.20535888272031919,0.7113940828263169,-0.560639998324088,-1.253014521808794,1.8847943797858135,-0.40631313297250093
1773063235019608320,2.994988203048706,0.5325861573219299,0.24196244776248932,-0.7216295003890991,0.2902546226978302,0.9524593353271484,0.09259407222270966,0.2655315399169922,0.07450306415557861,0.06821835786104202,0.3683785798809438,-0.2062876194780969,0.7097481619524407,-0.5639151241966743,-1.2612088296352002,1.879600795993799,-0.4143033469197373
1773063235029644544,3.0050244331359863,0.700165867805481,0.2757917642593384,-0.7835650444030762,0.28288590908050537,0.9551672339439392,0.08735470473766327,0.04311808943748474,0.06909412145614624,0.09768854826688766,0.3660018141747022,-0.2070664773070698,0.7076728247022949,-0.567772145375657,-1.2702241687819833,1.870305330514635,-0.42672933023713344
1773063235039680512,3.0150604248046875,0.8832129836082458,0.31237900257110596,-0.7831763625144958,0.274964302778244,0.9580753445625305,0.08053839951753616,0.011092215776443481,0.03997164964675903,-0.02073919028043747,0.36348123795545956,-0.20757787105152442,0.7051103643513119,-0.5723742592933438,-1.280207622313108,1.8557312166295459,-0.44511863909216004
1773063235049717504,3.025097370147705,1.049595832824707,0.28905558586120605,-0.6615031957626343,0.26780185103416443,0.9607772827148438,0.07203720510005951,0.04945892095565796,0.1109238862991333,-0.023697368800640106,0.3613573344086976,-0.20750014332970226,0.7021127352943666,-0.5774100278414319,-1.2897915065453525,1.8335706801477336,-0.4713378123091465
1773063235059753472,3.0351333618164062,0.996429979801178,0.24526488780975342,-0.6595965027809143,0.2613150179386139,0.9632161855697632,0.06268295645713806,0.07350856065750122,0.1357523798942566,0.05380260944366455,0.3596039072326123,-0.2071357924435427,0.6988821378847149,-0.5825320429308504,-1.2987243241089192,1.8062231748511843,-0.5025441671598343
1773063235069790464,3.045170307159424,0.7925029397010803,0.25408023595809937,-0.7284040451049805,0.2544827461242676,0.9655338525772095,0.054616399109363556,0.06070280075073242,0.03889119625091553,-0.046864867210388184,0.35765362341176754,-0.20721800498677848,0.6959661609405681,-0.5871760543382154,-1.3074867885078392,1.7822066650466422,-0.5299949890351084
1773063235079826432,3.055206298828125,0.630806028842926,0.22340863943099976,-0.8056812286376953,0.24685581028461456,0.967838704586029,0.04848348721861839,-0.01139742136001587,-0.065449059009552,-0.022513024508953094,0.3552454192394898,-0.20795266199116288,0.6935397848613941,-0.5912351741536584,-1.3164925972904908,1.7647318847469633,-0.5505917659847993
1773063235089862400,3.065242290496826,0.8606080412864685,0.20747840404510498,-0.7624070048332214,0.23912762105464935,0.9700822830200195,0.0419340617954731,-0.05258893966674805,-0.02801990509033203,0.09853839874267578,0.35296380839298724,-0.2087932293677821,0.6909214271829479,-0.5953566989634382,-1.3255696043254186,1.7443938821713614,-0.5736703146505172
1773063235099899392,3.0752792358398438,0.8525106310844421,0.20168159902095795,-0.8326748013496399,0.23131613433361053,0.9722900986671448,0.033839575946331024,0.01753947138786316,0.07054144144058228,0.04686415567994118,0.35080682425035187,-0.20937867232108534,0.6878083743431134,-0.6000124277329592,-1.3348351087476296,1.7160573897239664,-0.6049374317994825
1773063235109935360,3.085315227508545,0.4779364764690399,0.19456057250499725,-0.8641757369041443,0.2227819263935089,0.9744738340377808,0.027728762477636337,0.1336328536272049,0.008802473545074463,0.04932808876037598,0.34822191300459726,-0.21060131692948597,0.6852090680748009,-0.6040505776589755,-1.344365370443964,1.6946254471545366,-0.6289633002988773
1773063235119971328,3.095351219177246,0.38967207074165344,0.193974107503891,-0.7291015982627869,0.21505479514598846,0.9763087034225464,0.023926813155412674,0.15724439918994904,-0.07109642028808594,0.21755874156951904,0.345610978079556,-0.21193073143065427,0.683409666074029,-0.6071157390807189,-1.3526888394860344,1.681599773889004,-0.6443771207271722
1773063235130008576,3.1053884029388428,0.2144957333803177,0.14470908045768738,-0.851111114025116,0.20728853344917297,0.9780457615852356,0.021399004384875298,0.14317533373832703,-0.16990983486175537,0.15386343002319336,0.34292691544535,-0.21359054884616835,0.6819666995878638,-0.6096733818282121,-1.3608676690383272,1.6736648725585284,-0.6542786941683008
1773063235140044544,3.115424394607544,0.4388386309146881,0.03791183605790138,-0.7989893555641174,0.19906167685985565,0.9798102974891663,0.018609417602419853,0.060200393199920654,-0.17452770471572876,0.03804647922515869,0.34035823337721854,-0.21562334109242584,0.6803023470288443,-0.6122512811490585,-1.3695105630542108,1.6640110894850009,-0.6651463536775981
1773063235150080512,3.125460386276245,0.5748481750488281,-0.030787598341703415,-0.8353745341300964,0.19113831222057343,0.9814711213111877,0.013451062142848969,-0.12042908370494843,0.04857355356216431,-0.012596605345606804,0.33844325989246343,-0.21746876195826323,0.6778147744318084,-0.6154110722490447,-1.377993854229584,1.6410539426794593,-0.6885724882330846
1773063235160117504,3.1354973316192627,0.6103708148002625,-0.08944232016801834,-0.8596035242080688,0.18270932137966156,0.9831392168998718,0.007384730502963066,-0.22218379378318787,0.09335309267044067,-0.1695704460144043,0.3366564205566773,-0.21953244979312025,0.6749058221280269,-0.6188457315371619,-1.3869028607603384,1.611192258926132,-0.7183659985995409
1773063235170153472,3.145533323287964,0.4107477366924286,-0.12553268671035767,-0.85503751039505,0.17430000007152557,0.9846906065940857,0.0020390169229358435,-0.24961739778518677,-0.011149227619171143,-0.11019325256347656,0.33496931774541233,-0.22189403109566608,0.6721477124729611,-0.6219133350802047,-1.3955902335251464,1.5824941107488222,-0.7463598795786903
1773063235180190208,3.1555702686309814,0.32391688227653503,-0.16639359295368195,-0.8891836404800415,0.16558103263378143,0.9861945509910583,-0.0018034068634733558,-0.15944699943065643,-0.24792855978012085,-0.04339313507080078,0.33310341582527164,-0.22470166775339198,0.6697816488082591,-0.6244548284279655,-1.4044393179774357,1.5599053715774944,-0.7678181494908517
1773063235190226432,3.1656062602996826,0.3388742506504059,-0.2119685411453247,-0.7398982644081116,0.15750260651111603,0.987502932548523,-0.005558965262025595,-0.08345170319080353,-0.13146960735321045,0.012562751770019531,0.3315874717831987,-0.2274626717152016,0.6674438180669677,-0.6267608924886103,-1.4125357444523639,1.53551653593868,-0.7905667651272863
1773063235200262400,3.175642251968384,0.2287445068359375,-0.20604318380355835,-0.6714878082275391,0.15052400529384613,0.9885682463645935,-0.008677410893142223,-0.015880480408668518,0.05719280242919922,0.08475768566131592,0.33038437378834395,-0.22998681390748038,0.6654076646132362,-0.6286373144252557,-1.419445252631166,1.5132120410954486,-0.8110616205462242
1773063235210299392,3.1856794357299805,0.40157780051231384,-0.2743695080280304,-0.6179375052452087,0.14407826960086823,0.9894942045211792,-0.011939585208892822,0.09917734563350677,-0.0026778578758239746,0.16841846704483032,0.3294551445818674,-0.23238955970302455,0.663344028265532,-0.630419735590146,-1.425715375572785,1.4881165003083812,-0.8340806798210905
1773063235220335360,3.1957154273986816,0.5582460165023804,-0.2888478636741638,-0.6540863513946533,0.13782992959022522,0.9903029799461365,-0.017400605604052544,0.10895046591758728,-0.00901031494140625,0.05531871318817139,0.32902446379256467,-0.23453334636971873,0.660525401703792,-0.6328057646530015,-1.4314210648198171,1.4452137648808916,-0.87451133110568
1773063235230371584,3.205751419067383,0.5106276273727417,-0.2509191334247589,-0.6929283142089844,0.13095857203006744,0.991120457649231,-0.023028401657938957,0.05956265330314636,0.0691366195678711,-0.142300546169281,0.3283627668734767,-0.23678731195510078,0.6575846467761783,-0.6353677768357024,-1.4374343517289436,1.3967309442056048,-0.9207132250663365
1773063235240408320,3.2157883644104004,0.4180564284324646,-0.2050710916519165,-0.6994688510894775,0.12402678281068802,0.9918815493583679,-0.028080593794584274,0.007229328155517578,0.15805143117904663,-0.03837144747376442,0.32746188451321123,-0.23898623531993932,0.6548627965253943,-0.6378158657814128,-1.4432857019569028,1.348142613076068,-0.9674600942405903
1773063235250444288,3.2258243560791016,0.28141629695892334,-0.13972270488739014,-0.6094846129417419,0.11733317375183105,0.9925834536552429,-0.03179403021931648,0.07300495356321335,0.09989994764328003,0.01659626141190529,0.32630379912787283,-0.24113999527970204,0.6526518883204315,-0.6398615230771227,-1.4489297609687415,1.3061785486473954,-1.0080359769965486
1773063235260480512,3.2358603477478027,0.17859719693660736,-0.12357226014137268,-0.5567193031311035,0.11161557585000992,0.9931650161743164,-0.034138474613428116,0.13737735152244568,-0.0053108930587768555,0.04590302333235741,0.3251492646937355,-0.24304352150795097,0.6510457818194084,-0.6413636106766446,-1.453810779429524,1.273974273671995,-1.0392120076157214
1773063235270517248,3.2458972930908203,0.3409069776535034,-0.1622600108385086,-0.6755751371383667,0.10542729496955872,0.9937522411346436,-0.036630623042583466,0.07136102020740509,-0.079781174659729,0.028070446103811264,0.3239055331922773,-0.24511720975118687,0.6493090490696006,-0.642962383333327,-1.4589545798639214,1.2363957851861815,-1.075636078074698
1773063235280553216,3.2559332847595215,0.8694714307785034,-0.21506400406360626,-0.6362075805664062,0.09869375824928284,0.9941986799240112,-0.04276152327656746,-0.07623282819986343,-0.03065192699432373,-0.04390841722488403,0.3230978811798722,-0.24693310580123146,0.6462532628004489,-0.6457464723172677,-1.463028409022314,1.1619377290144934,-1.1486301869241895
1773063235290590208,3.265970230102539,1.0353187322616577,-0.22795157134532928,-0.5472047328948975,0.09276308864355087,0.9942808151245117,-0.052923090755939484,-0.15848271548748016,0.12775909900665283,-0.1341496706008911,0.32316697309821585,-0.24793509294503766,0.6419241726145366,-0.6496343224897442,-1.4637949914537203,1.052336268235786,-1.2565935013830511
1773063235300626176,3.2760062217712402,0.8740589618682861,-0.20016427338123322,-0.5002284646034241,0.08738123625516891,0.994204044342041,-0.06263371556997299,-0.0898531824350357,0.14321660995483398,-0.0897405743598938,0.32332215737530695,-0.24878132052364885,0.6378016906477986,-0.6532837742506524,-1.4630782720525841,0.9488926854400656,-1.358468169051734
1773063235310662144,3.2860422134399414,0.7072300314903259,-0.20194007456302643,-0.4311412572860718,0.08258994668722153,0.9940697550773621,-0.070740707218647,0.009512104094028473,0.00922614336013794,0.057892799377441406,0.32343522189150103,-0.24965099249507555,0.6342744118561451,-0.6563230915482732,-1.461836365669089,0.8625238973946109,-1.443283477991289
1773063235320699392,3.296079397201538,0.7301404476165771,-0.23103204369544983,-0.3849504292011261,0.07842761278152466,0.9938645958900452,-0.07798990607261658,0.07554882764816284,-0.12808078527450562,0.03230511397123337,0.3236592304026147,-0.25045881596266956,0.6310906654347646,-0.658968671913664,-1.4599657025117598,0.7881964648666453,-1.5159668413296246
1773063235330735360,3.3061153888702393,0.828262984752655,-0.31389978528022766,-0.43233150243759155,0.07418607920408249,0.9935380220413208,-0.08589904755353928,0.06349396705627441,-0.0764542818069458,-0.021599113941192627,0.32416284445962196,-0.2513843242897697,0.6275797945363678,-0.6617159312711716,-1.4570513492286639,0.712361188333378,-1.5895120170668593
1773063235340771328,3.3161513805389404,1.1044358015060425,-0.3168708384037018,-0.6099698543548584,0.06876788288354874,0.9930300116539001,-0.0957203358411789,-0.02335771918296814,0.039623796939849854,-0.05056571960449219,0.3246750012200108,-0.2525004962250824,0.6232040836789742,-0.6651664028378727,-1.452660161044222,0.6229849685617004,-1.6762478527761795
1773063235350808320,3.326188325881958,1.2384114265441895,-0.2718554437160492,-0.7862266302108765,0.06144797056913376,0.9922903180122375,-0.1076291874051094,-0.09042440354824066,0.10803616046905518,-0.0947176143527031,0.3247438779839308,-0.253780804128288,0.6178840578635106,-0.6695939031332643,-1.4465417012517345,0.5187648547183075,-1.7782057097209831
1773063235360844288,3.336224317550659,1.5221518278121948,-0.2802431285381317,-0.8175041675567627,0.053014516830444336,0.991159200668335,-0.12162531167268753,-0.10030148178339005,0.2225247621536255,-0.08372746407985687,0.3246227586443264,-0.2549653973943532,0.611702535163499,-0.6748574838781577,-1.4377260555116265,0.41105318393947377,-1.8840084156308852
1773063235370880256,3.3462603092193604,1.4886140823364258,-0.1559520810842514,-0.6912753582000732,0.04519595205783844,0.9895393252372742,-0.13700024783611298,-0.001052260398864746,0.2990958094596863,-0.043572232127189636,0.32469737293243245,-0.25553671871930417,0.6051453223379579,-0.6804936717520322,-1.4260278118213239,0.31865455333025866,-1.9750356720092868
1773063235380917248,3.356297254562378,0.851043701171875,-0.08852283656597137,-0.6531771421432495,0.03836055472493172,0.9881147742271423,-0.14885428547859192,0.11946110427379608,0.11022806167602539,0.0831805020570755,0.32434822349245435,-0.25609540612195053,0.5999900011624594,-0.6850002361642983,-1.4164664656961359,0.2522175665347108,-2.0408237342146407
1773063235390953216,3.366333246231079,0.36365726590156555,-0.06723831593990326,-0.6564012169837952,0.03181467577815056,0.9874710440635681,-0.1545599102973938,0.14535513520240784,-0.10401767492294312,0.2354162335395813,0.32305463200373397,-0.2573521695873277,0.5970677590059935,-0.6876886527652233,-1.41233381613529,0.20300499667578917,-2.0899478966837606
1773063235400990464,3.376370429992676,0.46296292543411255,-0.12386717647314072,-0.6643352508544922,0.025024641305208206,0.9870759844779968,-0.1582866907119751,0.12374857068061829,-0.1841433048248291,0.2352672964334488,0.3215104308020223,-0.25908452772062845,0.5947536174674196,-0.6897639658607897,-1.4098494369492345,0.15679915858004934,-2.1357704147507546
