time,seconds_elapsed,rotationRateX,rotationRateY,rotationRateZ,gravityX,gravityY,gravityZ,accelerationX,accelerationY,accelerationZ,quaternionW,quaternionX,quaternionY,quaternionZ,pitch,roll,yaw
1773064625215301376,0.05331540107727051,0.08946972340345383,-0.034262850880622864,-0.005301839672029018,0.0906776636838913,-0.3078824281692505,-0.9470934271812439,0.0730949193239212,0.03673374652862549,-0.062367022037506104,0.9508658041897287,0.1626234426090358,0.0026262410205317756,-0.2634406742689525,0.3129665379465645,0.09545215056762665,-0.5556195834932451
1773064625225339392,0.0633535385131836,0.04258903115987778,-0.017717959359288216,-0.01911778748035431,0.09048114717006683,-0.30856600403785706,-0.9468897581100464,0.05041851848363876,0.004366815090179443,0.0015619993209838867,0.950785907020779,0.16293948177086792,0.0024192422357015245,-0.263535828976932,0.3136851108442117,0.09526690017967385,-0.5558545538518127
1773064625235377408,0.07339143753051758,-0.06589256972074509,0.004775230772793293,-0.002811917569488287,0.09047529846429825,-0.30844739079475403,-0.9469289779663086,-0.0034391582012176514,-0.032220304012298584,0.017500877380371094,0.950782366926153,0.16287924209301233,0.0024242997463359704,-0.26358586830707775,0.3135604169665097,0.09525685788877228,-0.5559465575893336
1773064625245415424,0.08342957496643066,-0.0982595682144165,0.005517187528312206,-0.009716695174574852,0.09053720533847809,-0.30760470032691956,-0.9471971392631531,-0.029227398335933685,-0.021664679050445557,0.027229487895965576,0.950847485993297,0.1624649151023047,0.002568271363721173,-0.26360502058631113,0.3126746421073695,0.09529481987048431,-0.5559113533322109
1773064625255453440,0.09346747398376465,-0.05763925611972809,0.0007035240996629,-0.021550185978412628,0.0906161516904831,-0.30684223771095276,-0.9474368095397949,-0.020120546221733093,-0.002102464437484741,0.002948284149169922,0.9508896974040487,0.16209346952869863,0.0026998212354969776,-0.2636802418618201,0.31187344156632063,0.0953534305493394,-0.5560055405874034
1773064625265491456,0.10350561141967773,-0.0024753380566835403,-0.012014934793114662,-0.013085060752928257,0.09060510993003845,-0.30655553936958313,-0.9475306868553162,0.0010544434189796448,0.00858190655708313,-0.020029127597808838,0.9508893562883308,0.16194831552862013,0.0027188924751888957,-0.26377050659333984,0.31157221478960545,0.09533249112555307,-0.5561640106741748
1773064625275529472,0.11354351043701172,0.005505756009370089,-0.002827428048476577,-0.0005512931384146214,0.09053449332714081,-0.30662813782691956,-0.9475139379501343,0.011226370930671692,0.011523127555847168,-0.015407204627990723,0.9508748763607922,0.16197500642094756,0.002668252965370799,-0.26380657340939534,0.3116484789337262,0.09526031080359354,-0.5562345862748718
1773064625285566208,0.1235804557800293,-0.03645873814821243,0.0032102244440466166,-0.01490945927798748,0.0905633419752121,-0.306490421295166,-0.9475557804107666,0.002850964665412903,0.008196353912353516,0.009826898574829102,0.9508772287195025,0.16191001842223543,0.0026961276744739515,-0.263837804276654,0.3115038086492788,0.09528630330484042,-0.5562913577815815
1773064625295605504,0.1336195468902588,-0.038110122084617615,0.0025051524862647057,-0.031159937381744385,0.09064948558807373,-0.30606019496917725,-0.9476865530014038,-0.012417681515216827,0.009017378091812134,0.025002896785736084,0.9508799001353689,0.16170651628509897,0.002778462975562253,-0.2639519879481325,0.31105186144269936,0.09536330364328709,-0.5565028898663267
1773064625305643264,0.14365744590759277,-0.008129850029945374,-0.006697134114801884,-0.030871249735355377,0.09073101729154587,-0.30581745505332947,-0.9477571249008179,-0.015764586627483368,0.0016640424728393555,0.004001021385192871,0.9508545545494188,0.16159659610400462,0.0028250597908202665,-0.26411005816303573,0.3107969118452377,0.09544149397555046,-0.5568251189036333
1773064625315680512,0.15369462966918945,0.012861894443631172,-0.014502594247460365,-0.00988474115729332,0.0906996801495552,-0.30584952235221863,-0.9477497935295105,-0.009721294045448303,-0.013059139251708984,0.001674354076385498,0.9508213891671164,0.1616086377340108,0.00278621839676398,-0.26422253660474154,0.3108305958957607,0.09540946788088915,-0.5570593812969068
1773064625325718528,0.16373252868652344,-0.0371466763317585,0.0036385939456522465,-0.003354403655976057,0.09067117422819138,-0.3057793080806732,-0.9477751851081848,-0.006320595741271973,-0.018103718757629395,0.0066741108894348145,0.9508195616395442,0.1615695212382122,0.0027769044392523443,-0.2642531223673221,0.31075683814624766,0.09537712026456685,-0.5571114077680313
1773064625335756288,0.17377042770385742,-0.06259424239397049,0.013449679128825665,-0.025855982676148415,0.09079356491565704,-0.30524522066116333,-0.9479355812072754,-0.0077704936265945435,-0.00353163480758667,0.021009981632232666,0.9508459932473591,0.16131889242019268,0.0029011955045635217,-0.26430997664720834,0.3101959235421385,0.09548902010360427,-0.5571982365998069
1773064625345794560,0.1838085651397705,-0.014502350240945816,0.014279253780841827,-0.02691751904785633,0.09100888669490814,-0.3048405051231384,-0.9480451941490173,-0.008428320288658142,0.009323537349700928,0.024674832820892334,0.9508391129092215,0.16114641940551555,0.0030406310144287614,-0.2644383539633181,0.3097709726713378,0.09570310544354425,-0.5574653287496016
1773064625355832320,0.1938464641571045,0.0011582786682993174,0.011450976133346558,-0.02035123109817505,0.09118293225765228,-0.3047884404659271,-0.9480451941490173,-0.0026209205389022827,0.013727039098739624,0.001130521297454834,0.9508121077106767,0.16114494578194358,0.003116209322213607,-0.264535355798765,0.30971628831529335,0.09588500249634825,-0.5576951273463784
1773064625365870592,0.20388460159301758,0.005323729012161493,0.019541393965482712,-0.03427024185657501,0.09141354262828827,-0.3047942817211151,-0.9480211138725281,0.001939728856086731,0.014892548322677612,0.006401240825653076,0.950775475663192,0.16118049222733927,0.0032092682691597313,-0.2646441687303847,0.30972243482697115,0.09612844482394971,-0.5579658418590605
1773064625375908352,0.21392250061035156,-0.02491624280810356,0.034326065331697464,-0.04232537001371384,0.09177160263061523,-0.30469706654548645,-0.9480177760124207,-0.0004630088806152344,-0.0010738074779510498,0.005909621715545654,0.9507289578653082,0.16118240868291142,0.0033694055679241723,-0.26480811120508635,0.30962036468881815,0.09650298144698231,-0.5583647459025146
1773064625385946368,0.22396039962768555,-0.06503729522228241,0.04418455436825752,-0.03694045916199684,0.09223238378763199,-0.3042207360267639,-0.9481260180473328,-0.0033194124698638916,-0.020425260066986084,0.003957927227020264,0.9507124108430458,0.16100867207939673,0.0036327772431627788,-0.2649699862207119,0.3091202801117892,0.09697349004128872,-0.5587385713553064
1773064625395984384,0.23399853706359863,-0.0978044793009758,0.058030594140291214,-0.02828012779355049,0.09279777109622955,-0.303439736366272,-0.9483211040496826,-0.0028166919946670532,-0.03274190425872803,0.011660337448120117,0.9507330105395616,0.16069682172714658,0.003998429604930197,-0.2650795737818929,0.3083005382100387,0.09754424161275926,-0.5589892808314472
1773064625406022400,0.24403643608093262,-0.1332298368215561,0.07716860622167587,-0.02291066013276577,0.09351831674575806,-0.3023284673690796,-0.9486051797866821,0.0023068860173225403,-0.03098452091217041,0.02206099033355713,0.9507937372478155,0.16024102032542925,0.0044956460120160946,-0.26513015142052787,0.3071344775841093,0.09826754172370555,-0.5591090073517689
1773064625416060416,0.2540745735168457,-0.1628614217042923,0.08956481516361237,-0.017900988459587097,0.09439033269882202,-0.30089232325553894,-0.9489753842353821,0.009506762027740479,-0.00870850682258606,0.01684647798538208,0.9508855914741354,0.15964374591978386,0.00511705101155377,-0.2651493481547215,0.3056281868668492,0.09913943726816711,-0.5591551382839556
1773064625426098432,0.2641124725341797,-0.15714333951473236,0.08539750427007675,-0.013148045167326927,0.09529315680265427,-0.29932817816734314,-0.9493796825408936,0.01534830778837204,0.003063589334487915,0.0002983212471008301,0.9509913486008824,0.1589868104852482,0.005774007010116369,-0.2651512178084972,0.3039884864633946,0.10003905598669666,-0.5591560960252241
1773064625436136448,0.2741506099700928,-0.1302730292081833,0.0777483806014061,-0.013314493000507355,0.09610683470964432,-0.29795461893081665,-0.9497297406196594,0.02053135633468628,1.150369644165039e-05,-0.012382686138153076,0.9510839167216318,0.1584129812360987,0.006361439527666484,-0.26514969452138154,0.30254922327433753,0.10085056913584817,-0.5591531824529495
1773064625446174464,0.28418850898742676,-0.11219282448291779,0.06446292996406555,-0.013919031247496605,0.09681600332260132,-0.2968030571937561,-0.9500182271003723,0.02095133811235428,-0.013637006282806396,-0.008645713329315186,0.951157150940475,0.15793592984032695,0.006865175068673759,-0.26515904157760534,0.30134309944088133,0.10155901008080516,-0.559177142756713
1773064625456212224,0.29422640800476074,-0.12157323211431503,0.0531771183013916,-0.016525067389011383,0.09741630405187607,-0.2957000732421875,-0.9503007531166077,0.015391930937767029,-0.03289791941642761,-0.004350125789642334,0.9512259536702293,0.15746815496586378,0.007307368471168598,-0.26517864450147355,0.3001882836132069,0.10215418797183987,-0.5592081769936346
1773064625466250496,0.30426454544067383,-0.13531486690044403,0.05255527049303055,-0.02221570909023285,0.0979907438158989,-0.2944580912590027,-0.9506272673606873,0.006516687572002411,-0.038656532764434814,-0.007426261901855469,0.9512997824769457,0.1569275522521278,0.007752409889384455,-0.26522116135184287,0.2988884147306936,0.10271730811355323,-0.5592678818559554
1773064625476288256,0.3143024444580078,-0.15301238000392914,0.056027766317129135,-0.028890125453472137,0.0985710471868515,-0.293056845664978,-0.9510002136230469,0.0010841041803359985,-0.03186383843421936,0.003993988037109375,0.9513791287337543,0.15630849260477483,0.008218300381358278,-0.26528822686439346,0.29742248996078,0.10328105825703923,-0.5593632183570789
1773064625486326528,0.3243405818939209,-0.15684865415096283,0.060652345418930054,-0.040426671504974365,0.0992393046617508,-0.2915336787700653,-0.9513987898826599,-0.0017356500029563904,-0.017639905214309692,0.010328233242034912,0.9514511131781297,0.15564154983277137,0.008735650256189886,-0.2654054025059447,0.29582976842059017,0.10393298584909565,-0.5595657784545873
1773064625496364288,0.3343784809112549,-0.1456190049648285,0.05901956185698509,-0.036626607179641724,0.09993137419223785,-0.2900417447090149,-0.9517822861671448,0.004042014479637146,-0.010144412517547607,0.0026703476905822754,0.9515163088869296,0.1549939994966912,0.009258511037150322,-0.26553326469434463,0.2942704640720409,0.10461066606600249,-0.5597975802202679
1773064625506402560,0.34441661834716797,-0.13800422847270966,0.06014794111251831,-0.01927637867629528,0.1005801111459732,-0.28871598839759827,-0.9521169662475586,0.011846654117107391,-0.011012405157089233,0.004607200622558594,0.9515827218096182,0.1544232410804687,0.009745476313071821,-0.2656104688758773,0.2928854284673161,0.10524805269250902,-0.559932182202509
1773064625516440320,0.35445451736450195,-0.14758720993995667,0.06252893805503845,-0.02363584004342556,0.10121724754571915,-0.287318617105484,-0.9524720907211304,0.00815775990486145,-0.009998887777328491,0.015429854393005371,0.9516647978122009,0.153814951655225,0.01024265478042742,-0.2656507023906039,0.29142623301676135,0.1058706054398885,-0.5599790638711665
1773064625526478336,0.36449241638183594,-0.15157581865787506,0.05630513280630112,-0.04426894336938858,0.10187234729528427,-0.2858828008174896,-0.9528342485427856,-0.0014695152640342712,-0.008703380823135376,-0.0011299848556518555,0.9517318794160099,0.15319089897064653,0.010744154203767986,-0.26575090183073363,0.2899275369031684,0.1065104752395118,-0.5601503929500926
1773064625536516352,0.374530553817749,-0.15947440266609192,0.04918330907821655,-0.051226455718278885,0.10251821577548981,-0.2843359112739563,-0.9532277584075928,0.0009058564901351929,-0.009227931499481201,0.0011861324310302734,0.9517841946246071,0.15251137998233175,0.011243275641589619,-0.26593383755626415,0.2883136733015065,0.10713669873572881,-0.5604818652394036
1773064625546554368,0.384568452835083,-0.14712107181549072,0.04626554623246193,-0.04859365522861481,0.1031116396188736,-0.28282201290130615,-0.9536139965057373,0.0008312314748764038,-0.01350364089012146,-0.0001366138458251953,0.9518321655141486,0.151841499903501,0.011711073037996936,-0.2661251715437223,0.28673498377759093,0.1077087718222304,-0.5608250323629616
1773064625556592384,0.3946065902709961,-0.14187906682491302,0.04404047504067421,-0.03921719640493393,0.10368044674396515,-0.2814120054244995,-0.953969419002533,-0.003933735191822052,-0.009542584419250488,-0.002436220645904541,0.9518792020887171,0.15122004697855046,0.012156688304441216,-0.2662909221660489,0.28526526269553626,0.108258283319371,-0.5611207226676161
1773064625566630400,0.4046444892883301,-0.15511605143547058,0.04173737391829491,-0.037153780460357666,0.10420607030391693,-0.27997156977653503,-0.9543359279632568,-0.005557991564273834,0.002673596143722534,-0.005609750747680664,0.9519366565561803,0.150577353072935,0.012589897435303348,-0.26642951643599955,0.283764487985577,0.10876135049779341,-0.5613485197410354
1773064625576668416,0.41468262672424316,-0.13372531533241272,0.041412074118852615,-0.046977248042821884,0.10473079234361649,-0.2785433828830719,-0.9546962976455688,-0.008356280624866486,0.0097445547580719,-0.013901114463806152,0.951986829049133,0.14994125819860027,0.013017851133036116,-0.26658822937958243,0.2822771464068171,0.10926373463617077,-0.561619311024736
1773064625586706432,0.42472052574157715,-0.11145278066396713,0.03453259542584419,-0.05627407506108284,0.10521714389324188,-0.2773238718509674,-0.9549978375434875,-0.008369609713554382,0.007578998804092407,-0.006076991558074951,0.9520055140680508,0.14940487953254983,0.013389354480858718,-0.2668040856588833,0.2810076018254618,0.10973269920176375,-0.5620252809821341
1773064625596744192,0.43475842475891113,-0.10038477182388306,0.03077274188399315,-0.04422859847545624,0.1056612879037857,-0.2762729823589325,-0.9552533030509949,-0.007562533020973206,0.003033846616744995,-0.012413263320922852,0.9520124336162046,0.14894686841277807,0.01371730696341624,-0.2670186890851133,0.27991398952580204,0.11016293616142563,-0.5624390122627431
1773064625606782464,0.4447965621948242,-0.14014042913913727,0.030042236670851707,-0.02685120701789856,0.10603785514831543,-0.27512267231941223,-0.955543577671051,-0.005238302052021027,0.0028753578662872314,-0.018562257289886475,0.9520489067545075,0.14842899563030898,0.014037713806755036,-0.26716032652977045,0.27871731028437796,0.11051905910357335,-0.5626777413859675
1773064625616820224,0.4548344612121582,-0.17518350481987,0.041125647723674774,-0.021131936460733414,0.10644301772117615,-0.2735768258571625,-0.9559422731399536,-0.010846704244613647,0.0014668703079223633,-0.017598986625671387,0.9521354797283051,0.14771725887129972,0.01443886367940688,-0.26722507364678244,0.27710977680461496,0.11089200104109061,-0.56271806844893
1773064625626858496,0.4648725986480713,-0.18492615222930908,0.050454169511795044,-0.017689533531665802,0.10694149136543274,-0.2717922329902649,-0.9563955664634705,-0.016731537878513336,0.0017879903316497803,-0.020502567291259766,0.9522429758222308,0.1468997723078121,0.014922047157852468,-0.26726612001595157,0.27525488654579383,0.11135466346224751,-0.5626985817761672
1773064625636896256,0.4749104976654053,-0.1527315080165863,0.04847370833158493,-0.023751819506287575,0.10745984315872192,-0.2701655328273773,-0.9567983150482178,-0.019569218158721924,0.00956067442893982,-0.03218483924865723,0.9523375222962547,0.14616396935842063,0.015393088856085172,-0.26730599871680794,0.27356495553876636,0.11184321926648909,-0.5626960458717655
1773064625646934272,0.48494839668273926,-0.1402071863412857,0.0475916713476181,-0.03661542385816574,0.10798699408769608,-0.2687157094478607,-0.9571471810340881,-0.014496386051177979,0.025673717260360718,-0.030065953731536865,0.9524018027514047,0.14551862346940325,0.015835045314477755,-0.2674033780047282,0.27205945189627656,0.1123466554713762,-0.5628337767728163
1773064625656972288,0.49498653411865234,-0.09316457808017731,0.028462450951337814,-0.053720906376838684,0.10847266763448715,-0.2675502300262451,-0.95741868019104,-0.008298724889755249,0.028933286666870117,-0.05109572410583496,0.9524236654481072,0.14501045552878816,0.0162056203058509,-0.2675787660216091,0.27084966156453033,0.11281593638153682,-0.5631578974885467
1773064625667010304,0.5050244331359863,-0.04957769066095352,0.0043994588777422905,-0.056075140833854675,0.1087721511721611,-0.26683309674263,-0.9575848579406738,0.0011826828122138977,0.021166592836380005,-0.09069395065307617,0.9523989080756158,0.14470031838457387,0.016413393898587588,-0.2678223314671787,0.2701054902246643,0.1131053000489151,-0.5636421976151902
1773064625677048320,0.5150625705718994,-0.06484346091747284,-0.010700131766498089,-0.06019984558224678,0.1088653951883316,-0.2662647068500519,-0.9577324390411377,-0.000421181321144104,0.014906704425811768,-0.0815894603729248,0.9523605430442906,0.14443567606241603,0.016495851291502755,-0.26809651476795787,0.26951576859557574,0.11318413903348044,-0.5641735065838808
1773064625687086336,0.5251004695892334,-0.0672975704073906,-0.025620492175221443,-0.08507855981588364,0.10890723764896393,-0.2655256390571594,-0.9579328298568726,-0.011281497776508331,-0.005470454692840576,-0.04907095432281494,0.9523139505541758,0.14408039248843924,0.016565391302594195,-0.2684485058003837,0.2687490783683866,0.11320378147948486,-0.5648422998740221
1773064625697124608,0.5351386070251465,-0.08184778690338135,-0.05414494499564171,-0.11072041094303131,0.10877907276153564,-0.26475873589515686,-0.9581596851348877,-0.020949482917785645,-0.04554399847984314,-0.048630475997924805,0.952234181064999,0.14368981327203237,0.0165350751856188,-0.26894233411413937,0.26795372558766223,0.11304515781478786,-0.5657794530881574
1773064625707162368,0.5451765060424805,-0.2227843999862671,-0.05501633137464523,-0.13294582068920135,0.10854829847812653,-0.2632487714290619,-0.9586017727851868,-0.011578701436519623,-0.05825391411781311,-0.03773611783981323,0.952178574780101,0.14291775615276484,0.01654184179663707,-0.2695491752987375,0.26638821485786446,0.11275577830559586,-0.5668611087480449
1773064625717200384,0.5552144050598145,-0.4097229242324829,-0.059087906032800674,-0.17116816341876984,0.10839440673589706,-0.26002949476242065,-0.9594974517822266,0.011631220579147339,-0.034983932971954346,0.010446548461914062,0.9522055873085734,0.14131111493498646,0.016806407011358257,-0.2702833920777378,0.26305273402546864,0.11249304344367235,-0.56804722329893
1773064625727238400,0.5652525424957275,-0.5050147771835327,-0.06553355604410172,-0.22752012312412262,0.10832521319389343,-0.2553475499153137,-0.9607618451118469,0.03490903973579407,0.002967149019241333,0.029273808002471924,0.9522631529861731,0.13899756592652598,0.01728483634327329,-0.27124859354847486,0.2582071482394641,0.1122751307061974,-0.5695851812809213
1773064625737276416,0.5752904415130615,-0.4893728196620941,-0.09106633812189102,-0.2704220712184906,0.10822088271379471,-0.2502337098121643,-0.9621181488037109,0.05861871689558029,0.03802973031997681,-0.0017337799072265625,0.9522765631297259,0.1364731066955389,0.017776856470453396,-0.2724489792362305,0.2529216364990511,0.112011096160897,-0.5715732975615158
1773064625747314432,0.5853285789489746,-0.4071221649646759,-0.13282044231891632,-0.30187559127807617,0.10782789438962936,-0.2455761879682541,-0.9633615612983704,0.07581163942813873,0.04960756003856659,-0.05739039182662964,0.9522013483654153,0.13414062714920783,0.018042003951706312,-0.2738493677912329,0.24811403902423632,0.11146485520998446,-0.5739907317101604
1773064625757352448,0.5953664779663086,-0.3401341140270233,-0.179038405418396,-0.3474397361278534,0.10711103677749634,-0.24167969822883606,-0.9644263386726379,0.08315081149339676,0.03753235936164856,-0.08435600996017456,0.9520129653257703,0.1321445445727802,0.018018081363221986,-0.2754716037588716,0.24409649287609347,0.11060862230287485,-0.576909104304137
1773064625767390464,0.6054046154022217,-0.34293681383132935,-0.2093164175748825,-0.3698992431163788,0.10613149404525757,-0.23800723254680634,-0.9654473662376404,0.07982736080884933,0.019043639302253723,-0.08667659759521484,0.9517498757429776,0.13022670219067548,0.017813236933201068,-0.27730106081539085,0.24031361023192427,0.1094902258837739,-0.5802541192086749
1773064625777428480,0.6154425144195557,-0.3789209723472595,-0.22726944088935852,-0.3871481418609619,0.1049010306596756,-0.23412708938121796,-0.9665300250053406,0.0804169550538063,-0.0025519877672195435,-0.07874280214309692,0.9514746122324758,0.12817294269853347,0.017512516614230172,-0.2792149508001476,0.2363206045616461,0.10811048074044553,-0.5837292728728555
1773064625787466240,0.6254804134368896,-0.46243929862976074,-0.23728665709495544,-0.42872700095176697,0.103584423661232,-0.22967006266117096,-0.9677406549453735,0.0789564698934555,-0.01559971272945404,-0.07106244564056396,0.9511880169093311,0.12582674373698705,0.01724283280345554,-0.2812679875805846,0.2317386754298372,0.10663139169521435,-0.5874401610881224
1773064625797504512,0.6355185508728027,-0.5697430968284607,-0.25046491622924805,-0.48050594329833984,0.10226190090179443,-0.2241830974817276,-0.9691668748855591,0.09358465671539307,0.0060434490442276,-0.09237182140350342,0.9508876927470045,0.12298017640454512,0.01710075742539758,-0.283542054079112,0.2261047244102363,0.10512627949430706,-0.5915313194668986
1773064625807542272,0.6455564498901367,-0.6155675649642944,-0.2854596674442291,-0.5542296767234802,0.1008370891213417,-0.2177906632423401,-0.9707724452018738,0.1259237825870514,0.05552870035171509,-0.10059291124343872,0.950541119201971,0.11968367210415778,0.017017753796011167,-0.2861080996825035,0.2195502271706613,0.10350185897141388,-0.5961566161372477
1773064625817580544,0.6555945873260498,-0.5239095091819763,-0.3494599461555481,-0.6575512886047363,0.09906809031963348,-0.21154670417308807,-0.9723340272903442,0.16123157739639282,0.08848458528518677,-0.09253102540969849,0.9500356968163695,0.11642094625338732,0.016707419726598935,-0.2891352492045047,0.2131572068522729,0.10153650564291447,-0.6017420290201689
1773064625827618304,0.6656324863433838,-0.3415176272392273,-0.44457659125328064,-0.7610342502593994,0.09667538851499557,-0.20661194622516632,-0.9736351370811462,0.19527103006839752,0.09810668230056763,-0.11944347620010376,0.949307991936274,0.11371322110284464,0.015866132439752482,-0.2926295302109124,0.20811091085466094,0.09896883935241234,-0.6083709062448031
1773064625837656576,0.6756706237792969,-0.17586283385753632,-0.528317391872406,-0.8320731520652771,0.09354956448078156,-0.20333659648895264,-0.9746295213699341,0.22360436618328094,0.08036601543426514,-0.11606872081756592,0.9483057916331603,0.11170775259649847,0.01437413873399655,-0.29670012781295824,0.204764514825623,0.09569159299126091,-0.6162898982514939
1773064625847694336,0.6857085227966309,-0.09708812832832336,-0.5793079137802124,-0.8752778768539429,0.08983513712882996,-0.2013118416070938,-0.9753990173339844,0.25006964802742004,0.03814961016178131,-0.06731033325195312,0.9471299464163685,0.11021333887826217,0.01239049868223577,-0.3010720401006253,0.20269699739657424,0.09184180930818539,-0.6249007913521855
1773064625857732352,0.6957464218139648,-0.1450885534286499,-0.5934422612190247,-0.9284152984619141,0.085938960313797,-0.19938352704048157,-0.97614586353302,0.2700333297252655,0.02167968451976776,-0.02699744701385498,0.9458557733536773,0.1087249749079886,0.010293620934322687,-0.30566298496313116,0.20072878178932746,0.08781265196967873,-0.6339826653315974
1773064625867770368,0.7057845592498779,-0.22725239396095276,-0.6189407110214233,-1.0086679458618164,0.08200205117464066,-0.19669514894485474,-0.9770295023918152,0.27589282393455505,0.04543478786945343,-0.01613450050354004,0.9444924481428985,0.10684909763586518,0.008277220171363833,-0.3105618585721171,0.19798608030326292,0.08373371903047395,-0.6436753802163107
1773064625877808384,0.7158224582672119,-0.34176063537597656,-0.6047650575637817,-1.087685227394104,0.07797131687402725,-0.19309678673744202,-0.9780767560005188,0.29162707924842834,0.07165209949016571,-0.0202447772026062,0.9430175416930036,0.10450569329932187,0.006339576028160359,-0.3158423808717024,0.1943173629732051,0.07955078388426297,-0.6541265822892537
1773064625887846400,0.725860595703125,-0.37486666440963745,-0.6061453819274902,-1.1643693447113037,0.0742240771651268,-0.1885996162891388,-0.979245126247406,0.3298439085483551,0.0701761543750763,-0.015338003635406494,0.9414183380583795,0.10176266018951288,0.004670244512192421,-0.32148713972148596,0.18973598216379853,0.07565258602394417,-0.665353148871117
1773064625897884416,0.735898494720459,-0.2219538539648056,-0.6965158581733704,-1.1989359855651855,0.07008875906467438,-0.1847274899482727,-0.9802873730659485,0.34188327193260193,0.0736435055732727,-0.08057993650436401,0.9396563394570858,0.09924181394467119,0.0027167341994154496,-0.32739813291913067,0.18579457486332038,0.07137671951795714,-0.6771915139057559
1773064625907922176,0.745936393737793,-0.06453680247068405,-0.7780243158340454,-1.2217973470687866,0.06506415456533432,-0.18254141509532928,-0.9810429811477661,0.3077690899372101,0.09367421269416809,-0.10350596904754639,0.9377264802027897,0.09735767075065689,7.245256251121121e-05,-0.3334522798661868,0.1835706771682448,0.06622443070196028,-0.6894014297723002
1773064625917960448,0.755974531173706,-0.020594511181116104,-0.8261731266975403,-1.2832705974578857,0.05940810590982437,-0.18141324818134308,-0.981610894203186,0.2717991769313812,0.10063323378562927,-0.061373114585876465,0.9356288428960773,0.09583975511918273,-0.0030501964903685403,-0.33971188905365696,0.18242336156798994,0.060447303637674775,-0.7020967266347397
1773064625927998208,0.76601243019104,-0.003230965929105878,-0.8466211557388306,-1.3738892078399658,0.05360778793692589,-0.18051853775978088,-0.9821096062660217,0.2649804651737213,0.06977024674415588,-0.03687232732772827,0.9333263662194096,0.0943689717855157,-0.006300665612995576,-0.3463476408886033,0.1815136272368757,0.05453020862946754,-0.715639660974628
1773064625938036480,0.7760505676269531,0.041670773178339005,-0.8727226257324219,-1.4513932466506958,0.0477396622300148,-0.17997723817825317,-0.9825116395950317,0.2705129086971283,0.040206730365753174,-0.04272639751434326,0.9308021483937527,0.0930095339893719,-0.00966478092978145,-0.3533597978459722,0.18096331153273462,0.0485512271400875,-0.7300520056365758
1773064625948072448,0.7860865592956543,0.13484731316566467,-0.9316785931587219,-1.5179075002670288,0.04156551882624626,-0.18011826276779175,-0.9827663898468018,0.25895634293556213,0.033496543765068054,-0.04204440116882324,0.9280462151930946,0.09186723665967429,-0.013312791751260844,-0.3607123292082528,0.1811066750155965,0.042269212388845234,-0.7452570642456237
1773064625958110208,0.7961244583129883,0.2720547616481781,-1.0109186172485352,-1.5741792917251587,0.03480438143014908,-0.18157123029232025,-0.9827616810798645,0.23552033305168152,0.02114032208919525,-0.0511128306388855,0.9250505737127392,0.09117678843123542,-0.01749133802524836,-0.3683236048152771,0.18258400126121505,0.03540007991990237,-0.7610896186795557
1773064625968148480,0.8061625957489014,0.26871249079704285,-1.071366310119629,-1.6688504219055176,0.02743902988731861,-0.1838352531194687,-0.9825740456581116,0.20678338408470154,-0.0015590488910675049,0.00033527612686157227,0.9217896168252371,0.09068127355389026,-0.02213362710293229,-0.3762856581236968,0.18488678140404313,0.027918406369345998,-0.7777197051814705
1773064625978186496,0.8162004947662354,0.20350685715675354,-1.1144874095916748,-1.7795778512954712,0.01988656260073185,-0.18575122952461243,-0.9823955297470093,0.1928972452878952,-0.03453990817070007,0.06412160396575928,0.9182529993548953,0.08990000861896422,-0.026836848589784978,-0.3847196256828978,0.18683634232010832,0.02024016329335748,-0.7953990649897117
1773064625988224256,0.8262383937835693,0.1616627275943756,-1.1386492252349854,-1.858864426612854,0.012219229713082314,-0.18722307682037354,-0.9822413921356201,0.20038148760795593,-0.06888040900230408,0.10264855623245239,0.9144467097051617,0.08879584957503366,-0.031537064562488,-0.3935834840770444,0.1883344742574887,0.012439507542431859,-0.8140564602739878
1773064625998262528,0.8362765312194824,0.1770894080400467,-1.1552019119262695,-1.86673903465271,0.004445667844265699,-0.18875053524971008,-0.9820150136947632,0.21993482112884521,-0.07481451332569122,0.10265100002288818,0.9104430039945544,0.08760606109004829,-0.03629981173918214,-0.4026176164488427,0.18988965871093252,0.00452705644078524,-0.8331643665177602
1773064626008300288,0.8463144302368164,0.16917449235916138,-1.141318917274475,-1.8238704204559326,-0.003377095330506563,-0.19046524167060852,-0.9816881418228149,0.24107851088047028,-0.04287216067314148,0.09846365451812744,0.9063733845264482,0.08641267637738846,-0.041094830216619326,-0.4114988009602612,0.19163604704054782,-0.0034400761767828,-0.8520296563697136
1773064626018338560,0.8563525676727295,0.2732199728488922,-1.1237304210662842,-1.809516429901123,-0.010971063748002052,-0.1926766186952591,-0.9812009930610657,0.2315826267004013,-0.006236940622329712,0.08853131532669067,0.9022478890670284,0.0854190508152237,-0.04585956023997182,-0.4201774547782815,0.19388915441876728,-0.011180795016749711,-0.8705798104864705
1773064626028376320,0.8663904666900635,0.5009335875511169,-1.138543963432312,-1.789363145828247,-0.018572663888335228,-0.19669342041015625,-0.980289101600647,0.20286832749843597,-0.00315093994140625,0.05246323347091675,0.8979684608082197,0.08517043459745405,-0.05100428822530423,-0.42871579368736573,0.1979843077605782,-0.018943841477871974,-0.8889744491354871
1773064626038414592,0.8764286041259766,0.7192113995552063,-1.1720794439315796,-1.7274034023284912,-0.026379890739917755,-0.2031574249267578,-0.9787906408309937,0.18980152904987335,-0.0181865394115448,0.014175832271575928,0.8935677231998698,0.08591511692289572,-0.05677377929604233,-0.4369576930127059,0.20458152554878756,-0.02694499176136886,-0.9068573863251523
1773064626048452352,0.8864665031433105,0.6979002356529236,-1.174137830734253,-1.6687960624694824,-0.034371137619018555,-0.21083642542362213,-0.9769169092178345,0.18268656730651855,-0.04383276402950287,0.026446938514709473,0.8891365026181458,0.08709129207410886,-0.06290197428588769,-0.4448535754360185,0.21243054510300013,-0.03516877012802248,-0.9240586184773618
1773064626058490368,0.8965044021606445,0.5043860673904419,-1.1086498498916626,-1.6428335905075073,-0.041972510516643524,-0.2173394411802292,-0.9751932621002197,0.17136703431606293,-0.09624391794204712,0.15559792518615723,0.8847749706060838,0.08773992893923162,-0.06859358937393448,-0.45251501949713485,0.21908792929727927,-0.043013650997828105,-0.9407939924106286
1773064626068528384,0.9065425395965576,0.38978466391563416,-1.0608881711959839,-1.661811351776123,-0.048913128674030304,-0.2224382907152176,-0.9737190008163452,0.1472254991531372,-0.1499371975660324,0.22329175472259521,0.8804078866506839,0.08781841151752098,-0.07367781937536769,-0.4601537125361527,0.2243147051567399,-0.05019112260844857,-0.9575669772567342
1773064626078566400,0.9165804386138916,0.32545921206474304,-1.0255893468856812,-1.668042778968811,-0.0553097128868103,-0.22674785554409027,-0.9723817110061646,0.1261715441942215,-0.13712848722934723,0.21070879697799683,0.8759747035397736,0.08758455436326644,-0.07834587354879491,-0.467823892919333,0.22873725650880497,-0.05681943187543364,-0.9745187252540843
1773064626088604416,0.9266185760498047,0.4025244414806366,-1.0066720247268677,-1.6392042636871338,-0.06131824851036072,-0.23118220269680023,-0.9709762334823608,0.11667713522911072,-0.09408938884735107,0.17844998836517334,0.8714883365437994,0.08743003034106996,-0.08287262395272424,-0.47539044028741656,0.23329263479242918,-0.06306738274726313,-0.9913594492303306
1773064626098642432,0.9366564750671387,0.5783270597457886,-0.9998876452445984,-1.5934953689575195,-0.06720665097236633,-0.2369326949119568,-0.9691987037658691,0.10330894589424133,-0.06775480508804321,0.15169382095336914,0.8669527454309939,0.08783740934955583,-0.08766544507899718,-0.4826926558170719,0.23920743090672641,-0.06923166716664488,-1.0077275523508218
1773064626108680448,0.9466946125030518,0.7897823452949524,-0.9962851405143738,-1.5596727132797241,-0.0729384794831276,-0.24469329416751862,-0.9668532609939575,0.0826278105378151,-0.05257844924926758,0.15105736255645752,0.8623551946888732,0.0891257253964788,-0.09289772788722174,-0.4896633336352299,0.24720335045584882,-0.07529641450437238,-1.0234858093504222
1773064626118718464,0.9567325115203857,0.883435845375061,-0.9936779737472534,-1.5417473316192627,-0.07851386815309525,-0.2540273368358612,-0.9640050530433655,0.06415535509586334,-0.050477027893066406,0.16760307550430298,0.8576603615326776,0.09108644729035115,-0.09849237185195456,-0.4964083166938374,0.25684191746930657,-0.08126612260118204,-1.0388614663442854
1773064626128756224,0.9667704105377197,0.8250647187232971,-0.966583788394928,-1.5082333087921143,-0.08390016853809357,-0.26354655623435974,-0.9609911441802979,0.059409819543361664,-0.06232014298439026,0.18878960609436035,0.8529314313794465,0.09310895254071196,-0.10409204254096383,-0.5029944844580824,0.2666968949506961,-0.08708505785787943,-1.0539699910966747
1773064626138794496,0.9768085479736328,0.7268134951591492,-0.9415571689605713,-1.4532378911972046,-0.08903482556343079,-0.27229124307632446,-0.9580867886543274,0.05731179565191269,-0.10302919149398804,0.2172268033027649,0.8482906118113777,0.09480245683040385,-0.10940339979935178,-0.509358770557626,0.27577343671510934,-0.09266368115754048,-1.06863748002882
1773064626148832256,0.9868464469909668,0.6252333521842957,-0.884937047958374,-1.409064769744873,-0.09381035715341568,-0.28011128306388855,-0.9553728699684143,0.05041436105966568,-0.14701277017593384,0.2457171082496643,0.8437706135515199,0.09614055462599205,-0.11432656610681112,-0.5154975103121704,0.2839100173231416,-0.09787863784467071,-1.0828577207136452
1773064626158870528,0.9968845844268799,0.5423334240913391,-0.8293020725250244,-1.3918572664260864,-0.09798804670572281,-0.2870199382305145,-0.9528997540473938,0.026500627398490906,-0.16004732251167297,0.2496069073677063,0.8393507686464332,0.09719480323963132,-0.1187573359504522,-0.5214788745538396,0.2911144366518248,-0.10247126304128801,-1.0968171722732631
1773064626168908288,1.0069224834442139,0.5305359363555908,-0.809227705001831,-1.401746153831482,-0.10169705748558044,-0.29349803924560547,-0.9505348801612854,-0.005099207162857056,-0.14148423075675964,0.22650539875030518,0.8349247947432052,0.09813313290345992,-0.12289196440025935,-0.5274163674538948,0.2978839832949182,-0.10658384650002885,-1.1107878711055204
1773064626178946560,1.016960620880127,0.6336823105812073,-0.7963252067565918,-1.409742832183838,-0.1051105409860611,-0.30045968294143677,-0.9479851126670837,-0.018241502344608307,-0.12165945768356323,0.20392078161239624,0.8303927542058573,0.09930308996536515,-0.12706825270653607,-0.5333296784843587,0.30517455928786025,-0.11042679011628949,-1.1248339756677275
1773064626188984320,1.026998519897461,0.7827546000480652,-0.7851420640945435,-1.3760218620300293,-0.10835651308298111,-0.3086891174316406,-0.9449708461761475,-0.00982280820608139,-0.10662460327148438,0.19271254539489746,0.825757270685599,0.10102419648804183,-0.13156248963953815,-0.5390829753715703,0.31381454371476153,-0.1141678843787796,-1.138649459973731
1773064626199022336,1.037036418914795,0.8838984966278076,-0.7513100504875183,-1.3077421188354492,-0.11138329654932022,-0.3181166350841522,-0.9414858222007751,-0.002843990921974182,-0.08871316909790039,0.19009727239608765,0.8211587337670051,0.10331265922398349,-0.13632161775002286,-0.544464133802618,0.3237422732132464,-0.11775851170006327,-1.1517287500796316
1773064626209060352,1.047074556350708,0.8849667310714722,-0.7081902623176575,-1.231677770614624,-0.11414997279644012,-0.32793954014778137,-0.9377768635749817,-0.007126890122890472,-0.07080313563346863,0.1787589192390442,0.8167001283774962,0.10584769519853642,-0.1410951369242876,-0.5494444780115865,0.33412167102922286,-0.12112812530234122,-1.1639700704650613
1773064626219098368,1.057112455368042,0.8366655111312866,-0.6665650606155396,-1.1802135705947876,-0.11661719530820847,-0.3374166488647461,-0.9341040849685669,-0.011083602905273438,-0.0815134048461914,0.1761237382888794,0.8124057933729216,0.10831852108541085,-0.14565388084693628,-0.5541199902607596,0.34417124710730335,-0.12420129309047197,-1.1755719160313531
1773064626229136384,1.067150592803955,0.8033525347709656,-0.6064727306365967,-1.150739312171936,-0.11854882538318634,-0.34643739461898804,-0.9305521249771118,-0.01934485137462616,-0.11839109659194946,0.17794287204742432,0.8082346284844356,0.11073591632833871,-0.14987155493937812,-0.5585989482820716,0.35377063205031317,-0.1267136518839177,-1.1868225165784978
1773064626239174400,1.077188491821289,0.7836324572563171,-0.5687166452407837,-1.1283440589904785,-0.1199764609336853,-0.35520273447036743,-0.9270581007003784,-0.0368533730506897,-0.14244741201400757,0.18471801280975342,0.8041306295032014,0.11317233794993369,-0.15382777849959284,-0.5629414393460471,0.3631309508474814,-0.1287009972918649,-1.1978760535802477
1773064626249212416,1.0872266292572021,0.7273415327072144,-0.5342050194740295,-1.0948678255081177,-0.12109622359275818,-0.3636002540588379,-0.9236506819725037,-0.04246273636817932,-0.1368727684020996,0.17212480306625366,0.800107730660895,0.11553048860105217,-0.1575670368742052,-0.5671446077647357,0.3721297824707461,-0.13036255057426888,-1.208688978676129
1773064626259250432,1.0972645282745361,0.689344048500061,-0.5036195516586304,-1.0681818723678589,-0.12190762162208557,-0.37142324447631836,-0.9204255938529968,-0.049845315515995026,-0.11711740493774414,0.18322771787643433,0.7961940030117434,0.11772878869402109,-0.1610190355847123,-0.5712161028938981,0.38054145279232915,-0.13168059176510383,-1.2192640270750428
1773064626269288192,1.1073024272918701,0.7549731135368347,-0.4668647348880768,-1.0451873540878296,-0.12239900231361389,-0.3793414235115051,-0.9171251654624939,-0.0597451850771904,-0.10253113508224487,0.1546282172203064,0.7923238310870248,0.12005725759599835,-0.16438880388115099,-0.5751394705109788,0.3890844245066338,-0.1326754228421471,-1.2296032041402707
1773064626279326464,1.1173405647277832,0.7556303143501282,-0.4382016658782959,-1.0040619373321533,-0.12262049317359924,-0.3876303732395172,-0.9136229753494263,-0.06916721910238266,-0.08804711699485779,0.12979423999786377,0.7885028401264498,0.12263019367168702,-0.16778066579284348,-0.578856492160998,0.3980595823493163,-0.13341618124771432,-1.2395733743749995
1773064626289364224,1.1273784637451172,0.7092492580413818,-0.4027880132198334,-0.966500997543335,-0.12258436530828476,-0.39555275440216064,-0.9102258682250977,-0.07523058354854584,-0.08030784130096436,0.12479496002197266,0.784822287016587,0.1251411469399877,-0.17095837156069157,-0.5823804636199572,0.40666961068885094,-0.13386920183692957,-1.24915125050019
1773064626299402496,1.1374166011810303,0.6169797778129578,-0.3627890646457672,-0.951434314250946,-0.12221580743789673,-0.40280330181121826,-0.9070903062820435,-0.08661596477031708,-0.09979069232940674,0.11616623401641846,0.7812666300411562,0.12747277251086284,-0.17379741191999978,-0.5858052152117178,0.4145775542162871,-0.1339273734811637,-1.258558662369058
1773064626309440256,1.1474545001983643,0.5082746148109436,-0.3176881670951843,-0.9465524554252625,-0.1214294284582138,-0.40906140208244324,-0.904391348361969,-0.0993194729089737,-0.12278366088867188,0.125613272190094,0.7778086321965174,0.12950060747544273,-0.17616450348888357,-0.5892447769601231,0.4214252383723753,-0.1334682570166334,-1.2680694499582827
1773064626319478272,1.1574923992156982,0.4052651822566986,-0.280767560005188,-0.9275205731391907,-0.12024243175983429,-0.414326548576355,-0.9021503925323486,-0.10969223827123642,-0.12539207935333252,0.10745739936828613,0.7744595206599844,0.1312262162944931,-0.17805756930009686,-0.5926953122930919,0.42720273686587446,-0.13250330420251763,-1.2776638139320176
1773064626329516288,1.1675305366516113,0.3462540805339813,-0.2678810656070709,-0.8956654071807861,-0.11890244483947754,-0.41879698634147644,-0.9002618193626404,-0.10759900510311127,-0.09797242283821106,0.08689206838607788,0.7712528431987974,0.13267863197648375,-0.17962596087224109,-0.5960704418174289,0.4321201370163832,-0.13131537783843958,-1.2870820041772715
1773064626339554304,1.1775684356689453,0.38249799609184265,-0.26197734475135803,-0.901802659034729,-0.11750974506139755,-0.4230916202068329,-0.8984347581863403,-0.11327942460775375,-0.06511333584785461,0.07766449451446533,0.7680840889079082,0.13407684169239584,-0.1811243638278731,-0.5993866460414448,0.4368546779597635,-0.13005559210908962,-1.2964006730351818
1773064626349591552,1.187605619430542,0.49764907360076904,-0.2754676043987274,-0.9133120775222778,-0.11604143679141998,-0.4281163215637207,-0.896242618560791,-0.11760112643241882,-0.0535883903503418,0.047884464263916016,0.7647995776529587,0.13578920747115603,-0.18286604629617306,-0.602663192771203,0.44240739981565225,-0.12875916044722555,-1.3057698017508306
1773064626359629312,1.197643518447876,0.5480576157569885,-0.28577136993408203,-0.877144992351532,-0.11465059220790863,-0.43394583463668823,-0.8936141729354858,-0.11041653901338577,-0.06181222200393677,0.03372037410736084,0.7614447931700686,0.13781529122619668,-0.18493204767126598,-0.6058126770412886,0.4488678668791782,-0.1276027747287737,-1.314949536262569
1773064626369667328,1.20768141746521,0.48785096406936646,-0.27329233288764954,-0.8275137543678284,-0.1134127750992775,-0.43960094451904297,-0.8910042643547058,-0.11102873831987381,-0.08368396759033203,0.04778832197189331,0.7582237515243031,0.1397531183216508,-0.18699449808493143,-0.60876839687972,0.45515434310945885,-0.12660564067712676,-1.3236408054866242
1773064626379705344,1.217719554901123,0.3671616017818451,-0.2663725018501282,-0.7937301397323608,-0.1122196689248085,-0.44437697529792786,-0.8887833952903748,-0.11994278430938721,-0.12155625224113464,0.05057227611541748,0.7551884761949388,0.1413355551178718,-0.1887659288876471,-0.6116225961268112,0.46047868165167166,-0.12559750100036582,-1.332013622041482
1773064626389743360,1.227757453918457,0.21018476784229279,-0.25523144006729126,-0.7798563838005066,-0.11102510988712311,-0.44782063364982605,-0.8872035145759583,-0.1313454806804657,-0.14682963490486145,0.03228414058685303,0.7523085797567731,0.14236525726077542,-0.1900798818891781,-0.6145191037433507,0.4643264276895841,-0.1244933486734092,-1.3403865364309933
1773064626399781376,1.2377955913543701,0.11271778494119644,-0.24071535468101501,-0.7404780983924866,-0.109795942902565,-0.4500848650932312,-0.8862102031707764,-0.1403108835220337,-0.1382177472114563,0.019205808639526367,0.7496024208731358,0.1429294620840838,-0.19096093758980387,-0.6174151108331041,0.4668603869722281,-0.12326566098928148,-1.3486574246924319
1773064626409819392,1.247833490371704,0.05813177302479744,-0.24460463225841522,-0.6882330179214478,-0.10870558023452759,-0.45158639550209045,-0.8855805397033691,-0.14230148494243622,-0.09780630469322205,-0.0021910667419433594,0.7470981423033499,0.14317144130601453,-0.19160291497802776,-0.6201892755827701,0.4685425422719275,-0.12213963352076602,-1.3565075854288775
1773064626419857408,1.2578716278076172,0.0978098139166832,-0.26218563318252563,-0.6531729102134705,-0.10791581124067307,-0.4529722332954407,-0.8849691152572632,-0.14428144693374634,-0.055679500102996826,-0.046366333961486816,0.744711326077501,0.14330352567180216,-0.1923006490848001,-0.6228078930654386,0.4700964123327038,-0.1213439233374583,-1.3638898996136586
1773064626429895424,1.2679095268249512,0.17250855267047882,-0.2873309254646301,-0.6407684087753296,-0.10740912705659866,-0.4548652172088623,-0.8840593695640564,-0.15110526978969574,-0.039992570877075195,-0.061115801334381104,0.742329817352773,0.1435725015203906,-0.19328026713418983,-0.625280883888842,0.4722208543538076,-0.12090281953808245,-1.3709172270909558
1773064626439933184,1.2779474258422852,0.23867549002170563,-0.2982754707336426,-0.6225973963737488,-0.10711662471294403,-0.4574240744113922,-0.8827735781669617,-0.15429694950580597,-0.04652795195579529,-0.058983564376831055,0.7399058694028117,0.1440537413704265,-0.19458087349627967,-0.6276353250949493,0.4750962922852985,-0.12075067367191708,-1.3777008373075983
1773064626449971456,1.2879855632781982,0.2262324094772339,-0.31122109293937683,-0.5828800797462463,-0.10700733959674835,-0.4601678252220154,-0.8813597559928894,-0.15156808495521545,-0.06568056344985962,-0.057818710803985596,0.7375360906241302,0.1445715016223165,-0.19600818117340213,-0.6298574611684227,0.47818422387336584,-0.12082029932541684,-1.3841417400012497
1773064626460009216,1.2980234622955322,0.1605672985315323,-0.3001718819141388,-0.5512816905975342,-0.10709065943956375,-0.4624921977519989,-0.8801321387290955,-0.14931802451610565,-0.0928819477558136,-0.05941253900527954,0.7352923383358146,0.1448763846917823,-0.197344287838746,-0.6319899147666419,0.4808040231318677,-0.12108046998952655,-1.3902605222461415
1773064626470047488,1.3080615997314453,0.0676107183098793,-0.2901195287704468,-0.5148821473121643,-0.1071968674659729,-0.4641580581665039,-0.8792417645454407,-0.1460990309715271,-0.1123495101928711,-0.045211970806121826,0.7332130925219121,0.14493004721352165,-0.1984298101332877,-0.6340500198544727,0.4826838448567367,-0.12132091632471168,-1.3961001244256848
1773064626480085248,1.3180994987487793,-0.047328341752290726,-0.2750144898891449,-0.47598570585250854,-0.10738486796617508,-0.4647310972213745,-0.8789160847663879,-0.13936500251293182,-0.09323704242706299,-0.03935784101486206,0.7313512709211495,0.14453947744317824,-0.19912382696982164,-0.6360686472972191,0.48333090882060226,-0.12157619043405384,-1.4016588730426374
1773064626490123264,1.3281373977661133,-0.04715683311223984,-0.26618850231170654,-0.4522244930267334,-0.10758432745933533,-0.46476367115974426,-0.8788744807243347,-0.13771598041057587,-0.06328198313713074,-0.04129153490066528,0.7296332103889444,0.14395098805989343,-0.19960181029246804,-0.6380223461851424,0.4833676882969479,-0.12180549293989797,-1.406968071403316
1773064626500161536,1.3381755352020264,-0.01961624249815941,-0.26511111855506897,-0.41623276472091675,-0.10790761560201645,-0.46491652727127075,-0.8787539601325989,-0.12178292870521545,-0.03183332085609436,-0.05812036991119385,0.7279986483945595,0.14340091276572484,-0.20014791618118882,-0.6398397564942746,0.4835403294175486,-0.12218447491089177,-1.4119066479771463
1773064626510199296,1.3482134342193604,0.05747348070144653,-0.2733927369117737,-0.40220004320144653,-0.10838223993778229,-0.4655056893825531,-0.8783835768699646,-0.1085672378540039,-0.01899135112762451,-0.0566750168800354,0.7264004219365829,0.14300347489674686,-0.20089355946898552,-0.6415092047865547,0.4842059135801315,-0.122767761406868,-1.4164840498651083
1773064626520237568,1.3582515716552734,0.10442004352807999,-0.2862187623977661,-0.37290528416633606,-0.1090206578373909,-0.4666830003261566,-0.8776795864105225,-0.0991702526807785,-0.042075514793395996,-0.07027262449264526,0.7247941535272279,0.1428057327030926,-0.20190772989993958,-0.6430498995491363,0.48553660258221915,-0.12358165008073671,-1.4207735271702027
1773064626530275328,1.3682894706726074,0.08568044006824493,-0.3071751892566681,-0.30500587821006775,-0.11002667248249054,-0.46795788407325745,-0.8768748641014099,-0.08073871582746506,-0.08547836542129517,-0.06294441223144531,0.7233167866112611,0.14256716227224664,-0.20306937077853568,-0.6443990768332488,0.48697861122066616,-0.12482355729350307,-1.4244770277846164
1773064626540313600,1.3783276081085205,-0.01390815619379282,-0.3043273389339447,-0.21503429114818573,-0.1114955022931099,-0.46857643127441406,-0.8763588666915894,-0.0653843805193901,-0.11624714732170105,-0.041335225105285645,0.7221407332032092,0.14198024752859528,-0.20411314183135293,-0.6455169947481832,0.4876786786402203,-0.12654599736036692,-1.427339466812293
1773064626550351360,1.3883655071258545,-0.08319401741027832,-0.30923980474472046,-0.15390995144844055,-0.11331400275230408,-0.468334436416626,-0.8762549757957458,-0.06535116583108902,-0.12544608116149902,-0.03173452615737915,0.7212662253657903,0.14099446537874796,-0.2049221168820463,-0.6464537466006426,0.48740475072344097,-0.12860255362222006,-1.4294900766253251
1773064626560389376,1.3984034061431885,-0.09368079155683517,-0.3289809226989746,-0.10819826275110245,-0.1155109852552414,-0.4676983058452606,-0.8763079047203064,-0.0645732432603836,-0.11508062481880188,-0.042149126529693604,0.7205665845346283,0.13976532375295256,-0.20569809105293438,-0.647254100562902,0.48668492710905914,-0.13105993840018273,-1.431121895905852
1773064626570427392,1.4084415435791016,-0.06744546443223953,-0.33426010608673096,-0.028348170220851898,-0.11808392405509949,-0.4670759439468384,-0.8762969374656677,-0.051715873181819916,-0.08976304531097412,-0.055740416049957275,0.7200533074396512,0.13847612809917784,-0.20658147579756747,-0.6478207863900195,0.485980926696615,-0.13394645896168367,-1.4320311384507953
1773064626580465408,1.4184794425964355,-0.031727056950330734,-0.3541267514228821,0.03837653249502182,-0.12112217396497726,-0.4666127860546112,-0.8761289715766907,-0.03688257932662964,-0.055756598711013794,-0.06391924619674683,0.7197522362970755,0.13716937757270167,-0.2076537554336382,-0.6480904778979543,0.4854571905211541,-0.13737619901002102,-1.4320453067572145
1773064626590503424,1.4285175800323486,0.05855676904320717,-0.37520647048950195,0.0843898355960846,-0.1246352270245552,-0.4666637182235718,-0.8756089210510254,-0.033766262233257294,-0.051524728536605835,-0.059586942195892334,0.7195585156394352,0.13596392403230648,-0.20906777900401888,-0.6481049186352086,0.48551477987457453,-0.14139139064896342,-1.4313319834074283
1773064626600541440,1.4385554790496826,0.1056378185749054,-0.40299147367477417,0.14849211275577545,-0.12855730950832367,-0.46729305386543274,-0.8747057914733887,-0.029584765434265137,-0.06310245394706726,-0.05823183059692383,0.7194635435731737,0.13490806940491612,-0.21082438526949948,-0.6478619298704759,0.4862264991037778,-0.14592733358910792,-1.4299063830319765
1773064626610579456,1.4485936164855957,0.05191173404455185,-0.45504748821258545,0.22300229966640472,-0.13316626846790314,-0.4677964448928833,-0.8737466335296631,-0.021939292550086975,-0.08103165030479431,-0.03338831663131714,0.7195504082645233,0.133631688325667,-0.21276569787195015,-0.647395152147101,0.4867959452114502,-0.15124445302938497,-1.4276981147190464
1773064626620617472,1.4586315155029297,-0.015396950766444206,-0.4793252646923065,0.2700836658477783,-0.13842159509658813,-0.46757882833480835,-0.8730461001396179,-0.020147711038589478,-0.12231069803237915,0.01316756010055542,0.7198541244442834,0.1319023887578054,-0.21465950529263497,-0.6467868386076392,0.486549771158533,-0.15724129440676232,-1.42486701318652
1773064626630655232,1.4686694145202637,-0.05903524532914162,-0.5277894735336304,0.3068928122520447,-0.14414148032665253,-0.46687832474708557,-0.872495174407959,-0.024223998188972473,-0.16390472650527954,-0.0024132728576660156,0.720257234186913,0.12984765904244405,-0.21654557947882333,-0.6461247264533141,0.48575746748249016,-0.16372718903938815,-1.421741513822459
1773064626640693504,1.4787075519561768,-0.111299067735672,-0.5713090300559998,0.37479090690612793,-0.15052826702594757,-0.4656199514865875,-0.8720890283584595,-0.006057441234588623,-0.14633378386497498,0.0031925439834594727,0.7208112966670056,0.12738755617317707,-0.21846714144151816,-0.6453491423626327,0.4843349957624952,-0.17092238298389711,-1.4181178370942602
1773064626650731264,1.4887454509735107,-0.09966345131397247,-0.6091157793998718,0.41754236817359924,-0.15751852095127106,-0.4640437960624695,-0.8716945052146912,0.00012412667274475098,-0.09718972444534302,0.020330369472503662,0.7215155620151649,0.1246509320859367,-0.2204878548197447,-0.6444087802852094,0.48255483740605387,-0.17877458678260125,-1.4139140249437225
1773064626660769536,1.4987835884094238,-0.02861892431974411,-0.6526901125907898,0.4346124231815338,-0.1649903655052185,-0.4628334939479828,-0.8709554076194763,-0.0074949711561203,-0.05456152558326721,-0.010605812072753906,0.7222220994633262,0.12192986990495244,-0.22283489532412112,-0.643329679467561,0.4811890123904387,-0.18721759702464327,-1.4093184412976465
1773064626670807296,1.5088214874267578,0.05133369565010071,-0.6840059757232666,0.4523509442806244,-0.17288455367088318,-0.462177574634552,-0.8697717189788818,-0.008710294961929321,-0.033458411693573,-0.030908823013305664,0.72288133926155,0.11931163018624774,-0.22556347218699335,-0.642128050182737,0.48044920017416054,-0.19621263036108869,-1.4044063808558593
1773064626680845568,1.518859624862671,0.1268138885498047,-0.7105613946914673,0.491046667098999,-0.18113502860069275,-0.46222200989723206,-0.8680673241615295,-0.010316997766494751,-0.052991002798080444,-0.036931395530700684,0.7235300531657044,0.11689751951287071,-0.228694766324329,-0.6407323294338202,0.48049930361049153,-0.20571297321601537,-1.3990005313596892
1773064626690883328,1.5288975238800049,0.09039171040058136,-0.7199171185493469,0.5330186486244202,-0.18972249329090118,-0.46227598190307617,-0.8662022352218628,-0.016225382685661316,-0.06697511672973633,-0.013100743293762207,0.7242831040382764,0.11443411556483502,-0.2319562937049136,-0.6391518618944166,0.4805601878713199,-0.21562293669287547,-1.3930568720887726
1773064626700921344,1.5389354228973389,0.07173577696084976,-0.7415295839309692,0.5477601885795593,-0.1985456794500351,-0.4619736969470978,-0.864384114742279,-0.0333116352558136,-0.09114214777946472,-0.011439859867095947,0.7251037406245145,0.11178189146660078,-0.23518662287382897,-0.6375080950181912,0.48021930529343104,-0.22577975591249524,-1.3869026231051604
1773064626710959360,1.548973560333252,0.0428553931415081,-0.7512953877449036,0.5851573348045349,-0.20761233568191528,-0.4613991975784302,-0.8625589609146118,-0.03762693703174591,-0.10621249675750732,-0.025105834007263184,0.7259757349115945,0.10897113004429292,-0.23842362032287068,-0.6357977339376261,0.4795716483764837,-0.23620060806739354,-1.380545139197744
1773064626720997376,1.559011459350586,0.038323935121297836,-0.7641070485115051,0.6351206302642822,-0.2169739305973053,-0.4604862928390503,-0.8607407808303833,-0.02915032207965851,-0.09800064563751221,-0.0296858549118042,0.7269769003405628,0.10598749989678105,-0.24165317069680872,-0.6339361419027194,0.4785429453254417,-0.24693359582618463,-1.3737483527609582
1773064626731035392,1.569049596786499,0.0477515272796154,-0.7724590301513672,0.7036062479019165,-0.22667069733142853,-0.4594469368457794,-0.8587950468063354,-0.02859356999397278,-0.07372567057609558,-0.03924572467803955,0.7281303434659798,0.10292542464179877,-0.24496701186436717,-0.6318416086386918,0.47737243944218416,-0.25805538880028167,-1.3663072812963561
1773064626741073408,1.579087495803833,0.0427837073802948,-0.752562940120697,0.760029137134552,-0.23658475279808044,-0.45815619826316833,-0.8568083643913269,-0.03567783534526825,-0.026493459939956665,-0.037097275257110596,0.7294798596380144,0.09978785664103865,-0.2482704350440076,-0.6294945022913456,0.475919784416247,-0.26941023482861853,-1.3581913349645767
1773064626751111168,1.589125394821167,0.105137899518013,-0.7275881171226501,0.7686969637870789,-0.24644587934017181,-0.4569365978240967,-0.8546773195266724,-0.062041059136390686,0.00976252555847168,-0.029081225395202637,0.7309305796181543,0.09677003350726374,-0.2515887338280001,-0.6269602178613266,0.47454818880548655,-0.2807343891027449,-1.3496467058126242
1773064626761149440,1.59916353225708,0.21620938181877136,-0.721185564994812,0.7723454236984253,-0.25615787506103516,-0.45642364025115967,-0.8520918488502502,-0.08478450775146484,0.013750940561294556,-0.06581580638885498,0.7323350983343463,0.09413123905609257,-0.2551340323203349,-0.6242844804441957,0.473971596829746,-0.2920276700022511,-1.340830319347248
1773064626771187200,1.609201431274414,0.24764320254325867,-0.7143047451972961,0.824661374092102,-0.2659471929073334,-0.45639264583587646,-0.8491041660308838,-0.08196845650672913,0.0014518499374389648,-0.06692671775817871,0.7337837825357721,0.09174127155901728,-0.2589043506235066,-0.6213803157407836,0.4739367504860138,-0.3035307929630698,-1.3314472369250672
1773064626781225472,1.6192395687103271,0.21408049762248993,-0.6823975443840027,0.8756917119026184,-0.27579888701438904,-0.45609089732170105,-0.8461182117462158,-0.07896795868873596,-0.00945475697517395,-0.00542902946472168,0.73541380760128,0.08932500162241395,-0.26260602825438617,-0.6182440302101516,0.4735976493293589,-0.31509801810111504,-1.3214715540030415
1773064626791263232,1.6292774677276611,0.13094353675842285,-0.6476467847824097,0.8822515606880188,-0.2854538559913635,-0.455109179019928,-0.8434404134750366,-0.09383386373519897,-0.01934760808944702,0.02651536464691162,0.7371768964588151,0.08675445359429476,-0.2659952213584169,-0.6150531881477663,0.4724948194475179,-0.3263393676957732,-1.3114321818933252
1773064626801301504,1.6393156051635742,0.05403636395931244,-0.6062168478965759,0.8883700370788574,-0.2947860360145569,-0.45332229137420654,-0.8411896824836731,-0.10594025254249573,-0.030488133430480957,0.03309953212738037,0.7390124875978158,0.08397999399289949,-0.2689842181203404,-0.6119276361177531,0.4704890829370855,-0.33706623398911806,-1.3016882821537472
1773064626811339264,1.6493535041809082,-0.026750627905130386,-0.5730234980583191,0.9127296805381775,-0.30383774638175964,-0.4507151246070862,-0.8393679261207581,-0.11327648162841797,-0.02644246816635132,0.03970056772232056,0.7409723701254001,0.08100032022158937,-0.2715786866839555,-0.6088053481918873,0.4675662728316593,-0.3473108314590988,-1.292082736885389
1773064626821377280,1.6593914031982422,-0.07741891592741013,-0.5605581998825073,0.9186399579048157,-0.312732070684433,-0.447460412979126,-0.8378411531448364,-0.12234178185462952,-0.0011937618255615234,0.033245205879211426,0.74301158353862,0.07783650975819481,-0.27389942044349574,-0.6056850064067392,0.4639235652005691,-0.3572437689867333,-1.2826090281079756
1773064626831415296,1.6694295406341553,-0.10517943650484085,-0.553249180316925,0.880732536315918,-0.32143670320510864,-0.4437997341156006,-0.8364927768707275,-0.13316836953163147,0.020810872316360474,0.040869057178497314,0.7450176984366242,0.07455663257362803,-0.27603424997204257,-0.6026565677590378,0.4598344160303666,-0.36687044910919325,-1.2735174983558337
1773064626841453312,1.6794674396514893,-0.061859920620918274,-0.5622810125350952,0.8205634355545044,-0.32987090945243835,-0.44032421708106995,-0.835044801235199,-0.14144256711006165,0.01698434352874756,0.029731690883636475,0.7468303366213839,0.07138192696558564,-0.2781766147569311,-0.5998056789674442,0.45595973481524765,-0.37621783745443976,-1.265024801533888
1773064626851491328,1.6895055770874023,-0.047060202807188034,-0.5810325741767883,0.8080753684043884,-0.3382510542869568,-0.4372117221355438,-0.833325982093811,-0.1327419877052307,0.006913870573043823,0.017438530921936035,0.7484812292428179,0.06834593285054659,-0.28047431383608734,-0.5970251266323214,0.4524960314813729,-0.38558635781940787,-1.2567977780930089
1773064626861529344,1.6995434761047363,-0.102610282599926,-0.5663681626319885,0.7944663166999817,-0.3465573191642761,-0.43384087085723877,-0.8316730856895447,-0.12226894497871399,0.0019561052322387695,0.03655284643173218,0.7500971513572492,0.06522139190196505,-0.2826829101176681,-0.5942985949361688,0.4487513734091078,-0.3948186546852352,-1.2488202056422146
1773064626871567360,1.7095816135406494,-0.10956592857837677,-0.5716673135757446,0.7546531558036804,-0.3546653389930725,-0.43020689487457275,-0.8301412463188171,-0.12378925085067749,-0.01759272813796997,0.007372140884399414,0.7516247127714517,0.062012768860097246,-0.2847521665632398,-0.5917184955396616,0.44472196506240846,-0.40376212064147127,-1.2413538166127436
1773064626881605376,1.7196195125579834,-0.13187628984451294,-0.55213862657547,0.742286205291748,-0.3625955283641815,-0.4265722334384918,-0.8285894989967346,-0.10746672749519348,-0.02696475386619568,0.005881369113922119,0.7530592872735198,0.058832618358373515,-0.2867821020351443,-0.589233656437554,0.44069949764293365,-0.4124992032315078,-1.2342406541436761
1773064626891643392,1.7296574115753174,-0.15663889050483704,-0.5075724720954895,0.7239863276481628,-0.3701474964618683,-0.4226771891117096,-0.82724529504776,-0.08802813291549683,-0.0009525716304779053,0.054082512855529785,0.7544980837733803,0.055657516756639505,-0.2885820224292676,-0.5868179044534091,0.43639731736438775,-0.42072789249540576,-1.2274455504793726
1773064626901681408,1.7396955490112305,-0.13196124136447906,-0.48868533968925476,0.6628957986831665,-0.37719622254371643,-0.4188600182533264,-0.8260020017623901,-0.07888898253440857,0.028311312198638916,0.04777324199676514,0.7558574736195541,0.05263648808659041,-0.2902213101501973,-0.5845343410732546,0.432189531133724,-0.4283727094691074,-1.221113550969854
1773064626911719424,1.7497334480285645,-0.07920721918344498,-0.46283137798309326,0.6058855056762695,-0.38379615545272827,-0.4155827462673187,-0.8246159553527832,-0.06775721907615662,0.027917951345443726,0.0384678840637207,0.757039067072354,0.049920745266907214,-0.2918902819561365,-0.5824086459969288,0.42858341422260654,-0.43560632104445957,-1.2152528020729207
1773064626921757440,1.7597715854644775,-0.07165795564651489,-0.41254690289497375,0.6067818999290466,-0.38995522260665894,-0.41266930103302,-0.823188304901123,-0.043180763721466064,0.0062361955642700195,0.06130170822143555,0.7581699286724923,0.047485079404896345,-0.29351494371488507,-0.5803210248336762,0.4253825884027158,-0.4423979679796791,-1.209546191721806
1773064626931795456,1.7698094844818115,-0.11663874983787537,-0.36794427037239075,0.6038529872894287,-0.39569351077079773,-0.40953880548477173,-0.8220124840736389,-0.02108505368232727,-0.008506238460540771,0.06424582004547119,0.7593744159510746,0.04510898663012019,-0.2948879857477631,-0.5782358140693733,0.42194847596951857,-0.4486341807638045,-1.2039476949181285
1773064626941835520,1.7798495292663574,-0.15578880906105042,-0.3269108235836029,0.5726258158683777,-0.4009755849838257,-0.40606197714805603,-0.8211773633956909,-0.014765381813049316,-0.02249637246131897,0.05842101573944092,0.7605985039969876,0.04271023144367904,-0.29595127561301043,-0.5762625711675551,0.4181406117739441,-0.45423864018006593,-1.1987604001757697
1773064626951873280,1.7898874282836914,-0.1746673434972763,-0.28630802035331726,0.5478141903877258,-0.4057896137237549,-0.4024682343006134,-0.8205815553665161,-0.0051905810832977295,-0.016095608472824097,0.05532276630401611,0.7617813541862121,0.040367050962749146,-0.29678228553062863,-0.57443876297145,0.41421149512178834,-0.4592497330690619,-1.1940548386279677
1773064626961911296,1.7999253273010254,-0.20919589698314667,-0.25672203302383423,0.5229316353797913,-0.41019630432128906,-0.3986850678920746,-0.8202373385429382,0.009912490844726562,0.013583749532699585,0.04737961292266846,0.7629558285932998,0.038043532313392726,-0.2973786026369734,-0.5727278160999707,0.41008258246551615,-0.46372333218059947,-1.1897342107239426
1773064626971949312,1.8099634647369385,-0.16622792184352875,-0.2463223785161972,0.4783298075199127,-0.41427502036094666,-0.39501988887786865,-0.8199606537818909,0.015257716178894043,0.02998390793800354,0.024336934089660645,0.7640528021771369,0.035828263625552144,-0.2978858985224733,-0.5711423921366576,0.4060895123983643,-0.4678289800868065,-1.1857851281622631
1773064626981987328,1.8200013637542725,-0.07783232629299164,-0.23220215737819672,0.4590281546115875,-0.418103963136673,-0.39208081364631653,-0.8194276690483093,0.023633748292922974,0.02350476384162903,0.0065615177154541016,0.7650387847977755,0.033972422526908776,-0.29854987252604914,-0.5695871886931128,0.4028924221377524,-0.47180519935324605,-1.1818708044335158
1773064626992025344,1.8300395011901855,-0.045917000621557236,-0.2126135528087616,0.4824666380882263,-0.42178791761398315,-0.38965871930122375,-0.8186947107315063,0.03842613101005554,0.028773099184036255,0.012618660926818848,0.7660537957470877,0.032422559416054236,-0.29933496940241633,-0.5678986690565719,0.4002609836115227,-0.475730068334906,-1.1775754891192824
1773064627002063360,1.8400774002075195,-0.07379332929849625,-0.18311649560928345,0.4726671278476715,-0.4253057539463043,-0.38713502883911133,-0.8180718421936035,0.03677120804786682,0.04259154200553894,0.036364078521728516,0.7671307108762673,0.030905571983570794,-0.30001487779708447,-0.5661682389137436,0.39752227866848966,-0.47943114118301705,-1.1732160376616352
1773064627012101376,1.8501155376434326,-0.06211429834365845,-0.16738201677799225,0.4123412072658539,-0.4284898638725281,-0.3846835792064667,-0.8175665140151978,0.021507471799850464,0.04291719198226929,0.058151841163635254,0.7681280953467244,0.029470656328017784,-0.3005798084386202,-0.564590642800727,0.39486499131183955,-0.48274433735104055,-1.169283552876243
1773064627022139392,1.8601534366607666,-0.039309028536081314,-0.1634322851896286,0.3777320981025696,-0.43137189745903015,-0.38261914253234863,-0.817019522190094,0.02480146288871765,0.03561902046203613,0.047198355197906494,0.7689856747951179,0.028226976949619724,-0.30115358268774634,-0.5631791942002113,0.392629499523536,-0.48578208920173305,-1.1657627610338424
1773064627032177152,1.8701913356781006,-0.05347464978694916,-0.15575093030929565,0.3952524960041046,-0.4342040717601776,-0.38064417243003845,-0.8164415955543518,0.04985043406486511,0.015302985906600952,0.05107599496841431,0.7698261857994958,0.027034114912504653,-0.30174222614964724,-0.5617725969070174,0.3904928032178525,-0.48878232647741854,-1.1622594540881366
1773064627042215424,1.8802294731140137,-0.14810608327388763,-0.14567992091178894,0.40996086597442627,-0.4370080530643463,-0.3780934512615204,-0.8161306977272034,0.07142272591590881,0.0019337832927703857,0.08579927682876587,0.7707488496337058,0.02562043653751142,-0.30212289857495334,-0.560367358264847,0.38773601796620405,-0.4916141430326595,-1.1588586215434322
1773064627052253184,1.8902673721313477,-0.2357669621706009,-0.14199942350387573,0.35756078362464905,-0.4396524429321289,-0.3748067319393158,-0.8162264823913574,0.0643930435180664,-0.003336578607559204,0.08548307418823242,0.7716404002943534,0.02387937179783946,-0.30218627036743295,-0.5591818326776645,0.3841882893770714,-0.4940799191874253,-1.1561589476231253
1773064627062291456,1.9003055095672607,-0.23395201563835144,-0.15362733602523804,0.29579782485961914,-0.44208282232284546,-0.37141793966293335,-0.8164628148078918,0.05534881353378296,-0.01124197244644165,0.056575119495391846,0.7723563383652401,0.022049904618466763,-0.3021297619599634,-0.5582984724528767,0.38053573720366407,-0.4962637689918331,-1.1542832598322232
1773064627072329216,1.9103434085845947,-0.16562435030937195,-0.1737363189458847,0.26816514134407043,-0.4444667398929596,-0.36851176619529724,-0.8164854049682617,0.0626308023929596,-0.010867506265640259,0.03494548797607422,0.7729068464210788,0.02037700571616647,-0.3022285174975791,-0.5575461997109861,0.37740762333075745,-0.4985072480533065,-1.1526916896290682
1773064627082367488,1.9203815460205078,-0.09115065634250641,-0.18303048610687256,0.2657877206802368,-0.44691717624664307,-0.3662891387939453,-0.8161478638648987,0.06288397312164307,0.0007648468017578125,0.004029333591461182,0.7733902122715303,0.01898244582602379,-0.3025983088091077,-0.5567239592736744,0.37501784368549373,-0.5009936502111237,-1.1508261749997946
1773064627092405248,1.9304194450378418,-0.06155814230442047,-0.1801859587430954,0.27380436658859253,-0.4494248330593109,-0.36449676752090454,-0.8155730962753296,0.048835813999176025,0.01606231927871704,0.00276792049407959,0.7738709536484579,0.01778198744849326,-0.30314562020443114,-0.5557969809498807,0.3730923363865954,-0.5036520913213522,-1.1486329128889399
1773064627102443264,1.9404573440551758,-0.09184125810861588,-0.1455591320991516,0.2508624494075775,-0.4517270624637604,-0.36270007491111755,-0.8151019811630249,0.021505534648895264,0.03455984592437744,0.012138783931732178,0.774363809712467,0.01663788836291191,-0.30359872433374485,-0.5548977886894437,0.3711636384028,-0.5060597612041985,-1.1465275284577205
1773064627112481280,1.9504954814910889,-0.11696098744869232,-0.13537095487117767,0.21306738257408142,-0.4537450075149536,-0.3608064353466034,-0.8148215413093567,-0.006749987602233887,0.035336464643478394,0.002504706382751465,0.7747971654016129,0.015484546823628787,-0.3038905199480372,-0.5541661307327375,0.3691324261867465,-0.508097994885543,-1.1448862423745951
1773064627122518272,1.9605324268341064,-0.1377025693655014,-0.10925493389368057,0.1783679872751236,-0.4554291069507599,-0.3589023947715759,-0.8147228956222534,-0.022338837385177612,0.021011769771575928,0.011439204216003418,0.7751568006385097,0.014366762839602582,-0.30402655607614376,-0.5536184083796779,0.3670916626482927,-0.5097257916558031,-1.1437366989894477
1773064627132556288,1.9705703258514404,-0.17396044731140137,-0.08347127586603165,0.16000069677829742,-0.45684105157852173,-0.3568686544895172,-0.8148257732391357,-0.01924842596054077,0.010097414255142212,0.03696322441101074,0.775491327092758,0.013238618237445994,-0.3039931817347496,-0.5531962677333347,0.3649136744031154,-0.510991389624457,-1.1429439983880647
1773064627142594304,1.9806084632873535,-0.1742643117904663,-0.06850351393222809,0.12833864986896515,-0.4579729735851288,-0.3547442853450775,-0.8151179552078247,-0.010227710008621216,0.006965965032577515,0.05921280384063721,0.7757933829964093,0.012116465133579167,-0.303799625113807,-0.5529047903804815,0.36264054827735015,-0.5118945753988061,-1.142513587673425
1773064627152632320,1.9906463623046875,-0.14937974512577057,-0.08542843163013458,0.10327936708927155,-0.4590047299861908,-0.35291481018066406,-0.815331757068634,0.004689544439315796,0.008218735456466675,0.04392361640930176,0.7760023073022192,0.01110926851665489,-0.3036621766561589,-0.5527082236704554,0.3606845303960619,-0.5127440235029365,-1.1422856403970034
1773064627162670336,2.0006844997406006,-0.13281022012233734,-0.08292518556118011,0.09206173568964005,-0.46005117893218994,-0.35131096839904785,-0.8154345750808716,0.02570977807044983,0.017067164182662964,0.04765808582305908,0.7761483506394862,0.010172916496146345,-0.30361030568635045,-0.5525497043039578,0.3589709411149125,-0.5136641003957608,-1.1421217813629918
1773064627172708352,2.0107223987579346,-0.08933251351118088,-0.07849475741386414,0.05790535733103752,-0.4609794318675995,-0.3500555455684662,-0.8154502511024475,0.022914886474609375,0.018771976232528687,0.04398113489151001,0.7762401865713927,0.009402284993300694,-0.303622267873295,-0.5524276855010211,0.3576304118534851,-0.5145189655658421,-1.1419991863190457
1773064627182746368,2.0207605361938477,-0.024790320545434952,-0.08409924805164337,0.020931759849190712,-0.4617871344089508,-0.3494408428668976,-0.8152568936347961,0.011820703744888306,0.010253190994262695,0.012385189533233643,0.7762148724923663,0.008902946457002762,-0.3037964647910521,-0.5523757979486308,0.35697424251274334,-0.515370927402864,-1.1419551769519125
1773064627192784384,2.0307984352111816,-0.0287547018378973,-0.06873494386672974,0.008972037583589554,-0.4624647796154022,-0.3491978347301483,-0.8149768114089966,0.014863461256027222,0.0013432204723358154,0.014882206916809082,0.7761398807231679,0.008585197521939878,-0.30403599168038997,-0.5523543661880993,0.35671492137240607,-0.5161474769746279,-1.1419307529348126
1773064627202822144,2.0408363342285156,-0.02842486836016178,-0.03573025017976761,-0.025882748886942863,-0.4628535807132721,-0.3489706516265869,-0.8148534297943115,0.009545475244522095,-0.009961843490600586,0.016299962997436523,0.7760467504642812,0.00833325409922942,-0.3041444582404319,-0.5524293638789356,0.35647247476979843,-0.5165732985667446,-1.1421564729609863
1773064627212860416,2.0508744716644287,-0.02860782854259014,-0.019150208681821823,-0.0500597208738327,-0.46295514702796936,-0.3489522933959961,-0.8148036003112793,0.02032819390296936,-0.030365943908691406,-0.007645130157470703,0.7758934930461088,0.008216071108601808,-0.3041886060707623,-0.5526221370213953,0.35645290302962795,-0.516693818787342,-1.1426550725656417
1773064627222898176,2.0609123706817627,-0.04867536574602127,-0.0028434069827198982,-0.02561856247484684,-0.46289241313934326,-0.34886008501052856,-0.8148787021636963,0.05560481548309326,-0.043046653270721436,0.00048661231994628906,0.7757687627030551,0.008118116913276009,-0.30412947656387296,-0.5528311982167392,0.35635450080082887,-0.5165959898498218,-1.1432101012978728
1773064627232936448,2.070950508117676,-0.1050981655716896,0.017723919823765755,0.0036386579740792513,-0.4627979099750519,-0.3482680916786194,-0.815185546875,0.09031558036804199,-0.045698583126068115,0.02392578125,0.7757564057493092,0.00785037899591614,-0.3038841910730754,-0.552987199544604,0.3557229002146077,-0.5163466634847654,-1.1437114965579915
1773064627242974208,2.0809884071350098,-0.11592341959476471,0.02849254384636879,0.005869454704225063,-0.46263372898101807,-0.3472921550273895,-0.8156949281692505,0.09746035933494568,-0.052747517824172974,0.02197849750518799,0.7758119788785377,0.00745303063857945,-0.30347484903559574,-0.5531394935085236,0.3546819716242756,-0.5159262239819163,-1.1442675905015485
1773064627253012480,2.091026544570923,-0.0794607549905777,0.048508595675230026,0.030109280720353127,-0.46236345171928406,-0.3464553952217102,-0.8162038326263428,0.09737321734428406,-0.0691482424736023,0.0040700435638427734,0.7759073749687028,0.007169547433310685,-0.30306217310602906,-0.5532356371688419,0.35378982893524297,-0.5154079832883581,-1.1446568502768322
1773064627263050240,2.101064443588257,-0.09477881342172623,0.04804973676800728,0.08424868434667587,-0.46214067935943604,-0.3454733192920685,-0.8167461156845093,0.10671767592430115,-0.05810639262199402,-0.005229592323303223,0.776151323106317,0.006886917636222012,-0.3026210832702895,-0.5531384912624799,0.3527431126704794,-0.5149166098554816,-1.144571167803698
1773064627273088256,2.111102342605591,-0.02853907272219658,0.03903120756149292,0.09375324100255966,-0.46212148666381836,-0.34448543190956116,-0.8171740770339966,0.11185598373413086,-0.04432377219200134,-0.003367304801940918,0.7764772426664845,0.006598132656738031,-0.30227374833818144,-0.5528743837900109,0.3516906044913135,-0.5146743230782455,-1.144054140211513
1773064627283126272,2.121140480041504,0.05067989230155945,0.017300477251410484,0.09874546527862549,-0.4622035324573517,-0.34418147802352905,-0.8172557950019836,0.11691242456436157,-0.03960755467414856,-0.0019122958183288574,0.7767859505020627,0.006602407768607879,-0.30220609769712514,-0.5524775383202772,0.35136685926248123,-0.5147075630452597,-1.1430815966444021
1773064627293164288,2.131178379058838,0.07465047389268875,-0.016507552936673164,0.11406316608190536,-0.4625852108001709,-0.3441793620586395,-0.8170406818389893,0.1275632381439209,-0.032651662826538086,0.002007722854614258,0.7770825387454825,0.006673469376378155,-0.30238242982404423,-0.5519627890018929,0.35136461690400955,-0.5151741744052865,-1.1417528453608545
1773064627303202304,2.141216516494751,0.11276035755872726,-0.043793369084596634,0.15086552500724792,-0.4632616639137268,-0.3443823754787445,-0.8165717124938965,0.1292925775051117,-0.061257243156433105,0.0023475289344787598,0.7773924590426133,0.006780768069364813,-0.3027674919078208,-0.5513137301835536,0.35158085094466773,-0.5160472865709844,-1.140041780771425
1773064627313240320,2.151254415512085,-0.0048280637711286545,-0.04978974536061287,0.2135438174009323,-0.46427807211875916,-0.3440658152103424,-0.8161277770996094,0.13311657309532166,-0.0775650143623352,0.020732879638671875,0.777817100356516,0.00662355782729954,-0.3031373220541173,-0.5505128709398831,0.3512436874228655,-0.517222129780911,-1.138024166358332
1773064627323278080,2.161292314529419,-0.09921187162399292,-0.054069843143224716,0.21295751631259918,-0.4654408395290375,-0.3425726592540741,-0.8160936236381531,0.11612138152122498,-0.0789208710193634,0.037178218364715576,0.7783412264380782,0.0059245366115910246,-0.3031799621984017,-0.5497560373022718,0.34965388017117965,-0.5183158607049851,-1.1363185800710534
1773064627333316352,2.171330451965332,-0.07726316154003143,-0.07659140229225159,0.19720491766929626,-0.46666648983955383,-0.3408689796924591,-0.8161070346832275,0.09352809190750122,-0.0696229636669159,0.02641892433166504,0.7788092666828256,0.005080010073907636,-0.3031842170480815,-0.5490989514248389,0.3478410904226647,-0.5194412954987753,-1.134908703217274
1773064627343354112,2.181368350982666,-0.029225239530205727,-0.11313875764608383,0.2215118706226349,-0.46815553307533264,-0.3394341766834259,-0.8158522248268127,0.09652769565582275,-0.023541897535324097,0.010935842990875244,0.7792379253024572,0.004282037514906348,-0.30340658672506016,-0.5483742503463142,0.34631528964322206,-0.5209499791625294,-1.1332820253506397
1773064627353392384,2.191406488418579,0.0870334655046463,-0.14431823790073395,0.22478622198104858,-0.4699503183364868,-0.33862361311912537,-0.815156877040863,0.10276281833648682,0.003983110189437866,0.005342423915863037,0.779656977437057,0.003708140406035733,-0.30398652876610754,-0.5474608828610577,0.34545371440706346,-0.5229722297683188,-1.1310666105338165
1773064627363430144,2.201444387435913,0.17161697149276733,-0.17257998883724213,0.23870469629764557,-0.4720224440097809,-0.3386649191379547,-0.8139415383338928,0.0997384786605835,-0.001010984182357788,-0.016289114952087402,0.7800393171950366,0.0034608236670848553,-0.30498728367042854,-0.5463600871912128,0.34549760037540567,-0.5255252570141098,-1.1282246156986975
1773064627373468416,2.211482524871826,0.13553352653980255,-0.18229998648166656,0.27469441294670105,-0.4743650257587433,-0.33872178196907043,-0.8125548362731934,0.09898355603218079,-0.0038990676403045654,-0.00963449478149414,0.7804708172316727,0.0031901312283278485,-0.30612481176641027,-0.5451080205641612,0.34555804714369054,-0.5284184458506579,-1.124993010455256
1773064627383506176,2.22152042388916,0.11821117997169495,-0.18143552541732788,0.2652662694454193,-0.4767370820045471,-0.33844897150993347,-0.811279296875,0.07550722360610962,-0.02294018864631653,-0.01513671875,0.7809330491569911,0.0027759247271521045,-0.30716877934434483,-0.5438595616198953,0.34526811132712265,-0.5312788735046436,-1.1218320478188257
1773064627393544192,2.231558322906494,0.08237674832344055,-0.1790485382080078,0.28726932406425476,-0.4791475236415863,-0.33799678087234497,-0.8100467920303345,0.05730307102203369,-0.04036015272140503,-0.026165366172790527,0.7813918268954642,0.002268881925191336,-0.3081743696642465,-0.542632736792084,0.3447875889823225,-0.5341504777732117,-1.118762779735295
1773064627403582208,2.2415964603424072,0.05234184116125107,-0.14323075115680695,0.31648483872413635,-0.48148685693740845,-0.33705466985702515,-0.8090516924858093,0.04656559228897095,-0.031170427799224854,-0.019149601459503174,0.7819624004461502,0.0016090034924943154,-0.30898475023795574,-0.5413508619378757,0.34378676420538234,-0.5368272014177602,-1.1156472486147302
1773064627413620224,2.251634359359741,0.04381199926137924,-0.12295395880937576,0.3454190194606781,-0.48368245363235474,-0.33586516976356506,-0.808236300945282,0.025354206562042236,-0.011302769184112549,-0.04347878694534302,0.7826567322926757,0.000936604330393857,-0.3096465513582533,-0.5399690248707476,0.3425236093194755,-0.5392730429067301,-1.112328962511784
1773064627423658496,2.2616724967956543,0.03917676582932472,-0.1138901636004448,0.344899982213974,-0.4858398735523224,-0.33446043729782104,-0.807524561882019,0.013671904802322388,0.026904284954071045,-0.04962265491485596,0.7834145936949943,0.0002089029385250712,-0.3102220000631226,-0.5385387457040943,0.3410326490084142,-0.5416252547861076,-1.1089352337742697
1773064627433696256,2.2717103958129883,0.14222778379917145,-0.108055979013443,0.3187122941017151,-0.48783332109451294,-0.3335769474506378,-0.8066877126693726,0.002237647771835327,0.04135587811470032,-0.04835379123687744,0.7841297881938433,-0.0002497752328298195,-0.31089560958465373,-0.5371073800183698,0.34009530540954463,-0.5438947845040248,-1.1054488534553613
1773064627443734528,2.2817485332489014,0.1858069896697998,-0.11028171330690384,0.33362507820129395,-0.48981520533561707,-0.3333628177642822,-0.8055745363235474,0.0032887160778045654,0.04022622108459473,-0.06080424785614014,0.7848244622197658,-0.0003878439934035912,-0.3117893251553162,-0.5355725461153075,0.3398681918998616,-0.5463045713635132,-1.1015775479795673
1773064627453772288,2.2917864322662354,0.21591056883335114,-0.09899657219648361,0.3511851727962494,-0.49180999398231506,-0.3332790732383728,-0.80439293384552,-0.002300083637237549,0.035625845193862915,-0.04973304271697998,0.7855779226910181,-0.00042532766308126056,-0.31273525679739805,-0.5339137711709031,0.3397793493828564,-0.548763467641551,-1.0973698082763021
1773064627463810304,2.3018243312835693,0.1973532736301422,-0.09290020167827606,0.3477277159690857,-0.4937525987625122,-0.3332730829715729,-0.8032045364379883,-0.023505091667175293,0.032995373010635376,-0.04379558563232422,0.7863669715214292,-0.0003863888477977865,-0.3136839076199267,-0.5321930258528511,0.33977301147353406,-0.5511788488730985,-1.092993598839408
1773064627473848320,2.3118624687194824,0.1705392301082611,-0.08427262306213379,0.2906772196292877,-0.4955308437347412,-0.3331567943096161,-0.802156925201416,-0.04963517189025879,0.03689214587211609,-0.032895565032958984,0.7870837098097616,-0.0004026866034031851,-0.3145176725822277,-0.5306390054555157,0.3396496672234428,-0.5533673784820726,-1.089066837779112
1773064627483886336,2.3219003677368164,0.1966797113418579,-0.09165849536657333,0.2293705940246582,-0.49709734320640564,-0.33334416151046753,-0.8011091947555542,-0.06668439507484436,0.02206486463546753,-0.0380479097366333,0.7876338738633023,-0.0003187443565932904,-0.31534950538371864,-0.5293273904177579,0.3398483863195532,-0.5553650168453129,-1.0856990352988443
1773064627493924352,2.3319385051727295,0.19840118288993835,-0.09919604659080505,0.2050604671239853,-0.4985794425010681,-0.3338707685470581,-0.7999680638313293,-0.060716211795806885,0.013298869132995605,-0.024449050426483154,0.788054449791508,-0.0001233238473399511,-0.3162530069062117,-0.5281611845633987,0.3404069872982913,-0.5573393285806759,-1.0826342460877
1773064627503962368,2.3419764041900635,0.16837039589881897,-0.11367911100387573,0.17681282758712769,-0.5000860691070557,-0.33438488841056824,-0.7988120317459106,-0.048742055892944336,0.017169922590255737,-0.010865092277526855,0.788395796753286,1.6942292681307604e-05,-0.3171655234536364,-0.5271035986914113,0.3409524761324563,-0.5593448234326266,-1.0798478482117528
1773064627514000384,2.3520145416259766,0.12821711599826813,-0.11902540922164917,0.11800970882177353,-0.5015069246292114,-0.33483874797821045,-0.7977304458618164,-0.047687411308288574,0.01312243938446045,-0.0010519027709960938,0.7886037030509448,6.818566695482913e-05,-0.3180169588431496,-0.5262788546232211,0.3414340909039509,-0.5612320440600816,-1.077664167034097
1773064627524038400,2.3620524406433105,0.101870596408844,-0.12139388918876648,0.06418868899345398,-0.5027391910552979,-0.3353235125541687,-0.796750545501709,-0.04100775718688965,0.013683497905731201,-0.008852481842041016,0.7886519641248099,7.9595883061569e-05,-0.31878631614009934,-0.5257408142967678,0.34194859169930375,-0.5628929684881039,-1.0762010957587818
1773064627534076160,2.3720903396606445,0.11875370889902115,-0.12823528051376343,0.0397653691470623,-0.5039209723472595,-0.33591121435165405,-0.7957558035850525,-0.02323967218399048,0.012623250484466553,-0.01123577356338501,0.7885801352441366,8.090300077709594e-05,-0.3195654665874747,-0.5253753344082875,0.3425725025168921,-0.5645176116062957,-1.0751540911854074
1773064627544114432,2.3821284770965576,0.1615385115146637,-0.12812677025794983,0.04118923097848892,-0.5050619840621948,-0.3368537127971649,-0.7946332693099976,-0.011615872383117676,0.011734694242477417,-0.02877676486968994,0.7884782050537495,0.0002492320510786639,-0.3204423690085821,-0.5249940541633032,0.343573304018404,-0.5661792814735215,-1.0739935054602252
1773064627554152192,2.3921663761138916,0.178310826420784,-0.14022336900234222,0.061182647943496704,-0.5063140392303467,-0.33797428011894226,-0.7933595776557922,-0.0033295154571533203,0.01775336265563965,-0.050726115703582764,0.7883898559543161,0.0004927714560268345,-0.32143424152645306,-0.524519883538084,0.344763702355973,-0.5680280021897782,-1.072559014500272
1773064627564190464,2.4022045135498047,0.14856132864952087,-0.13491316139698029,0.08422470837831497,-0.5076614022254944,-0.33894577622413635,-0.7920830845832825,0.00604403018951416,0.023485571146011353,-0.05427616834640503,0.7883573605775477,0.0006785714856914936,-0.32242517296422923,-0.5239600991187929,0.34579610494699625,-0.5699651660602629,-1.0709364131223273
1773064627574228224,2.4122424125671387,0.06244293972849846,-0.15123142302036285,0.07710741460323334,-0.5090404748916626,-0.3393429219722748,-0.7910272479057312,0.011039435863494873,0.017977625131607056,-0.04730582237243652,0.7883492619289301,0.0005886283346025204,-0.3232429879771722,-0.5234681821666863,0.34621828921214626,-0.5718051395265026,-1.0696042740039704
1773064627584266240,2.4222803115844727,0.04394369199872017,-0.11603520810604095,0.050235189497470856,-0.5102583765983582,-0.3393763601779938,-0.7902278900146484,0.0003401637077331543,-0.006280988454818726,-0.03345680236816406,0.7883003287198334,0.00032601086664738206,-0.32386100959141995,-0.5231601694944354,0.34625381995589816,-0.5733537786515498,-1.068815000086449
1773064627594304256,2.4323184490203857,-0.005584712140262127,-0.1252683848142624,0.09518881142139435,-0.511467695236206,-0.33926793932914734,-0.7894923090934753,0.019966840744018555,-0.03196313977241516,-0.11639147996902466,0.7882713723998653,7.372071222764825e-06,-0.3244284929399625,-0.5228522137122109,0.3461385654822322,-0.5748579289484853,-1.0680561534049848
1773064627604342272,2.4423563480377197,-0.07750945538282394,-0.14403502643108368,0.15598544478416443,-0.513015866279602,-0.3382592499256134,-0.7889204025268555,0.06404131650924683,-0.017072170972824097,-0.05580615997314453,0.7883840978493636,-0.0007410704775584229,-0.3248680522783036,-0.5224086343299393,0.34506649647090865,-0.576569126815707,-1.0671449306422593
1773064627614380288,2.452394485473633,-0.10984449088573456,-0.16023902595043182,0.14600178599357605,-0.5147075057029724,-0.33667516708374023,-0.7884960174560547,0.04900932312011719,0.009282588958740234,-0.010667800903320312,0.7885509613229067,-0.0017712444580455194,-0.32519047349519237,-0.5219534945251891,0.3433836990598149,-0.5783209014651176,-1.0663306156966115
1773064627624418304,2.462432384490967,-0.051071859896183014,-0.19462163746356964,0.09929700940847397,-0.5165061950683594,-0.33536064624786377,-0.7878798246383667,0.019115447998046875,0.02595818042755127,-0.0008774995803833008,0.7885826091337618,-0.002771675201000437,-0.32565687523789666,-0.5216104291813115,0.3419880286670481,-0.580277157835544,-1.0657482044055988
1773064627634456320,2.47247052192688,-0.016838520765304565,-0.2284160852432251,0.10626916587352753,-0.5184997916221619,-0.3346679210662842,-0.7868642210960388,0.01093149185180664,0.021054059267044067,-0.008591651916503906,0.7884876286713051,-0.0035790622743465945,-0.3264277448599852,-0.5212669790865205,0.34125280327237845,-0.5826373384398551,-1.0650363187105911
1773064627644494336,2.482508420944214,-0.10213100165128708,-0.25722575187683105,0.14889664947986603,-0.5208417773246765,-0.3335612118244171,-0.7857866883277893,0.03520035743713379,0.006763756275177002,0.021687626838684082,0.7884224613027454,-0.00464365757462745,-0.3272385890759618,-0.5208486357697825,0.340078627459342,-0.5853406876169773,-1.0642305909518461
1773064627654532096,2.492546319961548,-0.19445054233074188,-0.27415093779563904,0.14323930442333221,-0.5234339237213135,-0.3316110074520111,-0.7848892211914062,0.04708504676818848,-0.02364411950111389,0.06586456298828125,0.7883649965236652,-0.006173677419792406,-0.32789829199964016,-0.5205047192694122,0.33801068180232124,-0.5881564755712737,-1.063806890162463
1773064627664570368,2.502584457397461,-0.22011658549308777,-0.3020099997520447,0.132817804813385,-0.5261499285697937,-0.3292519748210907,-0.7840659022331238,0.0422174334526062,-0.0430777370929718,0.049233198165893555,0.7882376561654816,-0.00797511872858946,-0.32848657843290807,-0.5203021478378488,0.33551126074213267,-0.591033264994843,-1.0638436163729084
1773064627674608128,2.512622356414795,-0.26863566040992737,-0.336914986371994,0.18662378191947937,-0.5291620492935181,-0.3265337347984314,-0.7831750512123108,0.05020397901535034,-0.021992206573486328,-0.010632872581481934,0.7881077445140817,-0.010014695107713379,-0.32910814853658277,-0.5200707814963836,0.3326339677491983,-0.5942046925943612,-1.0639041362143304
1773064627684646400,2.522660493850708,-0.2812593877315521,-0.35687270760536194,0.21083272993564606,-0.5325537919998169,-0.3232116103172302,-0.7822535634040833,0.05052870512008667,0.0098114013671875,-0.009677529335021973,0.7880528172643911,-0.012381070074476887,-0.3297270435642214,-0.5197109300083916,0.3291213069932673,-0.5977196348796091,-1.0637973511885768
1773064627694684160,2.532698392868042,-0.20112672448158264,-0.38626816868782043,0.18983955681324005,-0.5360977053642273,-0.3202933967113495,-0.7810322642326355,0.025538623332977295,0.004878968000411987,-0.050922691822052,0.7879450736376739,-0.014606581326568946,-0.3305609023235897,-0.5192867066764855,0.3260391843255527,-0.6015375084117999,-1.0634593700870159
1773064627704722432,2.542736530303955,-0.18084973096847534,-0.4061157703399658,0.20452862977981567,-0.5398505330085754,-0.3177514374256134,-0.7794840335845947,0.02704840898513794,0.0035424530506134033,-0.06260275840759277,0.7877839691758424,-0.016716726256911597,-0.3316301097920823,-0.5187854803285753,0.3233570719699144,-0.6057248183924272,-1.0628647359001362
1773064627714760192,2.552774429321289,-0.16738638281822205,-0.41998472809791565,0.23240552842617035,-0.5437890291213989,-0.3152010440826416,-0.7777800559997559,0.034786343574523926,0.0027925968170166016,-0.05531930923461914,0.78765159774476,-0.018845892424851206,-0.3327984556683637,-0.518165014470277,0.3206684836445615,-0.6101588243645566,-1.0619944368645566
1773064627724798208,2.562812328338623,-0.1913217306137085,-0.4311191141605377,0.24447603523731232,-0.5478519797325134,-0.31252944469451904,-0.7760048508644104,0.030991077423095703,-0.0007945001125335693,-0.032390475273132324,0.7875434070282195,-0.021040402228156386,-0.33399831533718566,-0.5174725072516984,0.31785468697713976,-0.6147350840965016,-1.0609947348271456
1773064627734836224,2.572850465774536,-0.2318076491355896,-0.4323175549507141,0.2443133145570755,-0.5519620776176453,-0.30955174565315247,-0.7742839455604553,0.023092448711395264,-0.010943889617919922,-0.03563731908798218,0.7874265563209969,-0.023398141319618447,-0.33512768232047424,-0.5168184915355941,0.314721571918098,-0.6193099483152872,-1.060189985210554
1773064627744874240,2.58288836479187,-0.28071582317352295,-0.4397183358669281,0.2514480650424957,-0.5561192631721497,-0.30618298053741455,-0.7726470232009888,0.027570068836212158,-0.02177417278289795,-0.0067871809005737305,0.7873015142627248,-0.025961091718099773,-0.33615847075366306,-0.5162169289591413,0.3111808359226593,-0.6238639894410558,-1.0596395398441232
1773064627754911232,2.5929253101348877,-0.2830900251865387,-0.4436558187007904,0.23544113337993622,-0.5602421164512634,-0.30263277888298035,-0.7710656523704529,0.027603626251220703,-0.029230624437332153,0.01259702444076538,0.787154730728823,-0.02861772519491858,-0.33711749015458,-0.5156747158151249,0.30745375579033046,-0.6283441178684511,-1.0593099084777784
1773064627764949248,2.602963447570801,-0.2585757374763489,-0.47417616844177246,0.201701819896698,-0.5644404888153076,-0.2992876172065735,-0.7693074345588684,0.028246641159057617,-0.039747416973114014,-0.012949645519256592,0.7868946371947535,-0.031256647516638716,-0.33818531985482464,-0.5152190012746304,0.30394597375758553,-0.6329869034406747,-1.0591814717388337
1773064627774987264,2.6130013465881348,-0.19542020559310913,-0.4914448857307434,0.15965503454208374,-0.5687047243118286,-0.29650261998176575,-0.7672425508499146,0.04389393329620361,-0.05811163783073425,-0.01765429973602295,0.7865026031728476,-0.03371235086332227,-0.3394734332298565,-0.5148154194591871,0.30102849859277536,-0.6378659638978726,-1.0590771877189369
1773064627785025280,2.623039484024048,-0.15148501098155975,-0.5268067717552185,0.13412103056907654,-0.5730500817298889,-0.29435935616493225,-0.7648308277130127,0.06575638055801392,-0.07089027762413025,-0.033798933029174805,0.7859750861800785,-0.035950396948887006,-0.34101636730304347,-0.5144497826357304,0.2987851092428548,-0.6430214375428447,-1.0589375975647182
1773064627795063296,2.633077383041382,-0.11025635153055191,-0.5623738169670105,0.1671474277973175,-0.5776230692863464,-0.2925284802913666,-0.762088418006897,0.09384316205978394,-0.07818379998207092,-0.07067525386810303,0.7853933552950007,-0.03810901954212572,-0.34278782169507305,-0.5140054770201798,0.2968699303751143,-0.6485681595446294,-1.0585550891683166
1773064627805101312,2.643115520477295,-0.12497395277023315,-0.594846248626709,0.2775764763355255,-0.5826883316040039,-0.2904105484485626,-0.7590363025665283,0.13107401132583618,-0.06254050135612488,-0.08031916618347168,0.784931244756415,-0.04041909116204282,-0.34474361508065265,-0.513226286506913,0.2946558564779572,-0.6547134779195337,-1.0574496894753134
1773064627815139328,2.653153419494629,-0.19207122921943665,-0.6158125400543213,0.35041794180870056,-0.5882195234298706,-0.28731733560562134,-0.755940854549408,0.1365441083908081,-0.03594014048576355,-0.03408294916152954,0.7846662404111575,-0.04316329472921071,-0.3466503862920935,-0.5121224426931729,0.2914248882318807,-0.6612619486919701,-1.055835062869126
1773064627825177088,2.663191318511963,-0.18517377972602844,-0.6619527339935303,0.38645273447036743,-0.5940772294998169,-0.28373122215270996,-0.7527077198028564,0.1113806962966919,-0.05484604835510254,-0.07614970207214355,0.7844468394409403,-0.046173896960470556,-0.34858875293198965,-0.5108787362002073,0.2876830204044266,-0.6681537818661617,-1.0540601260037352
1773064627835215360,2.673229455947876,-0.258017361164093,-0.7146713733673096,0.5097824335098267,-0.6005160808563232,-0.2794359624385834,-0.7491968870162964,0.13934975862503052,-0.07714667916297913,-0.07615101337432861,0.7843243701155,-0.04956690111409204,-0.3506346746993337,-0.5093464195389713,0.28320663373359733,-0.6756831696838693,-1.0518376034578127
1773064627845253120,2.68326735496521,-0.29142600297927856,-0.7741394639015198,0.5898827910423279,-0.6076217293739319,-0.2739703953266144,-0.7454770803451538,0.17770534753799438,-0.10252496600151062,-0.02211630344390869,0.7843615253115936,-0.05353945066482582,-0.3526967225948437,-0.5074600113000356,0.27751897229753836,-0.6838672667591742,-1.0491575267806044
1773064627855291392,2.693305492401123,-0.2977321147918701,-0.866776704788208,0.5998622179031372,-0.6153709888458252,-0.26812201738357544,-0.7412348985671997,0.19312971830368042,-0.15570613741874695,-0.05380904674530029,0.784327463211014,-0.05784657817373385,-0.35501592971852297,-0.5054186257720423,0.2714431317366306,-0.6928844291619681,-1.0463354748922744
1773064627865329152,2.703343391418457,-0.25090673565864563,-0.945002019405365,0.6189398169517517,-0.6236984133720398,-0.26230478286743164,-0.7363399267196655,0.2289535403251648,-0.18889757990837097,-0.04214823246002197,0.7841601927581122,-0.062308412330483925,-0.35769779259830015,-0.5032521119443543,0.2654098464520075,-0.7027644766853705,-1.0433432866541223
1773064627875367424,2.71338152885437,-0.2761676013469696,-1.0331246852874756,0.6447546482086182,-0.6325922012329102,-0.25646284222602844,-0.7307898998260498,0.26220041513442993,-0.18080824613571167,-0.01690596342086792,0.783890681748773,-0.06692468514416108,-0.360730010102954,-0.5009093980882912,0.25936084903761475,-0.7134972474956601,-1.0400809845007808
1773064627885405184,2.723419427871704,-0.34492042660713196,-1.1260305643081665,0.6672655940055847,-0.6421809196472168,-0.2499995231628418,-0.7246405482292175,0.2792353630065918,-0.1637120246887207,0.035568833351135254,0.7834537584381804,-0.07205900809811287,-0.36398796490549806,-0.4985182938111806,0.2526797563198243,-0.7251417550220111,-1.0370894391902048
1773064627895443200,2.733457326889038,-0.4071497321128845,-1.1693103313446045,0.7200782299041748,-0.6521555781364441,-0.242852583527565,-0.7181334495544434,0.28728747367858887,-0.1880403459072113,-0.011999547481536865,0.7829247536486181,-0.07763431683039146,-0.36729575884915466,-0.49608011412187014,0.24530539357053055,-0.7372864182482332,-1.0343855071046766
1773064627905481216,2.743495464324951,-0.49560660123825073,-1.2582602500915527,0.8953992128372192,-0.6627660989761353,-0.23436062037944794,-0.7112075686454773,0.35438603162765503,-0.21176058053970337,-0.07048499584197998,0.7824819009230477,-0.08388624826024305,-0.3706201877709881,-0.49328069596815494,0.2365608253674504,-0.7501563092062558,-1.0314470105055022
1773064627915519232,2.753533363342285,-0.6364225745201111,-1.3264507055282593,1.1387664079666138,-0.6743016839027405,-0.223570317029953,-0.7037993669509888,0.4343114495277405,-0.1978011578321457,-0.04580390453338623,0.7823218924416819,-0.09117684550062069,-0.37388112063563356,-0.48976743781353,0.22547597284196957,-0.76399682597927,-1.027794572464198
1773064627925557248,2.7635715007781982,-0.8033487796783447,-1.3536001443862915,1.375592827796936,-0.6864360570907593,-0.20984499156475067,-0.6962546706199646,0.4502147436141968,-0.14858396351337433,-0.058856964111328125,0.7825359020129476,-0.09968555548579534,-0.37674320312694126,-0.4855562713354247,0.211416425055368,-0.7782971721239403,-1.0237372880328346
1773064627935595264,2.7736093997955322,-0.8241291642189026,-1.4295470714569092,1.531905174255371,-0.6990364193916321,-0.19400127232074738,-0.688267171382904,0.4258735775947571,-0.11073201894760132,-0.10450327396392822,0.7830096600524062,-0.10904122370085914,-0.37944227074160986,-0.4806553748192655,0.19523927615519265,-0.7931607481665311,-1.0191167315999436
1773064627945632256,2.78364634513855,-0.8657128810882568,-1.4886447191238403,1.6042472124099731,-0.7119901776313782,-0.17711177468299866,-0.679486095905304,0.38188159465789795,-0.09159550070762634,-0.08314812183380127,0.7835042673286131,-0.11884984004474705,-0.3822717043015921,-0.4752516106004972,0.17805105016119752,-0.808753321999964,-1.0141115324828454
1773064627955670272,2.793684482574463,-0.9428377747535706,-1.521109700202942,1.627193808555603,-0.7249112725257874,-0.15932616591453552,-0.6701632738113403,0.33744484186172485,-0.10057678818702698,-0.03541839122772217,0.7838784435385948,-0.1290874109070905,-0.38503869081852327,-0.4696980545236876,0.16000806693061861,-0.8246217999340446,-1.0095530350194086
1773064627965708288,2.803722381591797,-1.0230079889297485,-1.5638959407806396,1.6624672412872314,-0.7376905679702759,-0.14074581861495972,-0.6603054404258728,0.3247114419937134,-0.15577822923660278,-0.06886625289916992,0.7840722073941833,-0.13973520160809524,-0.3877129721816982,-0.4640943510560696,0.14121469769597764,-0.8406960494426784,-1.0056829071274667
1773064627975746048,2.813760280609131,-1.1831226348876953,-1.5507893562316895,1.7276257276535034,-0.7501667141914368,-0.12091676890850067,-0.6500992774963379,0.33743172883987427,-0.22286376357078552,-0.07022237777709961,0.7841475737045874,-0.15095200550370275,-0.3900818483635992,-0.45843464009075796,0.12121337273425895,-0.8567400447195244,-1.002674116949165
1773064627985784320,2.823798418045044,-1.3732283115386963,-1.5379958152770996,1.8029875755310059,-0.7620882987976074,-0.09924289584159851,-0.6398221254348755,0.3340487480163574,-0.2394717037677765,-0.10184657573699951,0.7841521937313818,-0.16297038075882792,-0.39182853243902577,-0.45278741556370333,0.09940652994502372,-0.8723920113290818,-1.0009390891913947
1773064627995822080,2.833836317062378,-1.5164676904678345,-1.5335803031921387,1.8963584899902344,-0.7734917998313904,-0.07578808069229126,-0.6292587518692017,0.3259209990501404,-0.18644946813583374,-0.16503751277923584,0.7840692346594385,-0.17577070599190409,-0.39303344650150884,-0.4470623126463804,0.07586081774569159,-0.8878596868919598,-1.0003199120215263
1773064628005860352,2.843874454498291,-1.6596086025238037,-1.5668718814849854,1.9957770109176636,-0.7844164967536926,-0.05060429498553276,-0.6181665658950806,0.2996753454208374,-0.06855157017707825,-0.10079699754714966,0.7838935235717736,-0.18932536087543966,-0.3937926150821738,-0.44112831022282784,0.05062591605497872,-0.9033789527734085,-1.0005789158440583
1773064628015898112,2.853912353515625,-1.608906865119934,-1.5931406021118164,2.061737298965454,-0.7948788404464722,-0.024382134899497032,-0.6062780618667603,0.25561803579330444,0.008772419765591621,-0.10383540391921997,0.783618198100404,-0.20328663460201538,-0.3943799096536578,-0.4348349642796026,0.02438455170731585,-0.9191975649722721,-1.0011353858785714
1773064628025936384,2.863950490951538,-1.521583914756775,-1.6242552995681763,2.05064058303833,-0.8048115968704224,0.0015664732782170177,-0.5935282111167908,0.21440333127975464,0.005132152698934078,-0.16538286209106445,0.7832446665776964,-0.21699500616643003,-0.39515700139341553,-0.42812589425053516,-0.0015664739665155571,-0.9353596910707768,-1.0012578149146085
1773064628035974144,2.873988389968872,-1.4677811861038208,-1.6229029893875122,2.0218441486358643,-0.8140614628791809,0.026909755542874336,-0.5801550149917603,0.1859181523323059,-0.04094785824418068,-0.18319642543792725,0.7826957712331684,-0.23035614979597704,-0.3960537074557222,-0.4212658630597431,-0.026913003641271607,-0.9516193082916448,-1.0013836945543222
1773064628046012160,2.884026288986206,-1.5222735404968262,-1.6263482570648193,2.0262856483459473,-0.8226163983345032,0.05208103358745575,-0.5662065744400024,0.16725140810012817,-0.09733860939741135,-0.20625436305999756,0.7819420759443725,-0.2436202020510511,-0.3969205331484298,-0.41433072033006,-0.05210460541893877,-0.9679661886070842,-1.0019154006795938
1773064628056050176,2.894064426422119,-1.7484803199768066,-1.5874882936477661,2.0312724113464355,-0.8303171992301941,0.07803410291671753,-0.5518007874488831,0.1339823603630066,-0.11743230372667313,-0.18149089813232422,0.7808782813510357,-0.2573552465317783,-0.39732591939480283,-0.4075899945306551,-0.07811352019017503,-0.9842492781570353,-1.004020824870418
1773064628066088192,2.904102325439453,-2.0068249702453613,-1.5452457666397095,2.0037102699279785,-0.8370128273963928,0.10518604516983032,-0.5369780659675598,0.08612781763076782,-0.09929616004228592,-0.15604561567306519,0.7793586755586156,-0.27191042804721244,-0.3969580359377382,-0.401359125387197,-0.1053809789119726,-1.000390667026089,-1.0087635258032484
1773064628076126464,2.914140462875366,-2.245150327682495,-1.4599061012268066,1.957613468170166,-0.8426538109779358,0.1331823170185089,-0.521725058555603,0.03346496820449829,-0.04198053479194641,-0.09848368167877197,0.7773382842218467,-0.2871720800053284,-0.39581521025058813,-0.3957369244512762,-0.13357921307804196,-1.0164183208661322,-1.0162712376586063
1773064628086164224,2.9241783618927,-2.4920661449432373,-1.3537408113479614,1.9000568389892578,-0.8470439910888672,0.16180521249771118,-0.5062960386276245,-0.020662307739257812,0.07609453797340393,0.007303118705749512,0.7748485245342275,-0.3030183233077229,-0.3937408909867514,-0.39084254430208043,-0.16251970340896713,-1.0320542248473281,-1.0266763066146283
1773064628096202496,2.9342164993286133,-2.4655463695526123,-1.3070696592330933,1.7968977689743042,-0.8504056930541992,0.1900569349527359,-0.49060025811195374,-0.06144434213638306,0.1594609022140503,-0.04794353246688843,0.771942575944082,-0.31894513563106186,-0.3911187481611348,-0.38652932178406096,-0.1912201333738621,-1.0475342693219662,-1.0391202051385684
1773064628106240256,2.9442543983459473,-2.2914936542510986,-1.3270925283432007,1.7017276287078857,-0.8532158136367798,0.2165321260690689,-0.4744855463504791,-0.06415778398513794,0.1629844754934311,-0.16406425833702087,0.7688406973873242,-0.3341053357474934,-0.3887555210783263,-0.38226521987554984,-0.21826091897024655,-1.0632709458499656,-1.051502054315048
1773064628116278272,2.9542922973632812,-2.0565972328186035,-1.299513339996338,1.6017377376556396,-0.8555618524551392,0.2408674657344818,-0.45825421810150146,-0.040037572383880615,0.1378861665725708,-0.11907732486724854,0.7657191682354814,-0.3481873026384223,-0.38683135158917786,-0.37789067424680306,-0.2432595296272592,-1.0790620603989405,-1.063009571213261
1773064628126316288,2.9643304347991943,-2.0416646003723145,-1.352039098739624,1.4971837997436523,-0.8575876355171204,0.2633524537086487,-0.44180208444595337,-0.02899378538131714,0.09872335195541382,-0.10818570852279663,0.7624823277701775,-0.361445589134094,-0.38529994332246736,-0.3735262798109045,-0.26649567506515454,-1.0950877430337995,-1.0741375850903838
1773064628136354304,2.9743683338165283,-2.144526481628418,-1.4035518169403076,1.3534910678863525,-0.8596370220184326,0.284792423248291,-0.4241667687892914,-0.03161358833312988,0.0730261504650116,-0.07633674144744873,0.758597095048182,-0.3747986724525013,-0.3839825141011836,-0.36961310131242725,-0.28878988687574,-1.1124222004514368,-1.087067168311095
1773064628146392320,2.9844064712524414,-1.999874472618103,-1.4510672092437744,1.2731318473815918,-0.8617367148399353,0.3047109842300415,-0.405661404132843,-0.0365024209022522,0.036597609519958496,-0.05436056852340698,0.7542756347119415,-0.38783495054939243,-0.3830839907864498,-0.3659222577693233,-0.3096349737024973,-1.1308224061704073,-1.1007720016859637
1773064628156430336,2.9944443702697754,-1.9882659912109375,-1.4268661737442017,1.2651548385620117,-0.8634690642356873,0.3236052095890045,-0.38691195845603943,-0.036509573459625244,0.09306654334068298,0.02045685052871704,0.7499069316256481,-0.4003938968731712,-0.3823986828917826,-0.3620712093010957,-0.32953724743277396,-1.149531794276209,-1.11419259003084
1773064628166468096,3.0044822692871094,-1.9447238445281982,-1.3904719352722168,1.1769112348556519,-0.8646858930587769,0.3417617380619049,-0.3681268095970154,-0.06762611865997314,0.1640518307685852,0.05185788869857788,0.7454052491435363,-0.41270660906234796,-0.38158858515071475,-0.3583775951635391,-0.34879088402425673,-1.168303514794467,-1.1282246855560747
1773064628176506368,3.0145204067230225,-1.7458064556121826,-1.3737164735794067,1.0082767009735107,-0.8658435940742493,0.35790950059890747,-0.34959352016448975,-0.10694992542266846,0.12805241346359253,-0.003204911947250366,0.7408255450778662,-0.4241729802799679,-0.38115681744786467,-0.35492851607813447,-0.36602813547606744,-1.1870522625240028,-1.1420326843701711
1773064628186544128,3.0245583057403564,-1.5994718074798584,-1.3026777505874634,0.9500904083251953,-0.866878092288971,0.37202709913253784,-0.3318406939506531,-0.09477657079696655,0.06214648485183716,-0.015067875385284424,0.7363905491754038,-0.4345749027859469,-0.38108307735998337,-0.3516380209129413,-0.38119192513160355,-1.2052051403737702,-1.1549238063132918
1773064628196582400,3.0345964431762695,-1.6301189661026,-1.242565393447876,1.0434669256210327,-0.8672388792037964,0.3858259618282318,-0.31469815969467163,-0.04238325357437134,0.02277389168739319,0.0022897422313690186,0.7321729070076329,-0.44458840653467513,-0.3807782463623473,-0.34824102641952637,-0.39610293239992167,-1.2226991105114113,-1.1674135901396403
1773064628206620160,3.0446343421936035,-1.840722918510437,-1.1747863292694092,1.1212406158447266,-0.866664469242096,0.40059852600097656,-0.29734426736831665,-0.011646687984466553,0.00443074107170105,0.05353933572769165,0.7278500520932754,-0.45510353424225736,-0.37974813048762995,-0.3448282161199478,-0.4121699795772561,-1.2402902648274758,-1.1812688830148104
1773064628216658432,3.0546724796295166,-2.025238275527954,-1.1507110595703125,1.1066714525222778,-0.8654295206069946,0.4159277379512787,-0.2793491780757904,-0.01770341396331787,-0.005527377128601074,0.08658492565155029,0.7230946354408182,-0.4662804671651861,-0.37803165495930546,-0.3417730413245754,-0.42896274818536323,-1.2585675281371997,-1.1976155403322817
1773064628226696192,3.0647103786468506,-2.10752010345459,-1.1871929168701172,1.0175960063934326,-0.8640679121017456,0.43079909682273865,-0.2603822946548462,-0.030265092849731445,0.003878086805343628,0.0894380509853363,0.7177701941678543,-0.4778159784104771,-0.3761658489521171,-0.3391124210395662,-0.4453780834704596,-1.278106322869173,-1.2161424523849194
1773064628236734208,3.0747482776641846,-1.884223222732544,-1.2771672010421753,0.9428368806838989,-0.8628624677658081,0.4442972242832184,-0.2409740835428238,-0.036093831062316895,0.028557389974594116,0.0795971155166626,0.7122624454059471,-0.4889132482711041,-0.3748023413919376,-0.3364064912550945,-0.46038963921228443,-1.2984620080229101,-1.2345533191657476
1773064628246772224,3.0847864151000977,-1.6389402151107788,-1.3905608654022217,0.902192234992981,-0.86179119348526,0.45636671781539917,-0.22146159410476685,-0.030420660972595215,0.04450300335884094,0.10265667736530304,0.7069369340040313,-0.49916017521522765,-0.3743104670183035,-0.33312296254892426,-0.47390759234792057,-1.319260772418737,-1.25098848506361
1773064628256810240,3.0948243141174316,-1.5180788040161133,-1.4076602458953857,0.8615010380744934,-0.8606843948364258,0.4673284888267517,-0.2020551860332489,-0.03358733654022217,0.004106998443603516,0.1967146098613739,0.7018164176348797,-0.5086772286685899,-0.37445945675028575,-0.32936484673739624,-0.4862665808537195,-1.3402108066420122,-1.2657390976256013
1773064628266848256,3.1048624515533447,-2.4975950717926025,-1.312346339225769,0.6286881566047668,-0.8597358465194702,0.4778914153575897,-0.18020601570606232,-0.045980095863342285,-0.14360186457633972,0.3461300730705261,0.6950864722611505,-0.5196951731480478,-0.37391699584169946,-0.32704416782963475,-0.498252718336351,-1.3641812718614539,-1.2870487466742409
1773064628276886272,3.1149003505706787,-2.272618293762207,-1.1306772232055664,0.5336601734161377,-0.8591855764389038,0.48682165145874023,-0.15749472379684448,-0.02913522720336914,-0.4219260513782501,0.387154757976532,0.6870038906052472,-0.5314901307911034,-0.372519635676011,-0.32676120508663037,-0.508447410631671,-1.3895020396787328,-1.3144307857583404
1773064628286924288,3.124938488006592,-1.8860188722610474,-1.002396583557129,0.5746021270751953,-0.8579388856887817,0.4947366416454315,-0.1384800374507904,0.011732161045074463,-0.10980316996574402,0.18797951936721802,0.6804595513072075,-0.5412970149457061,-0.37115700758215914,-0.32590628575982106,-0.5175317643950613,-1.4107664229664678,-1.3367254072712884
1773064628296962304,3.134976387023926,-1.7903733253479004,-1.1361136436462402,0.5152647495269775,-0.8566351532936096,0.5017554759979248,-0.12007423490285873,0.02663320302963257,0.28178340196609497,0.18850992619991302,0.674319158170059,-0.5502865194147195,-0.37033448090262966,-0.32454717564368735,-0.5256270013622119,-1.431534012365746,-1.3567899730720567
1773064628307000064,3.1450142860412598,-1.6749234199523926,-1.2223862409591675,0.5508567690849304,-0.855292022228241,0.5081980228424072,-0.10104713588953018,0.06409317255020142,0.30115872621536255,0.14696083962917328,0.6681271669221659,-0.5590461924874969,-0.3700591648222883,-0.32269145126571075,-0.5330912101830021,-1.4531980089568093,-1.376038231948802
1773064628317038336,3.155052423477173,-1.5240483283996582,-1.176676630973816,0.6638299226760864,-0.8532925248146057,0.5148630142211914,-0.08251193910837173,0.09900462627410889,0.057356834411621094,0.09833531826734543,0.6623467374671568,-0.567453403283193,-0.3697846218150733,-0.320238831675991,-0.5408478675634242,-1.4743977386804201,-1.3938659354823755
1773064628327076096,3.165090322494507,-1.5161019563674927,-1.1119505167007446,0.764992356300354,-0.8504037857055664,0.5221111178398132,-0.06491292268037796,0.10044944286346436,-0.09530752897262573,0.09678851813077927,0.6570526379393312,-0.5756026556090582,-0.36908687619626396,-0.3173932142154098,-0.5493244029352505,-1.4946121775902252,-1.410787622874465
1773064628337114368,3.17512845993042,-1.7028512954711914,-1.1028141975402832,0.7770724296569824,-0.8469230532646179,0.5296356678009033,-0.04698418825864792,0.07948225736618042,-0.07471013069152832,0.13966608047485352,0.6515569501431826,-0.5840772831328246,-0.36791525380880674,-0.31458814762292947,-0.558170987529102,-1.5153767996946321,-1.4291149701586252
1773064628347152128,3.185166358947754,-1.7305710315704346,-1.1162528991699219,0.6752688884735107,-0.8434234857559204,0.5364981889724731,-0.028399009257555008,0.02881777286529541,-0.06573408842086792,0.10344171524047852,0.645577832549548,-0.5927796784870377,-0.3666234413837336,-0.31213583763308717,-0.5662820850498124,-1.5371379274027017,-1.4491948550342664
1773064628357190400,3.195204496383667,-1.8256547451019287,-1.1588085889816284,0.5651589035987854,-0.8402941823005676,0.5420531630516052,-0.009183558635413647,0.00045037269592285156,-0.15029895305633545,0.04772728681564331,0.6391505533341372,-0.60139249980853,-0.3656983481330461,-0.3099652524280426,-0.5728783985530369,-1.5598677811377155,-1.4700754204818196
1773064628367228160,3.205242395401001,-2.0429017543792725,-1.099737286567688,0.5165154337882996,-0.8373479247093201,0.5465614795684814,0.010915983468294144,0.022055447101593018,-0.25598835945129395,0.13794875144958496,0.6320307517886022,-0.6103011658454075,-0.36467859666012437,-0.30834920839710506,-0.578252635947332,-1.5838319658365143,-1.4932107182744034
1773064628377266176,3.215280294418335,-2.21616268157959,-1.0124719142913818,0.5369812846183777,-0.8342488408088684,0.5504847168922424,0.031549952924251556,0.054952025413513184,-0.3213435411453247,0.16435766220092773,0.6243174255199705,-0.61961722364811,-0.36311082677244794,-0.30733170524201986,-0.5829447381070019,-1.6085967069317397,-1.5189749868534168
1773064628387303424,3.2253174781799316,-2.304372549057007,-0.9356242418289185,0.5710960626602173,-0.8307482600212097,0.5541964173316956,0.05218812823295593,0.09037661552429199,-0.30009180307388306,0.13828730583190918,0.6163201008939132,-0.6291756197592713,-0.3608768535537403,-0.3066846177989924,-0.5873972416721022,-1.6335345093751048,-1.5465682110678776
1773064628397341184,3.2353553771972656,-2.4072885513305664,-0.9338982105255127,0.4946889281272888,-0.8271562457084656,0.5572074055671692,0.07302329689264297,0.08676934242248535,-0.25317609310150146,0.13773107528686523,0.607999508173688,-0.6387936967725292,-0.3584051659041489,-0.30630851188465597,-0.5910189258382623,-1.6588503982796576,-1.5753299454147036
1773064628407379200,3.2453932762145996,-2.6247568130493164,-0.934658408164978,0.3481055200099945,-0.8240156769752502,0.5585692524909973,0.09486124664545059,0.07332903146743774,-0.23349601030349731,0.21193194389343262,0.5988511017993317,-0.6485929948930642,-0.3560305459985301,-0.30650741503730644,-0.5926598798560172,-1.6854124548380638,-1.6060547695019145
1773064628417417216,3.2554314136505127,-2.8788676261901855,-0.9134985208511353,0.2566163241863251,-0.8213750720024109,0.5580754280090332,0.1178763136267662,0.07569330930709839,-0.2261815071105957,0.2661263942718506,0.5886548053096414,-0.65872253034271,-0.3535856111750029,-0.3074855779786401,-0.5920646212271254,-1.7133340450249366,-1.639452533464109
1773064628427455232,3.2654693126678467,-3.1283156871795654,-0.8640536069869995,0.24027982354164124,-0.8188445568084717,0.5561619997024536,0.14204755425453186,0.08669734001159668,-0.20897871255874634,0.294277548789978,0.5774281197697916,-0.6693400131725791,-0.35072456954917336,-0.3091165151636109,-0.5897604765095809,-1.7425601402763091,-1.6758394461018518
1773064628437493248,3.2755074501037598,-3.2317521572113037,-0.770910382270813,0.2679298520088196,-0.8161787390708923,0.5532886385917664,0.166505366563797,0.07302993535995483,-0.15306591987609863,0.2576127052307129,0.5655944450751256,-0.6801940794617182,-0.3472588324314358,-0.3112078120954817,-0.5863071090291417,-1.77204082744118,-1.7141803465135448
1773064628447531264,3.2855453491210938,-3.395857572555542,-0.7329484820365906,0.32099372148513794,-0.8132092952728271,0.5497647523880005,0.1909172236919403,0.05185675621032715,-0.055792033672332764,0.2319800853729248,0.5533878399165659,-0.6911549116174861,-0.34316686932986856,-0.31353357277642663,-0.5820826164962546,-1.801390407242775,-1.7537782249009182
1773064628457569280,3.295583486557007,-3.5688159465789795,-0.6958271861076355,0.3657321631908417,-0.8098565936088562,0.5454396605491638,0.2159348428249359,0.0323449969291687,0.05201822519302368,0.3019789457321167,0.5404956556942747,-0.7024607881044274,-0.3384025184601941,-0.31606491159099837,-0.5769136143225687,-1.8313676935672898,-1.7954288597922676
1773064628467607296,3.305621385574341,-3.473677158355713,-0.6440821290016174,0.33523350954055786,-0.8063985109329224,0.5401663780212402,0.2407112568616867,-0.020185470581054688,0.07367944717407227,0.25678637623786926,0.5273322713448395,-0.7136158579490787,-0.3333287252800121,-0.3186928225009176,-0.5706348228274871,-1.8608779030371847,-1.8372907384745265
1773064628477645056,3.315659284591675,-3.3443331718444824,-0.611315906047821,0.28843697905540466,-0.8031316995620728,0.5340688228607178,0.2641018033027649,-0.0725243091583252,0.07571810483932495,0.1798069179058075,0.5145273153245462,-0.724027518033784,-0.3283824774744192,-0.3212641554531648,-0.5634059638256096,-1.8884974140023398,-1.877002979234954
1773064628487683328,3.325697422027588,-3.2136054039001465,-0.5236891508102417,0.1992650181055069,-0.8002345561981201,0.5269795060157776,0.2862115204334259,-0.08576691150665283,0.07375895977020264,0.2175574004650116,0.5019652304401632,-0.733744820873071,-0.32361133039301154,-0.32392139047179475,-0.555042607621192,-1.9142784123359171,-1.9147802454032874
1773064628497721088,3.335735321044922,-2.992048501968384,-0.4552549421787262,0.08972440659999847,-0.7980546951293945,0.5189141631126404,0.3063274323940277,-0.09154784679412842,0.019904136657714844,0.14437133073806763,0.4899470189869723,-0.7424720536844599,-0.31921618133335583,-0.3267844652887003,-0.545580214550213,-1.9372968433547726,-1.9495786869983276
1773064628507759360,3.345773458480835,-2.957683563232422,-0.4323635995388031,0.021963870152831078,-0.7963734269142151,0.5099301338195801,0.3252089321613312,-0.04876524209976196,-0.008022725582122803,0.1361558735370636,0.4782144829419222,-0.7504923225548462,-0.3152233185399794,-0.32970671185985456,-0.535103539233485,-1.9584907860983785,-1.9820647128060762
1773064628517797120,3.355811357498169,-2.947228193283081,-0.3595874011516571,-0.00699800718575716,-0.7950253486633301,0.5000396966934204,0.3433586359024048,0.003918170928955078,-0.05979311466217041,0.16727674007415771,0.46640352927830736,-0.758166716085894,-0.3112274935057473,-0.33284906848027584,-0.5236446198139489,-1.9784832052929655,-2.013792454135827
1773064628527835392,3.365849494934082,-2.772632598876953,-0.4580990672111511,0.20777234435081482,-0.7934167385101318,0.4901968240737915,0.3608289361000061,0.03476482629776001,-0.12712907791137695,0.13015326857566833,0.4547899156531916,-0.7656073403700759,-0.30701769990530675,-0.3357854800656184,-0.5123155547306585,-1.997616994972181,-2.044753204430421
