time,seconds_elapsed,rotationRateX,rotationRateY,rotationRateZ,gravityX,gravityY,gravityZ,accelerationX,accelerationY,accelerationZ,quaternionW,quaternionX,quaternionY,quaternionZ,pitch,roll,yaw
1772661456770371584,0.04521059989929199,0.16578249633312225,0.012475364841520786,0.11259274929761887,-0.10153166949748993,0.18378779292106628,-0.9777082204818726,0.0016934052109718323,0.030918627977371216,-0.014464020729064941,-0.9703998703472093,0.07902807671628548,0.07000324154874273,-0.21720509650627937,-0.18483850564196028,-0.10347569568418416,0.4308030251989495
1772661456780408576,0.05524754524230957,0.2249014675617218,0.0318586491048336,0.13768798112869263,-0.10111217945814133,0.18200621008872986,-0.978084921836853,-0.025627315044403076,0.04705873131752014,-0.017001748085021973,-0.9703528858739287,0.07814785905575301,0.06964525234159602,-0.2178483476217162,-0.18302635306138187,-0.10301179126563866,0.4322235016049108
1772661456790445568,0.06528449058532715,0.24837622046470642,0.03723464161157608,0.1605662703514099,-0.10048409551382065,0.17980127036571503,-0.9785573482513428,-0.03313712775707245,0.06107395887374878,-0.026706933975219727,-0.9702922967831862,0.07707036518822509,0.06914835372946262,-0.21865820323163085,-0.18078442806565717,-0.10232730161623085,0.4340177130985098
1772661456800483584,0.07532262802124023,0.2485976219177246,0.02917271852493286,0.16451387107372284,-0.09987083077430725,0.1775389313697815,-0.9790330529212952,-0.021543338894844055,0.05372324585914612,-0.01750314235687256,-0.9702213918024885,0.07596076304555509,0.06865441762345344,-0.21951554883017632,-0.17848509498133175,-0.10165801821008175,0.4359094654288046
1772661456810520576,0.08535957336425781,0.2440422773361206,0.021568860858678818,0.17305569350719452,-0.09935284405946732,0.1752823144197464,-0.9794923067092896,-0.024685844779014587,0.039439380168914795,0.0035401582717895508,-0.9701342976392487,0.07484134601271493,0.06821021256399416,-0.22042151973482896,-0.1761925109792481,-0.10108726867303112,0.43789258330215164
1772661456820558592,0.0953974723815918,0.22736787796020508,0.014875005930662155,0.18966048955917358,-0.09886300563812256,0.173145592212677,-0.979921817779541,-0.022596947848796844,0.0344807505607605,0.017351627349853516,-0.970025515741511,0.07377503027304406,0.0677963808074506,-0.22138543980209618,-0.17402260393846003,-0.10054844335225689,0.43998822460751275
1772661456830595840,0.10543465614318848,0.21795572340488434,-0.007394879125058651,0.18728096783161163,-0.0984991267323494,0.17115658521652222,-0.9803077578544617,-0.021495983004570007,0.03904849290847778,0.029685258865356445,-0.9698967218774778,0.07276626625016179,0.06746242063255842,-0.22238348874813077,-0.17200345517996588,-0.10014165840292748,0.4421390773084439
1772661456840633600,0.11547255516052246,0.21190667152404785,-0.026838751509785652,0.19354645907878876,-0.09833777695894241,0.16923433542251587,-0.9806576371192932,-0.02403770387172699,0.04158109426498413,0.04228788614273071,-0.9697564570221465,0.07176847983898317,0.06723437352679054,-0.22338607050752016,-0.17005275005210999,-0.09994327723814227,0.44428143213725974
1772661456850670592,0.12550950050354004,0.22400780022144318,-0.0425945445895195,0.20151649415493011,-0.09836466610431671,0.16728293895721436,-0.9809896945953369,-0.027123600244522095,0.04717932641506195,0.05275183916091919,-0.9695986457855713,0.0707324973107365,0.06709738526104968,-0.2244399644508404,-0.1680731242048878,-0.09993681098632039,0.4465166575878229
1772661456860707584,0.13554644584655762,0.2454218715429306,-0.05538157746195793,0.20238909125328064,-0.09850259870290756,0.1651718020439148,-0.9813335537910461,-0.025414034724235535,0.0634811520576477,0.05669671297073364,-0.9694383263165294,0.0696047778608925,0.06699556724925125,-0.22551284711969627,-0.16593220228637182,-0.10004118089876564,0.44878872096474004
1772661456870745600,0.1455845832824707,0.25113701820373535,-0.06941962987184525,0.18676725029945374,-0.09880509227514267,0.16292579472064972,-0.9816785454750061,-0.02959761768579483,0.07532493770122528,0.056614458560943604,-0.9692838307610717,0.06839471155044104,0.0669544459074091,-0.22655719259711524,-0.16365535320934296,-0.10031131996887438,0.45099540327110643
1772661456880782592,0.15562152862548828,0.2610182762145996,-0.09489662945270538,0.18070203065872192,-0.09933057427406311,0.16057519614696503,-0.9820127487182617,-0.03740344196557999,0.07778234779834747,0.06076335906982422,-0.9691329192152488,0.06711064150090068,0.06700586933437551,-0.22756908625023534,-0.16127338014826229,-0.10080711915525342,0.45312414530896067
1772661456890820864,0.16565966606140137,0.26518240571022034,-0.11872207373380661,0.15442249178886414,-0.10012049973011017,0.15814130008220673,-0.9823274612426758,-0.03873448073863983,0.07522661983966827,0.06615924835205078,-0.9689943089127351,0.06576118440707845,0.06716951732022432,-0.22850305042487667,-0.1588079871338175,-0.10157097601771295,0.45507856928517065
1772661456900857600,0.17569661140441895,0.2534801959991455,-0.14616301655769348,0.1520538628101349,-0.10118872672319412,0.15573570132255554,-0.9826022982597351,-0.03284447640180588,0.07789161801338196,0.06544226408004761,-0.9688602575195623,0.06439840581971017,0.06746634397294447,-0.22937053897708015,-0.15637219241534883,-0.10261861346067964,0.45687872129529405
1772661456910895616,0.18573451042175293,0.22226716578006744,-0.1749906688928604,0.1417250633239746,-0.10253152251243591,0.15354396402835846,-0.982807993888855,-0.026054292917251587,0.08131931722164154,0.06454932689666748,-0.9687158983515659,0.06311120653439697,0.06791894434606151,-0.23020316592626716,-0.15415378131482893,-0.10394905239048462,0.4585846270957877
1772661456920932608,0.1957714557647705,0.18893735110759735,-0.21012122929096222,0.12652213871479034,-0.10423754155635834,0.1516544073820114,-0.9829218983650208,-0.021021850407123566,0.08296473324298859,0.06805068254470825,-0.9685599547336706,0.06193355693220849,0.06858047000243579,-0.23098179998138824,-0.15224182519191587,-0.10565376263886771,0.46014832049912674
1772661456930969600,0.2058086395263672,0.1619320958852768,-0.2319362461566925,0.10458356142044067,-0.1062576100230217,0.1500559002161026,-0.9829509258270264,-0.021260082721710205,0.0812520831823349,0.07052111625671387,-0.9684058149052712,0.06086863714883077,0.06942290394020224,-0.23165853166630718,-0.15062481301509176,-0.10768247283965218,0.4614748148968506
1772661456941007616,0.21584653854370117,0.144577294588089,-0.2531910836696625,0.08864280581474304,-0.10851868987083435,0.14865954220294952,-0.9829161167144775,-0.02516356110572815,0.08068005740642548,0.06690049171447754,-0.9682526041701875,0.05987917852517229,0.07040198878314914,-0.23226045445110757,-0.14921260912302511,-0.10995950322738093,0.4626280710559091
1772661456951044608,0.22588348388671875,0.1399039775133133,-0.2694794833660126,0.06733405590057373,-0.1109924167394638,0.1473453789949417,-0.9828377366065979,-0.02166750282049179,0.08567158877849579,0.0634956955909729,-0.9681108801863436,0.05891120298083308,0.07148846111079427,-0.23276642032071784,-0.14788381764199465,-0.11245411884590985,0.463570926279678
1772661456961082624,0.23592162132263184,0.1258428394794464,-0.2807134985923767,0.05523291602730751,-0.1136205866932869,0.14608685672283173,-0.9827252626419067,-0.01736084371805191,0.08987507224082947,0.05624210834503174,-0.9679773074455048,0.057956748281407,0.07265239189556805,-0.2332010047448339,-0.14661152598336374,-0.11510677381273103,0.4643590319855888
1772661456971119616,0.24595856666564941,0.10227999836206436,-0.2916886508464813,0.05072285234928131,-0.11638139933347702,0.1450231373310089,-0.9825597405433655,-0.013409852981567383,0.09305974841117859,0.05012565851211548,-0.9678420412112623,0.05708506789724635,0.07390141801695843,-0.23358472470844518,-0.14553636176870252,-0.11789783614673147,0.4650301869149241
1772661456981157632,0.2559964656829834,0.07304500788450241,-0.3031129539012909,0.052163224667310715,-0.11925742775201797,0.14420628547668457,-0.982335090637207,-0.010579615831375122,0.09618067741394043,0.04684925079345703,-0.9676970437122564,0.056321658474183835,0.07523516402467215,-0.23394433476761228,-0.14471082732414137,-0.12081077586247004,0.4656377843367015
1772661456991194624,0.2660336494445801,0.01961427554488182,-0.3034825921058655,0.046742361038923264,-0.12215803563594818,0.14381586015224457,-0.9820358753204346,-0.007572181522846222,0.08930791914463043,0.04233860969543457,-0.967538548473622,0.055764995148836836,0.076631196540279,-0.2342799053604551,-0.14431629299307006,-0.12375693972858322,0.4661781452846892
1772661457001231616,0.27607059478759766,-0.0043609654530882835,-0.30853262543678284,0.046184029430150986,-0.1251046061515808,0.14381827414035797,-0.9816644787788391,-0.00889807939529419,0.07842597365379333,0.03824406862258911,-0.9673658063563306,0.055395741808004446,0.07809657817971512,-0.23459663336838496,-0.14431873604290957,-0.12675802250481666,0.4666603778629615
1772661457011269632,0.28610849380493164,-0.019493313506245613,-0.3162744343280792,0.042094744741916656,-0.12812933325767517,0.14400076866149902,-0.9812474846839905,-0.012495666742324829,0.06759285926818848,0.03427177667617798,-0.9671876850948062,0.055106645264520214,0.07962103348429374,-0.2348866088791586,-0.14450314044834534,-0.12984336048497808,0.4670750381326182
1772661457021306624,0.2961454391479492,-0.003207550151273608,-0.3110237419605255,0.043658819049596786,-0.1311514675617218,0.144195556640625,-0.9808195233345032,-0.011350348591804504,0.063751220703125,0.022476017475128174,-0.9670064471229541,0.05482286605517699,0.08114612059310491,-0.23517715653782945,-0.14469998607395673,-0.13292770528709522,0.46749104081002846
1772661457031344640,0.3061835765838623,0.038441095501184464,-0.2931627333164215,0.049006711691617966,-0.13405443727970123,0.14409755170345306,-0.9804413914680481,-0.009881719946861267,0.08104588091373444,0.014758408069610596,-0.9668299182717283,0.05440603462761795,0.0825790169769327,-0.23550045205869488,-0.14460094979542748,-0.13588605743105672,0.4679975875660501
1772661457041381632,0.3162205219268799,0.08798298984766006,-0.27104461193084717,0.04800510033965111,-0.13676640391349792,0.14354243874549866,-0.980148196220398,-0.015195876359939575,0.09568485617637634,0.004257082939147949,-0.9666712822643839,0.05378549689843807,0.08386305712309274,-0.235840712183281,-0.14403999912993384,-0.13864126910973154,0.4685763174725114
1772661457051418624,0.32625746726989746,0.13930076360702515,-0.2360922247171402,0.041192732751369476,-0.13922227919101715,0.14248140156269073,-0.9799572229385376,-0.02551160752773285,0.10202543437480927,-0.0032733678817749023,-0.9665403417195131,0.05294723458979834,0.08495861446835716,-0.2361745102996357,-0.14296793733609411,-0.14112532552020343,0.46918658053903933
1772661457061456640,0.33629560470581055,0.1503632664680481,-0.20154969394207,0.04563222452998161,-0.14131447672843933,0.1411004513502121,-0.9798575639724731,-0.03294090926647186,0.09853881597518921,-0.010010600090026855,-0.9664324906265095,0.05199455633072438,0.085835751910711,-0.2365098453405544,-0.1415729058979777,-0.14323180909043112,0.4698417716624839
1772661457071493632,0.3463325500488281,0.13638992607593536,-0.17438146471977234,0.05265045166015625,-0.14309075474739075,0.13976721465587616,-0.9797908663749695,-0.03745123744010925,0.08891624212265015,-0.010001003742218018,-0.9663300096395351,0.051100905463051315,0.08656362396095502,-0.23685779970909085,-0.14022631918907763,-0.14501695376934898,0.47054120317840603
1772661457081531648,0.3563704490661621,0.1315552294254303,-0.16909508407115936,0.05758875235915184,-0.14471650123596191,0.13854780793190002,-0.9797253012657166,-0.040891408920288086,0.06073196232318878,-0.0006671547889709473,-0.966222930951682,0.05027851182411005,0.08723203326382603,-0.23722542891661919,-0.13899493726008524,-0.14665086498347418,0.47128582019148607
1772661457091568640,0.3664076328277588,0.1520455926656723,-0.15216191112995148,0.07696963846683502,-0.1462097316980362,0.13728666305541992,-0.979681134223938,-0.041976913809776306,0.03419160842895508,0.008001446723937988,-0.9661071623577658,0.04944580433505952,0.08783254333516971,-0.23764978968027797,-0.13772161620915346,-0.14814870443138733,0.47215983960210295
1772661457101606656,0.3764455318450928,0.20565448701381683,-0.1216181218624115,0.11164958775043488,-0.14743685722351074,0.13569119572639465,-0.9797194600105286,-0.04062771797180176,0.03966282308101654,0.01151883602142334,-0.9659772378340632,0.04846770914246918,0.08826741594502686,-0.23821805387253014,-0.13611107327845007,-0.14936800958018526,0.47336810114781025
1772661457111642624,0.38648152351379395,0.2902207672595978,-0.08667585253715515,0.1636030673980713,-0.1482720822095871,0.1334894299507141,-0.9798958897590637,-0.0457586795091629,0.07045954465866089,0.01224452257156372,-0.9658260710848888,0.047218812994400006,0.08844453443965776,-0.23901484191380565,-0.13388909819358502,-0.1501748970978409,0.4751085377862529
1772661457121679616,0.3965184688568115,0.39252158999443054,-0.05750225484371185,0.21846339106559753,-0.14875514805316925,0.13044477999210358,-0.9802326560020447,-0.06547825038433075,0.09721633791923523,0.016762197017669678,-0.9656408711397896,0.04557285152201569,0.08835602060696798,-0.2401125065839212,-0.13081758693042955,-0.15060582496676495,0.47754322321977727
1772661457131717632,0.4065566062927246,0.5171977877616882,-0.021711234003305435,0.2691830098628998,-0.1488426774740219,0.12633799016475677,-0.9807571172714233,-0.0991736650466919,0.10547351837158203,0.033613622188568115,-0.9654297326154724,0.04343004432296887,0.08795032712736177,-0.24150381663369616,-0.1266765148396872,-0.15061373783386295,0.4806723577176608
1772661457141754624,0.4165935516357422,0.6628175377845764,0.011495455168187618,0.323449969291687,-0.14852726459503174,0.12099093198776245,-0.9814789295196533,-0.13409602642059326,0.10644131898880005,0.05388188362121582,-0.9651920740819728,0.04070615833161849,0.08719835769659946,-0.24319501918514846,-0.12128809082871653,-0.15019048047649664,0.48451880406793973
1772661457151792640,0.42663145065307617,0.8293863534927368,0.04597540199756622,0.3931334614753723,-0.14780689775943756,0.11417930573225021,-0.9824032783508301,-0.16286204755306244,0.11143714189529419,0.06800508499145508,-0.9649138240181785,0.03729057188725017,0.08606842241561422,-0.2452405396039632,-0.11442886718607202,-0.14933432414547645,0.48920709802319445
1772661457161829632,0.43666863441467285,1.0492109060287476,0.07955000549554825,0.4455387592315674,-0.1467352956533432,0.10555851459503174,-0.983527421951294,-0.1973046213388443,0.11892879754304886,0.07056355476379395,-0.9645865253625098,0.033011660174622495,0.08453713998581788,-0.24766218965052902,-0.10575553377097677,-0.14810050097537408,0.494798998992393
1772661457171867648,0.44670653343200684,1.2173693180084229,0.1396397054195404,0.5218793153762817,-0.14520806074142456,0.09499920904636383,-0.984829843044281,-0.22516852617263794,0.13398942351341248,0.057721078395843506,-0.9642010334301924,0.027825679545852897,0.08252771467229911,-0.2504620086322437,-0.09514268804458337,-0.14639007160073708,0.501307012165062
1772661457181904640,0.4567434787750244,1.3374202251434326,0.2210450917482376,0.6226914525032043,-0.14291712641716003,0.08320461213588715,-0.9862310290336609,-0.24859288334846497,0.15689243376255035,0.06131953001022339,-0.9637097668695463,0.022113601756502583,0.07997163722940424,-0.2537301020213231,-0.08330091601461112,-0.14391063863086917,0.5088769442068652
1772661457191941632,0.4667806625366211,1.4695782661437988,0.2808053493499756,0.7087786793708801,-0.13989847898483276,0.07024165987968445,-0.9876712560653687,-0.27480489015579224,0.14592960476875305,0.09262120723724365,-0.9630847844829361,0.015910896400044783,0.07688440552898354,-0.2574941739308772,-0.07029954683542587,-0.1407087351203642,0.5175504527098046
1772661457201979648,0.4768185615539551,1.5665463209152222,0.3355129361152649,0.7751545906066895,-0.13638602197170258,0.05620640516281128,-0.9890599846839905,-0.28941047191619873,0.12042933702468872,0.11059629917144775,-0.9623307606349489,0.0092539597216321,0.07337821105722543,-0.261628512771021,-0.056236040974188974,-0.13703040613591383,0.527047133074441
1772661457212016640,0.48685550689697266,1.6730083227157593,0.3867281675338745,0.8571703433990479,-0.13241976499557495,0.04122564196586609,-0.9903360605239868,-0.28860074281692505,0.12495782971382141,0.12586462497711182,-0.9614236696196277,0.00220695686813941,0.06947743207143076,-0.26614397161244707,-0.041237327029444354,-0.1329235140585244,0.5373749867071693
1772661457222054656,0.49689364433288574,1.7993823289871216,0.42645442485809326,0.9383881092071533,-0.12805257737636566,0.02518274635076523,-0.9914476275444031,-0.27856361865997314,0.14406774938106537,0.12120836973190308,-0.960334967992709,-0.005286481763564868,0.06517857581606548,-0.27107321672531315,-0.025185408278734108,-0.12844610235999554,0.5486041027944032
1772661457232091648,0.5069305896759033,1.9983713626861572,0.44501668214797974,0.9976245164871216,-0.12356025725603104,0.007562815211713314,-0.9923082590103149,-0.28218621015548706,0.1580408215522766,0.10511648654937744,-0.959052238864965,-0.013498703412961008,0.06052816495619176,-0.27635679063062746,-0.007562887456035526,-0.12388040359534008,0.5606425545247349
1772661457242129664,0.5169684886932373,2.2690646648406982,0.47293564677238464,1.042014479637146,-0.1190686821937561,-0.012409175746142864,-0.99280846118927,-0.2972368597984314,0.17935559153556824,0.07271873950958252,-0.9575604792239615,-0.022807555133025993,0.0554579057570736,-0.28192600429196196,0.012409493791886649,-0.11936107427423438,0.5734029659210816
1772661457252166656,0.527005672454834,2.571681261062622,0.5329645872116089,1.0986499786376953,-0.1143326461315155,-0.03527131304144859,-0.9928162097930908,-0.319154292345047,0.2212606966495514,0.04124760627746582,-0.9558230924236147,-0.0334272686859259,0.049744588099535504,-0.28776797220433015,0.03527862956300601,-0.11465487048342901,0.586897991991788
1772661457262203648,0.5370426177978516,2.8676276206970215,0.5958008170127869,1.1660716533660889,-0.10925734043121338,-0.06107126921415329,-0.9921356439590454,-0.3360856771469116,0.2731531858444214,0.04139101505279541,-0.9537640706382822,-0.045359812649039835,0.0432974150964191,-0.29394190432652534,0.06110929659595571,-0.10968143685254682,0.6012652691281491
1772661457272241664,0.5470805168151855,3.1956675052642822,0.6547368168830872,1.2309883832931519,-0.10396020114421844,-0.08993027359247208,-0.9905073642730713,-0.34156590700149536,0.314615935087204,0.05195450782775879,-0.9513073828225568,-0.05867136518645955,0.03611083930469624,-0.30044623763582395,0.09005193522934368,-0.1045736443431967,0.6165375592906147
1772661457282278656,0.5571174621582031,3.549694299697876,0.7153845429420471,1.2843074798583984,-0.09852537512779236,-0.12212498486042023,-0.9876123666763306,-0.34649720788002014,0.33469516038894653,0.044664978981018066,-0.9483819132094626,-0.0734997929589411,0.028135102798914485,-0.3072099158240246,0.12243061153051273,-0.0994321894176734,0.6326280941461434
1772661457292316672,0.5671555995941162,3.893644094467163,0.8018760085105896,1.3266887664794922,-0.0928492620587349,-0.15764926373958588,-0.9831203818321228,-0.3542943000793457,0.33794713020324707,0.03205537796020508,-0.9449120926707041,-0.08982557766662386,0.019265638776936093,-0.3141676968535717,0.15830969683445878,-0.09416412222339933,0.6494456956202416
1772661457302353664,0.5771925449371338,4.225801944732666,0.8931773900985718,1.371155023574829,-0.08690682798624039,-0.19638413190841675,-0.9766680598258972,-0.3533855080604553,0.33572739362716675,0.028135955333709717,-0.9408118069481877,-0.10759525031975246,0.009446643067586573,-0.3212586151392579,0.19766887239032893,-0.08874923021030968,0.6669162719106767
1772661457312391424,0.5872304439544678,4.509099006652832,0.965334951877594,1.4216501712799072,-0.08089178055524826,-0.23787246644496918,-0.9679220914840698,-0.34199029207229614,0.32759416103363037,0.040233492851257324,-0.9359861955337977,-0.12663898497502898,-0.0012296167795083474,-0.3284675177638488,0.24017485062928517,-0.08337885400337748,0.6850766728451952
1772661457322428672,0.5972676277160645,4.772711753845215,1.021255373954773,1.4816066026687622,-0.07507488876581192,-0.28155040740966797,-0.9566050171852112,-0.3138869106769562,0.3224591910839081,0.05358988046646118,-0.9303495782072689,-0.14675898326000045,-0.012621247863448287,-0.3357860286127859,0.28540948393319576,-0.07832001685481692,0.7040065043806899
1772661457332465664,0.607304573059082,5.021902084350586,1.0546060800552368,1.5461381673812866,-0.06981948763132095,-0.3271326422691345,-0.9423956274986267,-0.28459638357162476,0.3021845519542694,0.04343932867050171,-0.9238028056844225,-0.16792053528021167,-0.024594596022606826,-0.3431998326426399,0.33326766857949797,-0.07395212818452418,0.7238545333941454
1772661457342503424,0.617342472076416,5.223017692565918,1.1042460203170776,1.6156470775604248,-0.06528447568416595,-0.3740653097629547,-0.9251016974449158,-0.26367977261543274,0.2725791037082672,0.014167249202728271,-0.916280919678497,-0.18993447044973558,-0.03706832659317912,-0.3506853568812208,0.38338870178546924,-0.07045325273907534,0.7447342497475284
1772661457352540672,0.6273796558380127,5.421935081481934,1.1598631143569946,1.6695411205291748,-0.06146940588951111,-0.42191004753112793,-0.9045515060424805,-0.2601706087589264,0.23598170280456543,-0.026188790798187256,-0.9077332546060639,-0.2126480196909837,-0.05005054921456834,-0.35818462741840856,0.4355510108973109,-0.06785135598047165,0.7666919755947745
1772661457362578688,0.6374175548553467,5.569950580596924,1.2311586141586304,1.7163344621658325,-0.05834393948316574,-0.4701420068740845,-0.8806602358818054,-0.27199357748031616,0.18075907230377197,-0.05513077974319458,-0.898128434656059,-0.23586450424661615,-0.06354375934793974,-0.36564393895804786,0.4894516802422971,-0.06615355183663012,0.7897806759352032
1772661457372615680,0.6474545001983643,5.669529438018799,1.3504469394683838,1.7474498748779297,-0.05578184127807617,-0.5181236863136292,-0.8534847497940063,-0.28430604934692383,0.13349539041519165,-0.05215489864349365,-0.8874686421199268,-0.2593094309843546,-0.07756437527808772,-0.37301717394017253,0.54465573026012,-0.0652649218455256,0.8140252200927743
1772661457382653696,0.6574926376342773,5.679424285888672,1.5154855251312256,1.7757409811019897,-0.053346045315265656,-0.5649524331092834,-0.823397159576416,-0.28045523166656494,0.11442148685455322,-0.025479793548583984,-0.8758015827319845,-0.28248190090995734,-0.09222463404129179,-0.38035535324647973,0.6003756348088866,-0.06469732314303038,0.8394655131586786
1772661457392690688,0.6675295829772949,5.660408973693848,1.6555113792419434,1.8014498949050903,-0.05106145516037941,-0.6099528670310974,-0.790790855884552,-0.2512914538383484,0.09528917074203491,0.016132712364196777,-0.8631991131196651,-0.3050637664909965,-0.10742744470543845,-0.38766322478401416,0.6560011333426754,-0.0644805996566613,0.8661604561899107
1772661457402727680,0.6775665283203125,5.607003211975098,1.7935280799865723,1.8145376443862915,-0.0491311177611351,-0.6527664065361023,-0.7559643983840942,-0.2039511501789093,0.050654590129852295,0.04911625385284424,-0.8497161971751903,-0.3269253279738858,-0.12303512495199134,-0.3949235060080904,0.7112304697910232,-0.06490003804371973,0.8942503551638357
1772661457412765696,0.6876046657562256,5.555410861968994,1.8814992904663086,1.7958617210388184,-0.04772532731294632,-0.693217396736145,-0.719146728515625,-0.15280570089817047,-0.01540076732635498,0.08131402730941772,-0.8354343677451976,-0.3480356075016077,-0.138916759457991,-0.4020235190837833,0.7659436525327711,-0.06626666083603483,0.9237186260089837
1772661457422802688,0.6976416110992432,5.471327781677246,1.9130544662475586,1.7540498971939087,-0.047067299485206604,-0.7311162352561951,-0.6806274652481079,-0.10852658003568649,-0.08565622568130493,0.11104738712310791,-0.8205127452147367,-0.36839139906864,-0.15483556241683638,-0.40874516260594473,0.8199566439180087,-0.06904289168051986,0.9543623276457304
1772661457432840704,0.7076795101165771,5.352205276489258,1.9243627786636353,1.6948624849319458,-0.04730353504419327,-0.7662033438682556,-0.6408547759056091,-0.06184258311986923,-0.1332106590270996,0.14325040578842163,-0.8051018645684618,-0.38790970644872214,-0.17058336732414284,-0.4150160530678115,0.8729118427029267,-0.07367957706399852,0.9862943270834631
1772661457442877440,0.7177164554595947,5.238951206207275,1.9131336212158203,1.6373006105422974,-0.04843571409583092,-0.7983622550964355,-0.6002264022827148,-0.017665378749370575,-0.15714311599731445,0.16675472259521484,-0.7893401423279007,-0.4065425175880161,-0.18603757437469495,-0.42077956049759524,0.9245706218327372,-0.08052126127773307,1.0196564657420057
1772661457452915712,0.7277545928955078,5.11964750289917,1.8930634260177612,1.5689505338668823,-0.05044887214899063,-0.8277087807655334,-0.5588855743408203,0.030902370810508728,-0.16467708349227905,0.1707782745361328,-0.773281050105809,-0.4243691380236684,-0.20116671403559538,-0.4260037488618445,0.9750122706783744,-0.09002292916435489,1.0548265766776705
1772661457462952704,0.7377915382385254,4.992367267608643,1.8452240228652954,1.4736804962158203,-0.05322805047035217,-0.8542085886001587,-0.5171986222267151,0.08020558953285217,-0.1634458303451538,0.16804707050323486,-0.757071377443087,-0.44135189811710784,-0.21589160400551502,-0.4306300275878047,1.0240267921287842,-0.10255501141420202,1.0920112643455127
1772661457472989440,0.747828483581543,4.864107131958008,1.781287670135498,1.3453419208526611,-0.056458987295627594,-0.877983570098877,-0.4753496050834656,0.122132807970047,-0.17589521408081055,0.16118639707565308,-0.7408626497805237,-0.4575167158259699,-0.2302252130087378,-0.4345081773402578,1.071633398991899,-0.11821976312896201,1.1310990208768454
1772661457483027712,0.757866621017456,4.715147495269775,1.7099283933639526,1.220459222793579,-0.059944167733192444,-0.8990881443023682,-0.4336439073085785,0.15784460306167603,-0.19572985172271729,0.15582716464996338,-0.724791140124404,-0.47283933227784863,-0.24413318515496354,-0.43760668647377,1.117682075169275,-0.13736309962341364,1.1723531500716922
1772661457493064704,0.7679035663604736,4.558501243591309,1.6431435346603394,1.0728000402450562,-0.06346802413463593,-0.917594850063324,-0.39241746068000793,0.18872740864753723,-0.21813207864761353,0.16254383325576782,-0.7089801470111089,-0.4872671639790502,-0.2576081803257382,-0.43994981536988925,1.1619871202437144,-0.16034745552695007,1.2161807123271295
1772661457503102464,0.7779414653778076,4.3759636878967285,1.5746275186538696,0.9036305546760559,-0.0666581392288208,-0.9336488842964172,-0.3519326448440552,0.2089463174343109,-0.25398850440979004,0.16389858722686768,-0.6935763989603078,-0.500754239293956,-0.2707006962816685,-0.4414953813545894,1.204468185653642,-0.18718853645403485,1.2625982754775453
1772661457513139712,0.7879786491394043,4.098819255828857,1.506683588027954,0.7675827145576477,-0.06939107924699783,-0.9472296833992004,-0.3129548728466034,0.22673973441123962,-0.2707573175430298,0.160824716091156,-0.6787935567554786,-0.5130960659916399,-0.2832931243963905,-0.44239880726722774,1.2444803027323599,-0.2181986134529,1.3120136005861416
1772661457523177728,0.7980165481567383,3.8131697177886963,1.4211863279342651,0.6469975709915161,-0.07185719162225723,-0.9584106206893921,-0.27619844675064087,0.2530248165130615,-0.25997310876846313,0.16781529784202576,-0.6648028218054037,-0.5241956750984854,-0.29516040846853775,-0.4428729214853214,1.2813800625365106,-0.25452268672776734,1.365551733411353
1772661457533214464,0.8080534934997559,3.5979056358337402,1.3176831007003784,0.5036576986312866,-0.07387389242649078,-0.9675966501235962,-0.24145236611366272,0.275839239358902,-0.24086886644363403,0.1752445250749588,-0.651632443712379,-0.5342381795949057,-0.306371314034297,-0.44283326003302637,1.315532355928434,-0.29691236537078247,1.423826428997288
1772661457543251456,0.8180904388427734,3.3943841457366943,1.2320655584335327,0.35057827830314636,-0.0751444473862648,-0.9751640558242798,-0.20834684371948242,0.2821604311466217,-0.22626721858978271,0.18335294723510742,-0.6374937871334215,-0.5421284339777551,-0.31925434651597606,-0.4447191298870748,1.3474605120730019,-0.3461485370023164,1.4955808394626797
1772661457553289728,0.8281285762786865,3.1778371334075928,1.154017686843872,0.2310124635696411,-0.07565842568874359,-0.9813034534454346,-0.17697258293628693,0.2838340997695923,-0.22325587272644043,0.21531790494918823,-0.6259004020154594,-0.5503581045586093,-0.32957497360603416,-0.44354815087762667,1.3771208543542315,-0.4039988814645504,1.5669411639419724
1772661457563326720,0.8381655216217041,2.924882650375366,1.0714775323867798,0.14113983511924744,-0.07568337768316269,-0.986130952835083,-0.14770783483982086,0.2872312664985657,-0.23440420627593994,0.25430572032928467,-0.6151405520861133,-0.5576934599288935,-0.33929940154792854,-0.44210400323180177,1.404055783999999,-0.47350697044501017,1.6489381487030028
1772661457573364736,0.8482036590576172,2.65871000289917,1.010954737663269,0.05271729454398155,-0.07525406032800674,-0.9898167252540588,-0.12082947790622711,0.28103408217430115,-0.24872392416000366,0.2872112989425659,-0.6052789640689233,-0.5641051032417044,-0.34838297027274306,-0.44051350262096906,1.4279634152435583,-0.557024462911933,1.7440094435331654
1772661457583401728,0.8582406044006348,2.403369903564453,0.9468728303909302,-0.04746429994702339,-0.0742391049861908,-0.9925706386566162,-0.09639497101306915,0.2681173086166382,-0.255354106426239,0.29724639654159546,-0.596341716988906,-0.5695847586023245,-0.3568973493979691,-0.4388325496425109,1.448824493636903,-0.6562762760175863,1.8540270952820732
1772661457593438720,0.8682775497436523,2.1721434593200684,0.8775553107261658,-0.14408192038536072,-0.07249482721090317,-0.9945966005325317,-0.07430996745824814,0.25508150458335876,-0.239427387714386,0.2997586131095886,-0.5883467063892509,-0.5741832340688274,-0.3649090687747817,-0.4370389924162402,1.466793823129281,-0.773034457597311,1.9807699757789363
1772661457603476480,0.8783154487609863,1.972069263458252,0.8125678896903992,-0.21663402020931244,-0.0701395645737648,-0.9960613250732422,-0.05424295365810394,0.2422892302274704,-0.2066974639892578,0.29685771465301514,-0.581199671976013,-0.5780731550616325,-0.37243784667749896,-0.4351188692701897,1.4820127404107768,-0.9125132748923184,2.1294025974349347
1772661457613513728,0.888352632522583,1.7564749717712402,0.7449797987937927,-0.26868683099746704,-0.06735268235206604,-0.9970755577087402,-0.03610881790518761,0.23228493332862854,-0.17928546667099,0.2751225233078003,-0.5748248933952981,-0.5813275852779184,-0.37947836505265586,-0.43316360560423,1.4942998129404337,-1.0786754554830438,2.303994390666239
1772661457623551488,0.898390531539917,1.5653671026229858,0.6819545030593872,-0.3164958953857422,-0.06425708532333374,-0.9977324604988098,-0.020022645592689514,0.20823904871940613,-0.1569610834121704,0.22299504280090332,-0.5692484571475235,-0.583975171863904,-0.38595553656886955,-0.4312394544934908,1.5034403144483741,-1.268729636392793,2.5017028041348923
1772661457633588480,0.9084274768829346,1.402087926864624,0.6488109230995178,-0.41122984886169434,-0.06055314466357231,-0.9981492757797241,-0.005588919389992952,0.1690126210451126,-0.1432691216468811,0.17186397314071655,-0.5643767458780897,-0.586050590227502,-0.3921099923224517,-0.4292706781717145,1.509947720825952,-1.478759334080527,2.7188520452660376
1772661457643626752,0.9184656143188477,1.241141676902771,0.6019889712333679,-0.5104119181632996,-0.055920835584402084,-0.9984090924263,0.0072432467713952065,0.1209537535905838,-0.13863027095794678,0.14378821849822998,-0.5602497748910571,-0.5875030343001747,-0.39807261648008274,-0.4271986642271779,1.51438078737338,-1.6996059623515947,2.946374909982408
1772661457653663744,0.9285025596618652,1.0779361724853516,0.54692542552948,-0.56162029504776,-0.05059455707669258,-0.998546838760376,0.018555836752057076,0.09182382375001907,-0.11751145124435425,0.1346728801727295,-0.5568214261982437,-0.5884367370747888,-0.4037575072803973,-0.42505522467716106,1.5168795426578914,-1.9223195014958043,-3.1079661741486677
1772661457663701504,0.9385404586791992,0.9248934388160706,0.4885229766368866,-0.5898880362510681,-0.04494161158800125,-0.9985890984535217,0.028283076360821724,0.08281393349170685,-0.083854079246521,0.12590694427490234,-0.5540473208885133,-0.5889306738767407,-0.4090259153038358,-0.4229538886253019,1.5176699692720366,-2.1325028339189904,-2.892261855905752
1772661457673738752,0.9485776424407959,0.829592227935791,0.4276638925075531,-0.6633771657943726,-0.03886041045188904,-0.998566210269928,0.036812495440244675,0.08082208782434464,-0.05532771348953247,0.13352131843566895,-0.5518456736441651,-0.5890924034988237,-0.4139763121820977,-0.4207849916621742,1.517240447303787,-2.3291383475022154,-2.690745159204818
1772661457683775744,0.9586145877838135,0.7482707500457764,0.36400410532951355,-0.7509627938270569,-0.03192638233304024,-0.9984965324401855,0.044558677822351456,0.07086681574583054,-0.06137895584106445,0.15340888500213623,-0.5501822096410891,-0.5889545517906027,-0.4188220093353327,-0.4183541974240597,1.515953781847065,-2.5198771967444062,-2.4957471635497295
1772661457693813504,0.9686524868011475,0.6509535312652588,0.29652413725852966,-0.7900974154472351,-0.024339579045772552,-0.9983774423599243,0.05147789418697357,0.07792847603559494,-0.07243853807449341,0.19966650009155273,-0.5490348332006474,-0.5885603058385127,-0.4234804757167986,-0.41571835524356443,1.5138225327675883,-2.699927644925939,-2.3120973208645292
1772661457703850752,0.9786896705627441,0.5398129820823669,0.24176262319087982,-0.7821475863456726,-0.01655629463493824,-0.9982181191444397,0.057324353605508804,0.10398919135332108,-0.0461389422416687,0.22960184514522552,-0.5483673358960198,-0.5879322535281026,-0.4277824714902491,-0.4130749428275196,1.5110903402583742,-2.86042604387484,-2.14862013150444
1772661457713888768,0.9887275695800781,0.5638309717178345,0.20054328441619873,-0.7588902115821838,-0.008980398997664452,-0.9979938864707947,0.06267035752534866,0.11818753927946091,0.018104970455169678,0.22286736965179443,-0.5479006143498915,-0.5872933419952779,-0.4317658044208488,-0.41045067529628754,1.5074437681141855,-2.9992657502131412,-2.0073077595906588
1772661457723925504,0.9987645149230957,0.7466021776199341,0.16831570863723755,-0.7721946835517883,-0.001430291449651122,-0.9976065754890442,0.06913024187088013,0.11637475341558456,0.06784284114837646,0.1720958948135376,-0.5471694013510733,-0.5870237433481711,-0.4358534696921164,-0.40748066926294557,1.5015956355810978,-3.1209057976057615,-1.8835530090293893
1772661457733962496,1.0088014602661133,0.960303008556366,0.1574915498495102,-0.8101876378059387,0.006390607450157404,-0.9969603419303894,0.07764634490013123,0.09694193303585052,0.07748115062713623,0.10794626921415329,-0.5459273082258447,-0.587287540172197,-0.4403595312414017,-0.4039060486552596,1.4928069336904701,3.0594737057745527,-1.7788623522467175
1772661457744000768,1.0188395977020264,1.1404941082000732,0.1521134227514267,-0.7985044717788696,0.014334459789097309,-0.9959997534751892,0.0881967842578888,0.07495997846126556,0.062451958656311035,0.08077894151210785,-0.5441091444964111,-0.588067378107823,-0.4452809812457585,-0.3998083084849718,1.4813209445967361,2.9804733290501053,-1.6980484385984378
1772661457754037504,1.028876543045044,1.2514688968658447,0.1543792337179184,-0.7673428058624268,0.022006027400493622,-0.9947308301925659,0.10013099759817123,0.06516747176647186,0.05256170034408569,0.07601641863584518,-0.5418083229326627,-0.5892538707082011,-0.45038358687186725,-0.39544680843689356,1.4680945549439521,2.9252594826828706,-1.6410507078091345
1772661457764075520,1.038914442062378,1.4178454875946045,0.17215636372566223,-0.7765547037124634,0.02951505035161972,-0.9931037425994873,0.11346370726823807,0.050471507012844086,0.048218369483947754,0.08491577208042145,-0.5390126537924099,-0.5907942506798463,-0.4557345798046128,-0.3908114878250951,1.4532874441250705,2.8871050091722203,-1.6010205042308312
1772661457774112768,1.0489516258239746,1.5744284391403198,0.18067555129528046,-0.7808927297592163,0.03706611320376396,-0.9910316467285156,0.12838366627693176,0.030759230256080627,0.0489235520362854,0.05902479588985443,-0.5356950037833834,-0.5926813358152918,-0.4614332740763924,-0.3857965984665483,1.4367679609063684,2.860522228798642,-1.5724454094205895
1772661457784150528,1.0589895248413086,1.7649815082550049,0.18578270077705383,-0.7846616506576538,0.04460474103689194,-0.9884215593338013,0.14502868056297302,0.028774786740541458,0.08169853687286377,0.04866635799407959,-0.5318048190651361,-0.5949693163141683,-0.46746748693428475,-0.38035422195414614,1.4184752919903791,2.8432163437666165,-1.5531040788509523
1772661457794187520,1.0690264701843262,1.9549980163574219,0.18580320477485657,-0.7745453715324402,0.05202852189540863,-0.9851674437522888,0.16351793706417084,0.028614189475774765,0.1238241195678711,0.019297584891319275,-0.5272775238781403,-0.5977105290428973,-0.4738154608606857,-0.3744588253176621,1.3983469369337915,2.8335393897920573,-1.5413891229819667
1772661457804224768,1.0790636539459229,2.142653226852417,0.17952387034893036,-0.7769407629966736,0.05936708301305771,-0.9811505079269409,0.1839003562927246,0.029271211475133896,0.13624083995819092,0.0038437843322753906,-0.5221014446082494,-0.6009193281656179,-0.48046450495353454,-0.3680488541208539,1.3763278358790945,2.8293319293646064,-1.5352277984263578
1772661457814262528,1.0891015529632568,2.2422163486480713,0.15879249572753906,-0.7761407494544983,0.0666782557964325,-0.9763573408126831,0.2056225687265396,0.021502263844013214,0.10208964347839355,-0.0031689107418060303,-0.5164617039613302,-0.6044578773834133,-0.487280162505666,-0.361187147004691,1.3529137883144056,2.828016647304287,-1.532162961383917
1772661457824299520,1.0991384983062744,2.2412703037261963,0.13462643325328827,-0.7779806852340698,0.0739506334066391,-0.9709261059761047,0.2276708483695984,0.018166646361351013,0.046365439891815186,0.013540178537368774,-0.5106621176100641,-0.6080683857651874,-0.4940528971057066,-0.3541029032687393,1.3290697254142023,2.827529173075548,-1.5301470100524226
1772661457834337792,1.1091766357421875,2.184824228286743,0.11899768561124802,-0.7696892023086548,0.08116912841796875,-0.9650208950042725,0.24929222464561462,0.00896451622247696,-0.004064977169036865,0.021200448274612427,-0.5049253591205719,-0.6115538169447071,-0.5006476214124023,-0.34699336421755284,1.305522954823631,2.8268196964053502,-1.5280823577882625
1772661457844374784,1.119213581085205,2.135850667953491,0.10983987152576447,-0.7623199820518494,0.08826534450054169,-0.9587529897689819,0.27018821239471436,0.0004340037703514099,-0.02336353063583374,0.02235323190689087,-0.49933080859905915,-0.6148545964066737,-0.5069989401090104,-0.33996252282527456,1.2825819942356598,2.825841131158283,-1.5258945013609013
1772661457854412544,1.129251480102539,2.1771798133850098,0.11593850702047348,-0.7685579061508179,0.09528600424528122,-0.9519975185394287,0.2908979654312134,-0.0028787925839424133,-0.00771939754486084,0.009486585855484009,-0.49368462858034845,-0.6180564372788492,-0.5132788867893866,-0.33290632315009394,1.2596965553795527,2.825048717616013,-1.5238697549986453
1772661457864449792,1.1392886638641357,2.2514102458953857,0.10999646782875061,-0.7870016098022461,0.10237469524145126,-0.9445162415504456,0.3121037483215332,-0.0058323293924331665,0.016873300075531006,-0.006393879652023315,-0.48778710323837726,-0.6213001847960546,-0.5196517699014584,-0.32559475852314956,1.2361186175329895,2.8246362696495524,-1.5222233027575451
1772661457874487552,1.1493265628814697,2.278855562210083,0.09736189991235733,-0.7535693645477295,0.10934960842132568,-0.9363409876823425,0.33362919092178345,-0.0008901357650756836,0.04144340753555298,0.006718069314956665,-0.4816693686332591,-0.6246129512076666,-0.5259973983892303,-0.3180882315216938,1.2120593744018588,2.8248683424594687,-1.5213387881686262
1772661457884524544,1.1593635082244873,2.219916820526123,0.045634783804416656,-0.7057826519012451,0.11592227965593338,-0.927715003490448,0.3548336625099182,0.01991148293018341,0.05050241947174072,0.0422305166721344,-0.4755318178787858,-0.6279871890435013,-0.5320234173275029,-0.3105683131995387,1.1882442901376957,2.8258287004544163,-1.5215952471903715
1772661457894561536,1.1694004535675049,2.070206880569458,0.013842232525348663,-0.6796267032623291,0.1222270280122757,-0.9190206527709961,0.3747820258140564,0.02721753716468811,0.02200227975845337,0.06653261184692383,-0.4697292580637886,-0.6311798225187584,-0.5375900344976664,-0.3032547114973131,1.1655889856367432,2.8263405826042636,-1.521825040984285
1772661457904599552,1.179438591003418,1.8835985660552979,-0.0008220646996051073,-0.6806154251098633,0.1284273862838745,-0.9105687141418457,0.392901211977005,0.016378536820411682,-0.03585779666900635,0.08311206102371216,-0.46447355821924835,-0.6339619607919401,-0.5427180155073579,-0.2963339826028742,1.1446578314669755,2.825670869875701,-1.5210445680313747
1772661457914636544,1.1894755363464355,1.706127405166626,-0.0012255336623638868,-0.7186810374259949,0.1347896158695221,-0.9024225473403931,0.4092254042625427,-0.008431568741798401,-0.09428155422210693,0.09413158893585205,-0.4597838991704338,-0.6362101258126629,-0.5475850428423681,-0.28980359350421037,1.1253595632620017,2.823406631481751,-1.5185479067177559
1772661457924674816,1.1995136737823486,1.5244712829589844,0.016666382551193237,-0.7181638479232788,0.14127908647060394,-0.8946714401245117,0.4237963855266571,-0.03434550762176514,-0.11994659900665283,0.09962588548660278,-0.45564059787160305,-0.6379094475489098,-0.5522406407332626,-0.28371380029866006,1.1076952316952349,2.8198131642221886,-1.5144543823333712
1772661457934711808,1.2095506191253662,1.4468977451324463,0.03293430060148239,-0.6940521001815796,0.14746886491775513,-0.887276828289032,0.43702733516693115,-0.04175597429275513,-0.08875161409378052,0.06675684452056885,-0.45183526301498245,-0.6392744100491223,-0.5566344341791594,-0.2780850139113153,1.0914071682646869,2.8161540256262487,-1.5100659428779484
1772661457944748544,1.2195875644683838,1.4429683685302734,0.04103150963783264,-0.7054386138916016,0.15352754294872284,-0.8797906041145325,0.44988682866096497,-0.04654817283153534,-0.04121476411819458,0.013415873050689697,-0.44806448014593436,-0.6405147607446242,-0.5609672539994967,-0.27257097411161424,1.0754215313424642,2.8127268253892863,-1.5057645923903895
1772661457954786560,1.2296254634857178,1.453686237335205,0.06696057319641113,-0.7114863991737366,0.15952858328819275,-0.8720585107803345,0.4626712501049042,-0.05943092703819275,-0.009136676788330078,-0.04451936483383179,-0.44422989686606923,-0.6416737587394316,-0.5653232833293413,-0.26706594830632563,1.059392911231752,2.809558734621246,-1.5015521689044826
1772661457964823808,1.2396626472473145,1.4621925354003906,0.11663119494915009,-0.6986249089241028,0.16524742543697357,-0.8640418648719788,0.47552627325057983,-0.06237265467643738,0.006909787654876709,-0.07174807786941528,-0.4402064388693467,-0.6427803257916106,-0.5697337892975552,-0.26163957822994927,1.0432440555078746,2.8071429164436976,-1.4977179938873637
1772661457974861568,1.2497005462646484,1.4035974740982056,0.1596423089504242,-0.6766828894615173,0.17050038278102875,-0.8559408187866211,0.48815473914146423,-0.06175100803375244,0.010893821716308594,-0.10607469081878662,-0.43606559361260183,-0.6437893482058784,-0.5741190209073983,-0.2564555679037571,1.027367593013559,2.8055636276885076,-1.4942690704234902
1772661457984898560,1.259737491607666,1.3273226022720337,0.18389545381069183,-0.6613467335700989,0.1753786951303482,-0.8480185866355896,0.5001069903373718,-0.05675685405731201,0.018535494804382324,-0.08947771787643433,-0.43201824937898226,-0.6446032180661119,-0.5783944975854395,-0.2516084694311645,1.0122353375156152,2.8043100831402703,-1.4907819033917085
1772661457994936832,1.269775629043579,1.1987086534500122,0.21129566431045532,-0.6377514004707336,0.17990098893642426,-0.8404151797294617,0.511212170124054,-0.04678329825401306,0.00286024808883667,-0.06457221508026123,-0.4281519557281942,-0.6451963072179849,-0.5825184998332708,-0.24714329147065173,0.9980489005804408,2.8032167283795255,-1.4871404891036324
1772661458004973568,1.2798125743865967,1.0370041131973267,0.260483056306839,-0.6184241771697998,0.18398067355155945,-0.8334915041923523,0.5210017561912537,-0.037236884236335754,-0.02501356601715088,-0.05394548177719116,-0.4246357223704229,-0.6454556282887299,-0.5864195588807605,-0.24327675853363895,0.9853970387173759,2.802133271958457,-1.4830746602572245
1772661458015010560,1.2898495197296143,0.9153466820716858,0.3481670916080475,-0.6283950209617615,0.18755272030830383,-0.8272000551223755,0.5296828150749207,-0.04346396028995514,-0.047342121601104736,-0.045246899127960205,-0.42133728057062825,-0.6453188981647975,-0.5902583673785616,-0.24006967199462573,0.9741063761736158,2.801283332671158,-1.478371758304427
1772661458025048832,1.2998876571655273,0.7982171773910522,0.39756351709365845,-0.5908608436584473,0.19062289595603943,-0.8214595913887024,0.5374636054039001,-0.06666047871112823,-0.016186892986297607,-0.07864701747894287,-0.4181951220571647,-0.6448520465220728,-0.5940518726221647,-0.23744694511163758,0.9639657639294407,2.8007624165868052,-1.4731965762196517
1772661458035085568,1.309924602508545,0.668684720993042,0.45069703459739685,-0.5190037488937378,0.19286078214645386,-0.8163923025131226,0.5443422794342041,-0.06551089882850647,0.012528657913208008,-0.08015459775924683,-0.4151974944371929,-0.6442413393829383,-0.5975987250999459,-0.23545695081229742,0.9551360682336433,2.8010917338882835,-1.468407188450704
1772661458045123584,1.319962501525879,0.5860897898674011,0.5390489101409912,-0.5371588468551636,0.1944202035665512,-0.8119712471961975,0.5503662824630737,-0.0662158727645874,-0.026666879653930664,-0.05749225616455078,-0.41232793549188596,-0.643379250522347,-0.6010376619888831,-0.2340991157379007,0.9475213976641631,2.8020200755882305,-1.4634775613581454
1772661458055160576,1.3299994468688965,0.47477468848228455,0.5169454216957092,-0.4874504804611206,0.19573234021663666,-0.8080374002456665,0.5556654930114746,-0.07498957216739655,-0.04451686143875122,-0.01327669620513916,-0.4096574929813803,-0.6422826193042542,-0.6044053106987032,-0.23312634052351863,0.9408130689837886,2.8029161194933803,-1.4581037012211655
1772661458065198592,1.3400375843048096,0.5496395230293274,0.4833752512931824,-0.443714439868927,0.1966599076986313,-0.8043274283409119,0.5606980323791504,-0.05447851121425629,0.031240880489349365,0.03329610824584961,-0.40705388994059727,-0.6412961988478248,-0.6075262943032207,-0.23228889355886267,0.9345427089006137,2.804257650762955,-1.4534560321136842
1772661458075235584,1.3500745296478271,0.6774826645851135,0.37196987867355347,-0.33633923530578613,0.19741693139076233,-0.8000597357749939,0.5665078163146973,-0.04858267307281494,0.1243700385093689,0.07909154891967773,-0.4042225096067577,-0.640849774446838,-0.6103814073308538,-0.23097681277405036,0.9273947451043574,2.806272128846889,-1.4506204354458887
1772661458085273856,1.3601126670837402,0.6776919364929199,0.25519242882728577,-0.1986386477947235,0.19773295521736145,-0.7956091165542603,0.5726324915885925,-0.05074506998062134,0.20507866144180298,0.16070497035980225,-0.40135047073307933,-0.6410592775760625,-0.6126656904190483,-0.22935037147090429,0.920012335410397,2.809106418043112,-1.4501978900217296
1772661458095310592,1.3701496124267578,0.46830064058303833,0.0828603133559227,-0.07774017751216888,0.19786891341209412,-0.7919244170188904,0.5776710510253906,-0.05779320001602173,0.23973923921585083,0.26348501443862915,-0.3990928925604032,-0.6416284562566594,-0.6141241357192783,-0.22779245590729474,0.9139541487937991,2.8115892319248044,-1.451211236120849
1772661458105347840,1.3801867961883545,0.08793114870786667,-0.0514821782708168,0.09948613494634628,0.197768434882164,-0.7903612852096558,0.5798419713973999,-0.072493776679039,0.24749934673309326,0.4153362512588501,-0.39818204616306285,-0.6421721103291486,-0.614439564863029,-0.22700236143952138,0.911398472817081,2.8128926686365534,-1.4527210131077584
1772661458115386112,1.3902249336242676,0.020932672545313835,-0.1281692385673523,0.27121394872665405,0.1967906653881073,-0.7905644178390503,0.5798975229263306,-0.1082744151353836,0.22443294525146484,0.47627002000808716,-0.3981568819200324,-0.6429388239075982,-0.6136598742965592,-0.22698515554631044,0.911730099562331,2.814433143914093,-1.4558844773674406
1772661458125422848,1.4002618789672852,0.10472122579813004,-0.022790612652897835,0.22133773565292358,0.19523482024669647,-0.7906975150108337,0.5802420377731323,-0.17422343790531158,0.05171436071395874,0.17876064777374268,-0.3979211428425887,-0.6439739309351783,-0.6127141181953237,-0.22701926983622656,0.9119474950912848,2.817020544230261,-1.4602825839082452
1772661458135460864,1.4102997779846191,0.09866838902235031,0.14055782556533813,-0.03273821622133255,0.19408836960792542,-0.7902615070343018,0.5812199711799622,-0.18201862275600433,-0.2008579969406128,-0.15919238328933716,-0.3972715751092919,-0.6444308299975896,-0.6126327645548898,-0.22708007658388155,0.9112356177481858,2.8193027676348703,-1.4624080693942023
1772661458145498112,1.4203369617462158,0.1322922706604004,0.2298031449317932,-0.2267477661371231,0.19408157467842102,-0.789376437664032,0.5824236273765564,-0.07034806907176971,-0.296591579914093,-0.2719682455062866,-0.396505230064206,-0.6439948277076334,-0.6135816784593983,-0.22709430791734098,0.9097926261267849,2.8199342613498994,-1.4607902122736156
1772661458155535104,1.4303739070892334,0.3882995545864105,0.23325487971305847,-0.2891744077205658,0.19477784633636475,-0.7874110341072083,0.5848467350006104,0.08825741708278656,-0.1618688702583313,-0.21106737852096558,-0.39527183422007595,-0.6433991007282298,-0.6151918143598204,-0.226576430725051,0.9065976826853616,2.8201053666576015,-1.4579707454464401
1772661458165572864,1.4404118061065674,0.8262765407562256,0.14545458555221558,-0.28353527188301086,0.1959220916032791,-0.7833184003829956,0.5899378061294556,0.1456153839826584,0.028603553771972656,-0.05134838819503784,-0.39306934032251456,-0.6434597554754885,-0.6171940135625934,-0.22478328304229722,0.899986304835055,2.8209467895943243,-1.4565490991934362
1772661458175609856,1.450448751449585,1.2719451189041138,0.06593552976846695,-0.2699962854385376,0.19747500121593475,-0.7764784693717957,0.5984019041061401,0.09903380274772644,0.10312336683273315,0.11154377460479736,-0.3896549427788856,-0.6445746281165701,-0.6194550062048753,-0.22128734005409764,0.8890579748799431,2.8228415227181554,-1.4577067001378428
1772661458185647872,1.460486888885498,1.5277725458145142,0.03919752314686775,-0.29439976811408997,0.1993030160665512,-0.767327606678009,0.6094973087310791,0.035499244928359985,0.04686850309371948,0.19328290224075317,-0.38520125970519453,-0.6464147619653636,-0.6220101326909555,-0.21649812227812468,0.8746632651345544,2.8255567531877483,-1.4605498352346464
1772661458195684864,1.4705238342285156,1.4905471801757812,0.0659782662987709,-0.30587905645370483,0.2013663947582245,-0.7572933435440063,0.6212555766105652,0.03580096364021301,-0.03703343868255615,0.2207549810409546,-0.38042463218481276,-0.6483091507104196,-0.6247583703013476,-0.2113039333891059,0.8591586133391642,2.828149534790234,-1.463263410346819
1772661458205722880,1.4805617332458496,1.3000707626342773,0.005599216558039188,-0.24285709857940674,0.20317555963993073,-0.7479583621025085,0.6318841576576233,0.10822580754756927,-0.035305678844451904,0.20725750923156738,-0.3760437616869212,-0.6500839588509595,-0.6271625966711734,-0.20651609415230082,0.8449808089291151,2.830494050988639,-1.4659196203635652
1772661458215759872,1.4905989170074463,1.1964911222457886,0.014773540198802948,-0.27641716599464417,0.20503753423690796,-0.7394924163818359,0.6411793231964111,0.17595919966697693,-0.03618818521499634,0.15110284090042114,-0.37222166984553806,-0.6516018902497845,-0.6292889932266889,-0.20214219372041906,0.8323159993781765,2.832087580664621,-1.4679552958728008
1772661458225796864,1.5006358623504639,1.0964504480361938,0.026590783149003983,-0.3352077901363373,0.207164004445076,-0.7314302921295166,0.6496866345405579,0.18240812420845032,-0.0829770565032959,0.06007587909698486,-0.3687105015410042,-0.6527437379401121,-0.6314815409962697,-0.1980131900351956,0.8204170562478758,2.8329172744527154,-1.468799462274493
1772661458235834880,1.5106737613677979,0.9942187070846558,0.04470667243003845,-0.35829871892929077,0.20950868725776672,-0.7238693833351135,0.6573581099510193,0.13019776344299316,-0.04630279541015625,-0.06563740968704224,-0.3655473455916481,-0.6535428769684297,-0.6336882121816141,-0.19415513265892104,0.8093942322822033,2.8330574421199093,-1.4686224302966644
1772661458245872128,1.5207109451293945,0.8019421696662903,0.0921052098274231,-0.3257918059825897,0.21155652403831482,-0.7171293497085571,0.6640552282333374,0.023123636841773987,0.04754316806793213,-0.1552509069442749,-0.36268867182271036,-0.6540242524264621,-0.6358300711831333,-0.19086463752333224,0.7996745748454364,2.8331758536880445,-1.4678136872421195
1772661458255909888,1.5307488441467285,0.615847110748291,0.10090029984712601,-0.25068986415863037,0.21294555068016052,-0.7118168473243713,0.6693060994148254,-0.09847414493560791,0.14470887184143066,-0.171869695186615,-0.3603408098837053,-0.6543030002311266,-0.6376053901152661,-0.18841800982171542,0.792081552405803,2.833560880990189,-1.4669994258534458
1772661458265946880,1.540785789489746,0.42797011137008667,0.15654292702674866,-0.2137972116470337,0.21374134719371796,-0.7078115344047546,0.6732885241508484,-0.19382864236831665,0.18330591917037964,-0.15688538551330566,-0.3584395105628117,-0.6543715449303419,-0.6390947864831132,-0.18675346170361198,0.7863953685947508,2.834196594499041,-1.4660722889124782
1772661458275984896,1.5508239269256592,0.2764386534690857,0.1268572062253952,-0.21749047935009003,0.21425004303455353,-0.7049881815910339,0.6760833859443665,-0.23281998932361603,0.12906038761138916,-0.14213258028030396,-0.35702459050842483,-0.6542041663204348,-0.6403581819484407,-0.18571969003018854,0.7824065010572877,2.8347053281784356,-1.4647769173189822
1772661458286021888,1.5608608722686768,0.23779574036598206,0.08747650682926178,-0.222739577293396,0.2150430530309677,-0.7028253674507141,0.6780807375907898,-0.16307160258293152,0.008443474769592285,-0.014185845851898193,-0.35604063752625503,-0.6537936259507379,-0.6415561267832213,-0.18491848534597521,0.7793615220233785,2.834490854371655,-1.4627394853984956
1772661458296058880,1.5708978176116943,0.34029707312583923,-0.00970836728811264,-0.17871886491775513,0.21619506180286407,-0.7004242539405823,0.6801953911781311,-0.03550045192241669,-0.0578155517578125,0.053019940853118896,-0.35515861445936303,-0.6536346967225729,-0.6425413545487474,-0.18375181640666646,0.7759917644996073,2.833847950933856,-1.4613006910839532
1772661458306097152,1.5809359550476074,0.2687734067440033,-0.08214781433343887,-0.12706777453422546,0.21754099428653717,-0.6978583335876465,0.6823999881744385,0.037326544523239136,-0.08705383539199829,-0.04789376258850098,-0.35435422324595156,-0.653751231918986,-0.6432801185754744,-0.18229950585811172,0.7724029288397157,2.832989409480846,-1.4606203477050974
1772661458316133888,1.590972900390625,-0.03970319777727127,-0.20000174641609192,-0.07783392816781998,0.2192426472902298,-0.6968603730201721,0.6828752160072327,0.048991620540618896,-0.14249515533447266,-0.06846469640731812,-0.35454192386857575,-0.6537545329507847,-0.6434614375508125,-0.18128017162741186,0.7710105662986669,2.8309301587714923,-1.459742412231615
1772661458326171904,1.601010799407959,-0.19653551280498505,-0.29507070779800415,0.04581398516893387,0.22109337151050568,-0.6976526975631714,0.6814680695533752,0.045340344309806824,-0.1797277331352234,0.010136663913726807,-0.3557620444120646,-0.6536799921192792,-0.6429902810788173,-0.18082984049691794,0.772115920018778,2.827870157760609,-1.4588906194517162
1772661458336208896,1.6110477447509766,-0.41191360354423523,-0.3955232799053192,0.16399094462394714,0.22273072600364685,-0.6999295949935913,0.6785942912101746,0.010988160967826843,-0.1538456678390503,0.007273256778717041,-0.35777517132673503,-0.6538169711815476,-0.6417324293239267,-0.18083129293429698,0.7752988762715695,2.8244478019038137,-1.4590468386651927
1772661458346246912,1.6210858821868896,-0.48958316445350647,-0.4528787434101105,0.25629985332489014,0.22413361072540283,-0.7035650610923767,0.6743595004081726,-0.06490813195705414,-0.08171331882476807,0.03792089223861694,-0.3604769342612538,-0.6540311419122057,-0.6398617060698846,-0.18131947012613164,0.7804018639017286,2.8207136850055385,-1.4597752721750572
1772661458356283904,1.6311228275299072,-0.32692450284957886,-0.5555651783943176,0.42867082357406616,0.22512191534042358,-0.7071787714958191,0.6702377796173096,-0.1027769148349762,0.009470582008361816,0.0746811032295227,-0.36316384675255675,-0.6548062978718053,-0.6374540083890413,-0.1816404264904855,0.7854999958382446,2.817548586118064,-1.4624271150720667
1772661458366320896,1.6411597728729248,-0.25628069043159485,-0.6688355207443237,0.5691823959350586,0.22562730312347412,-0.7101961374282837,0.6668687462806702,-0.08561266958713531,0.07178366184234619,0.04423666000366211,-0.3655766792381547,-0.6564798204668747,-0.6344041530016031,-0.18143697200310502,0.7897768087353317,2.815344331825677,-1.4680169781149894
1772661458376358912,1.651197910308838,-0.3691800832748413,-0.7360987067222595,0.6207907199859619,0.226113423705101,-0.7135652899742126,0.6630966067314148,-0.10479080677032471,0.07100248336791992,0.024540603160858154,-0.36828311031006994,-0.6584417342651878,-0.630874619112018,-0.18116068372401264,0.7945741078122146,2.81296144321777,-1.4746280834507195
1772661458386395904,1.6612348556518555,-0.4964507222175598,-0.8160791993141174,0.7146230340003967,0.22647850215435028,-0.7179291248321533,0.6582439541816711,-0.12545008957386017,0.0858491063117981,0.05737799406051636,-0.37154859671107276,-0.6604422011822876,-0.6268477329858776,-0.1811894278528957,0.8008228172485097,2.8102151737514367,-1.481651523514907
1772661458396433920,1.6712727546691895,-0.5596840381622314,-0.9288102984428406,0.7858892679214478,0.22677548229694366,-0.7231612205505371,0.6523885726928711,-0.10060055553913116,0.1404128074645996,0.1017618179321289,-0.3753766055695353,-0.6625949197253861,-0.6222236477829914,-0.18137848428170397,0.8083684039806663,2.8070504013247386,-1.4894247917601477
1772661458406470912,1.6813099384307861,-0.5790901780128479,-0.9732566475868225,0.8480707406997681,0.22703102231025696,-0.7287173867225647,0.6460869312286377,-0.07387851178646088,0.10551774501800537,0.12823575735092163,-0.3794910320416954,-0.664950823408994,-0.6171578839459213,-0.18150270336829846,0.8164471594415742,2.80367655938916,-1.4980199634925933
1772661458416508928,1.6913478374481201,-0.7227227091789246,-0.9309539794921875,0.8329495787620544,0.22697500884532928,-0.7347637414932251,0.6392219662666321,-0.02916008234024048,-0.0436786413192749,0.0761406421661377,-0.3837962280994941,-0.6672012399721519,-0.6119260435124994,-0.18190523995436303,0.8253183241970067,2.8003992987365263,-1.5066147333634567
1772661458426545920,1.7013847827911377,-0.867687463760376,-0.8153327107429504,0.7989475131034851,0.22650757431983948,-0.7416965365409851,0.6313325762748718,0.00025331974029541016,-0.12768828868865967,0.035156190395355225,-0.38839294417057074,-0.6689535004764073,-0.6067680887300978,-0.18298828657030153,0.8355962131815914,2.7971202302429794,-1.514062487132283
1772661458436582912,1.7114217281341553,-0.88030606508255,-0.7042235136032104,0.7512415051460266,0.22550247609615326,-0.7491352558135986,0.6228525042533875,-0.005318120121955872,-0.07174187898635864,-0.02545565366744995,-0.39302083688034734,-0.6702385957345168,-0.6018359320317614,-0.1846847159841165,0.8467556881909246,2.794225280797998,-1.5204388504317485
1772661458446620928,1.7214598655700684,-0.8865179419517517,-0.5931980013847351,0.6789121031761169,0.22410739958286285,-0.7561608552932739,0.614814043045044,-0.03518836200237274,0.009105920791625977,-0.1070016622543335,-0.3972318080559457,-0.6712724420508156,-0.5973276670792428,-0.18654698333168893,0.8574263060000844,2.792048071469798,-1.5261792887381085
1772661458456657920,1.731496810913086,-0.9965105056762695,-0.49214547872543335,0.6164151430130005,0.2225431203842163,-0.7634634375572205,0.6062988042831421,-0.031136885285377502,0.04726165533065796,-0.10874021053314209,-0.40147632374094794,-0.6717870437034856,-0.5931707742797357,-0.18885815762661728,0.8686588866871375,2.789808336609236,-1.5304207455797696
1772661458466695936,1.741534948348999,-0.9373960494995117,-0.35652583837509155,0.561083197593689,0.22052054107189178,-0.7705382108688354,0.5980314016342163,0.03437751531600952,0.08084094524383545,-0.09096658229827881,-0.40536203727523984,-0.6719950564567828,-0.5894390100435527,-0.19148344313312624,0.8796850855280918,2.7883178719356,-1.533897935338268
1772661458476732928,1.7515718936920166,-0.9227462410926819,-0.2748107314109802,0.4882923364639282,0.21829847991466522,-0.7772926092147827,0.5900523662567139,0.09079881012439728,0.06485986709594727,-0.12285882234573364,-0.40894260247577624,-0.6719392562335555,-0.5861090546583768,-0.1942671422432707,0.8903510241707131,2.787243879770855,-1.5365908212706803
1772661458486770944,1.7616097927093506,-0.9554322957992554,-0.1684064120054245,0.30445152521133423,0.2164386361837387,-0.7836153507232666,0.5823240876197815,0.0898967832326889,-0.0242764949798584,-0.06422710418701172,-0.41231406406649734,-0.6714365621978492,-0.5833823637286678,-0.1970661736588347,0.9004641344499379,2.7857351997570228,-1.5375091269125638
1772661458496807936,1.7716467380523682,-0.9101753234863281,-0.05013621971011162,0.023002810776233673,0.2157219648361206,-0.7894865870475769,0.5746087431907654,0.0832739770412445,-0.1348298192024231,0.0072547197341918945,-0.4156473863025837,-0.6700647730217004,-0.5816507188825696,-0.1998323506639708,0.9099720805837466,2.7824502153163735,-1.5346828704508184
1772661458506844928,1.7816839218139648,-0.7411836981773376,0.07367667555809021,-0.25654137134552,0.2165938764810562,-0.7940006852149963,0.5680229067802429,0.10776223242282867,-0.18819230794906616,0.045578718185424805,-0.4185208648022718,-0.6679534410874088,-0.5812483691564294,-0.20206143319890424,0.9173619352718249,2.7772998129971698,-1.5279833934542897
1772661458516882944,1.7917218208312988,-0.43433883786201477,0.21338291466236115,-0.509317934513092,0.21885626018047333,-0.7965227365493774,0.5636076927185059,0.09510856866836548,-0.16963326930999756,-0.03147268295288086,-0.42047550601419814,-0.6654320460227465,-0.5822405368931447,-0.20346142742101586,0.9215219628793151,2.771201600029594,-1.5184952343679727
1772661458526919936,1.8017587661743164,-0.152495875954628,0.2603924870491028,-0.6616712212562561,0.22225378453731537,-0.7968335151672363,0.5618361830711365,-0.015481933951377869,-0.09853708744049072,-0.14786511659622192,-0.42133581563431816,-0.6628254722572118,-0.5844488764774023,-0.20385811469886675,0.92203615578462,2.764898379010017,-1.5075157987332668
1772661458536957952,1.8117969036102295,0.05844884738326073,0.30305394530296326,-0.6925916075706482,0.22610904276371002,-0.7955446243286133,0.5621241927146912,-0.12164738774299622,-0.01895439624786377,-0.19830888509750366,-0.42134611498507146,-0.660438800348132,-0.5872671426783657,-0.20348320805447045,0.9199059675715542,2.759156423222315,-1.496738363181272
1772661458546994944,1.821833848953247,0.15366026759147644,0.3096565902233124,-0.7147718667984009,0.2299518585205078,-0.7934049367904663,0.5635873079299927,-0.13823126256465912,-0.007605135440826416,-0.17117708921432495,-0.4208408388375421,-0.6582741291546508,-0.5903124840241926,-0.2027296342587484,0.9163826260142385,2.754196286707888,-1.4866619042547413
1772661458557032704,1.831871747970581,0.19156211614608765,0.46410688757896423,-0.9753376841545105,0.23440976440906525,-0.7902609705924988,0.5661623477935791,-0.10896725952625275,-0.13381129503250122,-0.1923830509185791,-0.41983467609117137,-0.6558053829842353,-0.5941384231710055,-0.20163760864450528,0.9112347868362178,2.7490478859626406,-1.4751447150398673
1772661458567069952,1.8419089317321777,-0.044457029551267624,0.5308689475059509,-1.0960711240768433,0.23982232809066772,-0.7874549627304077,0.5678027272224426,-0.07818596065044403,-0.25479656457901,-0.18709594011306763,-0.4191892200652471,-0.6522518200238724,-0.598722751689111,-0.20094533549719823,0.9066689602029991,2.7419525218454934,-1.459632813080856
1772661458577106944,1.8519458770751953,0.030212413519620895,0.48755958676338196,-1.0062365531921387,0.2452094405889511,-0.7849706411361694,0.5689404010772705,-0.03675912320613861,-0.16551446914672852,-0.15394717454910278,-0.4187486611421563,-0.64852713694516,-0.6032269607836778,-0.2004476772581145,0.902648713960868,2.734656694246495,-1.443800843549128
1772661458587144960,1.8619837760925293,-0.011741472408175468,0.4654536247253418,-1.0002713203430176,0.25035804510116577,-0.7823765277862549,0.5702699422836304,-0.04564616084098816,-0.07585406303405762,-0.22063004970550537,-0.41824693594054296,-0.6450467346388815,-0.6074945868005732,-0.1998362507532238,0.8984725559426033,2.7279098347291697,-1.4290901115410604
1772661458597181952,1.872020959854126,-0.016157526522874832,0.444145143032074,-0.957432210445404,0.25542861223220825,-0.7799851298332214,0.5712964534759521,-0.07683971524238586,-0.018064916133880615,-0.22556275129318237,-0.4178874740798713,-0.6415578102455471,-0.6115977497198093,-0.19930353409247215,0.8946420576579994,2.721150138716447,-1.4145790352038103
1772661458607219968,1.88205885887146,-0.1205604150891304,0.41725215315818787,-0.9311299324035645,0.26034146547317505,-0.77786785364151,0.5719648599624634,-0.043712466955184937,-0.026575446128845215,-0.24203938245773315,-0.4176884532160146,-0.6381003190045582,-0.6154757727994581,-0.19888156941370685,0.8912658178514257,2.714447385217628,-1.4004260839284857
1772661458617256960,1.8920958042144775,-0.25339141488075256,0.4430762827396393,-0.9253141283988953,0.26510089635849,-0.776527464389801,0.5716000199317932,0.00415569543838501,-0.051765382289886475,-0.233495831489563,-0.41789437405625296,-0.6343974842052983,-0.6191444515442075,-0.19890768286243687,0.8891356984433468,2.7073324585468512,-1.385716445183084
1772661458627294976,1.9021339416503906,-0.26392707228660583,0.45206576585769653,-0.9249050617218018,0.2697630822658539,-0.7755389213562012,0.570760190486908,0.028180032968521118,-0.07500118017196655,-0.18124902248382568,-0.4182556237757672,-0.6305000582508786,-0.622775863700574,-0.19920373158468438,0.8875683506164882,2.700073079148831,-1.3705454674357327
1772661458637331968,1.9121708869934082,-0.14252766966819763,0.424835205078125,-0.8877015113830566,0.27429959177970886,-0.7742355465888977,0.5703672766685486,0.046226561069488525,-0.06829363107681274,-0.11315304040908813,-0.418425901703431,-0.626771801121954,-0.626371103338838,-0.1993390622980441,0.8855063734326736,2.693327302158224,-1.3560954308641517
1772661458647368960,1.9222078323364258,-0.019834419712424278,0.4009224474430084,-0.803489089012146,0.2785426080226898,-0.7723051309585571,0.5709279179573059,0.06523787975311279,-0.03734135627746582,-0.04971820116043091,-0.4182179585007279,-0.6235358697941344,-0.6298150324535677,-0.1990721909719888,0.8824618525508099,2.687690375238168,-1.3435060355294677
1772661458657406720,1.9322457313537598,-0.04789241775870323,0.3777414858341217,-0.7153337001800537,0.2821797728538513,-0.7703433632850647,0.5717913508415222,0.07345682382583618,-0.016979515552520752,0.008637607097625732,-0.41783198924887754,-0.6206727817198223,-0.6329778671435491,-0.19879800360847877,0.879379469395862,2.6831575054561587,-1.3325345795922985
1772661458667443968,1.9422829151153564,-0.07655660063028336,0.3677081763744354,-0.64212965965271,0.28527286648750305,-0.7687659859657288,0.5723794102668762,0.07213371992111206,-0.004732489585876465,0.10274571180343628,-0.4175083799546917,-0.6180047466875228,-0.6358143161943619,-0.19873856033639536,0.8769093110841552,2.6792273212830837,-1.322532511472579
1772661458677481984,1.9523208141326904,-0.16099850833415985,0.3502974808216095,-0.5793866515159607,0.2879253923892975,-0.7676698565483093,0.5725225210189819,0.06891661882400513,-0.012130558490753174,0.14940130710601807,-0.4173287452898311,-0.6154522586008684,-0.6383414183570729,-0.19893586934310614,0.875197131092526,2.6756224087658573,-1.3131576703986805
1772661458687518720,1.962357759475708,-0.30256524682044983,0.32256489992141724,-0.4908197522163391,0.29014351963996887,-0.767425537109375,0.5717296004295349,0.05678030848503113,-0.0013579726219177246,0.1632709503173828,-0.4174928539677242,-0.6128975076441785,-0.6404853309262972,-0.19958685060037584,0.8748160212137933,2.671975935019503,-1.3039801980371926
1772661458697556992,1.972395896911621,-0.3938557505607605,0.27653828263282776,-0.3689258098602295,0.2917373776435852,-0.7681965231895447,0.5698802471160889,0.04741975665092468,0.05233043432235718,0.17368054389953613,-0.41804166589082825,-0.6104612793056511,-0.6420881166068445,-0.20075130235800148,0.8760194251272697,2.6684486270227588,-1.2954332571812561
1772661458707593984,1.9824328422546387,-0.30627328157424927,0.2509438693523407,-0.26001784205436707,0.2926546037197113,-0.7693331241607666,0.5678732395172119,0.030862241983413696,0.14053356647491455,0.15373021364212036,-0.41860864573092094,-0.6084191828414455,-0.6432439119832088,-0.20206490598078314,0.8777965863507827,2.6657390468187763,-1.2884460432986904
1772661458717630976,1.9924697875976562,-0.1494474560022354,0.154633566737175,-0.11450885236263275,0.292985200881958,-0.769997775554657,0.5668009519577026,-0.00438043475151062,0.23861032724380493,0.13768213987350464,-0.4187929712730464,-0.6070913084400894,-0.6440812250681357,-0.20300750587884822,0.8788376910365523,2.6645085891132996,-1.2840571849378866
1772661458727668992,2.0025079250335693,-0.01485413033515215,0.06931334733963013,0.07743050158023834,0.2924584448337555,-0.7704724669456482,0.5664275288581848,-0.03269281983375549,0.3306683897972107,0.1646057367324829,-0.41873012494227835,-0.606765291692603,-0.6442434744546909,-0.20359589647770734,0.8795819778344174,2.6649736362910588,-1.283279977198465
1772661458737705984,2.012544870376587,0.20705457031726837,0.002243766561150551,0.14869987964630127,0.29137617349624634,-0.7703406810760498,0.5671641230583191,-0.08619126677513123,0.3463447690010071,0.1725667119026184,-0.41825987999287434,-0.607300652127847,-0.6440248245765289,-0.20365804099748808,0.8793752432221017,2.6670117793576154,-1.2855617975653146
1772661458747743744,2.022582769393921,0.5041858553886414,-0.018151920288801193,0.12971007823944092,0.29034942388534546,-0.7686702013015747,0.5699499249458313,-0.15933752059936523,0.26322299242019653,0.13415157794952393,-0.41703417442237645,-0.6085190274011438,-0.6439561758099815,-0.20274964178704957,0.8767596263807333,2.6704297527767835,-1.2901052142835572
1772661458757780992,2.0326199531555176,0.4823570251464844,-0.01885605975985527,0.1477322280406952,0.28940173983573914,-0.7661163806915283,0.5738573670387268,-0.16446274518966675,0.12590336799621582,0.10326659679412842,-0.4153831663605166,-0.6100555617933479,-0.644019324896953,-0.20131596025795973,0.8727765154222127,2.674503373311998,-1.2956597613668968
1772661458767819008,2.0426578521728516,0.2724780738353729,0.021373119205236435,0.1407446265220642,0.28826937079429626,-0.7643605470657349,0.5767614245414734,-0.10672026872634888,-0.04969584941864014,0.17082762718200684,-0.4140825522879819,-0.6113406133906437,-0.6439280731034058,-0.20038697320236584,0.8700490395011536,2.6780994900564914,-1.3004263305796355
1772661458777856000,2.052694797515869,0.08071132004261017,0.10162055492401123,0.050865866243839264,0.2871595323085785,-0.7636507749557495,0.578253448009491,-0.08514842391014099,-0.23613572120666504,0.20208102464675903,-0.41325739588061233,-0.6119471426210554,-0.6439312228502422,-0.20022900418164527,0.8689489657202112,2.680670291341643,-1.3029678780386178
1772661458787892736,2.0627317428588867,0.030947402119636536,0.15071804821491241,-0.039135660976171494,0.28638342022895813,-0.7633918523788452,0.5789792537689209,-0.0852421224117279,-0.30455535650253296,0.16258251667022705,-0.41269172962031075,-0.6119151981810179,-0.6442432905293175,-0.2004888349616106,0.8685480201993808,2.6822462180942175,-1.3033065895508569
1772661458797931008,2.0727698802948,0.08564792573451996,0.11686422675848007,-0.03602375462651253,0.2859160304069519,-0.7629811763763428,0.5797513127326965,-0.04330131411552429,-0.21623629331588745,0.09491592645645142,-0.4121436666142606,-0.6117516910435278,-0.6446980195340957,-0.20065362898988237,0.8679124492707098,2.6834238871324994,-1.3030824855810819
1772661458807968000,2.0828068256378174,0.17557768523693085,0.09364958107471466,-0.030468804761767387,0.28554579615592957,-0.7621203660964966,0.5810647010803223,0.019752055406570435,-0.09466063976287842,0.024281978607177734,-0.41143079674522864,-0.6118211124724147,-0.645141281951229,-0.20048032135043428,0.8665818441903341,2.684833981680665,-1.303561765414014
1772661458818006016,2.0928449630737305,0.17279602587223053,0.10388943552970886,-0.05911589413881302,0.2853120267391205,-0.7609577775001526,0.5827012658119202,0.04090562462806702,-0.05256474018096924,-0.043211400508880615,-0.4106173578017601,-0.6119580203045498,-0.645645415800879,-0.2001072004972821,0.8647880451312151,2.6862698599171755,-1.304196000732874
1772661458828043008,2.102881908416748,0.053221460431814194,0.14425963163375854,-0.09567750245332718,0.2851759195327759,-0.7600247859954834,0.5839840173721313,0.03782212734222412,-0.07659947872161865,-0.09417682886123657,-0.40992077122508336,-0.6118367491449026,-0.6462567616911962,-0.1999325915118976,0.8633512164361367,2.6873259224802863,-1.303958868511592
1772661458838080768,2.112919807434082,-0.1299837827682495,0.17470727860927582,-0.10447019338607788,0.285004198551178,-0.7599636912345886,0.5841469168663025,0.04048103094100952,-0.0937960147857666,-0.12949615716934204,-0.40962108169111744,-0.6112706998987323,-0.6468551460311668,-0.20034235653125518,0.8632572628101971,2.6876733196693716,-1.3023031107238394
1772661458848117760,2.1229567527770996,-0.30792737007141113,0.20986007153987885,-0.10930582135915756,0.28468057513237,-0.7609647512435913,0.5830001831054688,0.05464434623718262,-0.07321780920028687,-0.1567307710647583,-0.40978377359805634,-0.610278054597243,-0.6473490538533877,-0.20143744483631223,0.8647988387317314,2.6873465991614496,-1.299334626208455
1772661458858155008,2.1329939365386963,-0.4143965542316437,0.24493816494941711,-0.13808661699295044,0.2842700481414795,-0.762767493724823,0.5808411836624146,0.06196710467338562,-0.03633540868759155,-0.15254217386245728,-0.41028712602187695,-0.6088916894027673,-0.6478205864806215,-0.20308606229606566,0.8675819892188626,2.6864520894246247,-1.2951344847240267
1772661458868193024,2.1430318355560303,-0.41154900193214417,0.2421700805425644,-0.1911865770816803,0.28410637378692627,-0.764743983745575,0.5783166885375977,0.05669865012168884,0.013034999370574951,-0.10311228036880493,-0.41093932699306046,-0.6072314038785661,-0.6484044747556278,-0.20486705261359986,0.8706438593451473,2.6849579376864847,-1.2899345017520076
1772661458878229760,2.153068780899048,-0.35591983795166016,0.17604325711727142,-0.18127083778381348,0.2843524217605591,-0.7664210200309753,0.5759709477424622,0.05593380331993103,0.05784863233566284,-0.016721129417419434,-0.41161827448334193,-0.6056037762048395,-0.6490219848746818,-0.2063611501968301,0.873250663764164,2.6830039022026217,-1.2846280909009447
1772661458888268032,2.163106918334961,-0.2902586758136749,0.12671472132205963,-0.177381694316864,0.2848506569862366,-0.7678161859512329,0.5738626718521118,0.05725136399269104,0.06955873966217041,0.06619775295257568,-0.4123169466297815,-0.6042001307860152,-0.6495179308806454,-0.20751720467001816,0.8754255312919894,2.680849852458051,-1.2798896341326051
1772661458898305024,2.1731438636779785,-0.18836772441864014,0.09261027723550797,-0.18901197612285614,0.28566649556159973,-0.7686912417411804,0.5722832679748535,0.018196970224380493,0.03816157579421997,0.14808404445648193,-0.41289943795238554,-0.6029675636770304,-0.6500551959681369,-0.20826025440814983,0.8767925029169814,2.6786094774179077,-1.2755470119938945
1772661458908342784,2.1831817626953125,-0.028990278020501137,0.06806325912475586,-0.17805851995944977,0.28662213683128357,-0.7688255310058594,0.5716248750686646,-0.02125653624534607,0.01443105936050415,0.21147143840789795,-0.41317664761115636,-0.6020419562045919,-0.6506595992478572,-0.20850088304236744,0.8770024964314695,2.6768124767566475,-1.2721501097430148
1772661458918380032,2.193218946456909,0.3041378855705261,-0.0045632729306817055,-0.19395573437213898,0.2878079116344452,-0.7676267623901367,0.5726388692855835,-0.035671740770339966,0.009341418743133545,0.30220842361450195,-0.4128901861118303,-0.6016563309421784,-0.6514054647762264,-0.2078511502989999,0.8751298656635096,2.675867703251877,-1.2704416993134613
1772661458928417024,2.2032558917999268,0.8354584574699402,-0.13113932311534882,-0.352002888917923,0.2901551425457001,-0.7635583877563477,0.5768783688545227,-0.04879161715507507,-0.015082359313964844,0.43255162239074707,-0.41161816542430885,-0.6020431542042942,-0.652673902447461,-0.2052591562212976,0.8688058711615906,2.675568246714607,-1.270801886964644
1772661458938454784,2.2132937908172607,1.4258171319961548,-0.3152734637260437,-0.4682847559452057,0.2947196066379547,-0.7557165026664734,0.5848358869552612,-0.11425390839576721,-0.11658269166946411,0.5974150896072388,-0.4093789848770357,-0.6032245378356638,-0.6546282053487731,-0.19997732097670864,0.8567474727100862,2.6748015290577234,-1.2728374227044728
1772661458948491776,2.2233307361602783,1.4290785789489746,-0.3299742639064789,-0.3311435580253601,0.29988381266593933,-0.745530366897583,0.5951924324035645,-0.23318767547607422,-0.2772814631462097,0.6671976447105408,-0.40633297770597543,-0.6052717353078926,-0.6566904403559601,-0.19312496530283815,0.841330275190561,2.6748750166619817,-1.2774771496809045
1772661458958530048,2.2333688735961914,0.7786737680435181,-0.16229498386383057,-0.18180572986602783,0.303130567073822,-0.7380571961402893,0.602812647819519,-0.416076123714447,-0.41137200593948364,0.5650339722633362,-0.40396629647073934,-0.6070505977657106,-0.6579482510014121,-0.18816164625024942,0.8301864896349291,2.6756594202924995,-1.2819921348453038
1772661458968566784,2.243405818939209,0.5034863948822021,0.0031915854196995497,-0.34258249402046204,0.3053447902202606,-0.7335442304611206,0.6071885824203491,-0.5435344576835632,-0.39762037992477417,0.2397964596748352,-0.40251439190444943,-0.6075147072401124,-0.6591814304958147,-0.18544015857364204,0.8235222513128001,2.675641337442696,-1.2827449856035649
1772661458978605056,2.253443956375122,0.09282270818948746,-0.09489396959543228,-0.43358030915260315,0.3084001839160919,-0.7302870750427246,0.6095654964447021,-0.4755144715309143,-0.1870865821838379,-0.44582343101501465,-0.4019510732045645,-0.6069257962947137,-0.6606238213711078,-0.18344641801235168,0.8187421179679519,2.673208776443833,-1.2798315457065523
1772661458988642048,2.2634809017181396,-0.14915911853313446,-0.4103941321372986,-0.5968219637870789,0.31362879276275635,-0.7291442155838013,0.6082645654678345,-0.29043546319007874,0.05383598804473877,-0.5072513818740845,-0.4034437897131793,-0.605276287661566,-0.6616440841413246,-0.1819364133640999,0.817070636762486,2.665533209811472,-1.2725742648842833
1772661458998679040,2.2735178470611572,0.011207918636500835,-0.5056215524673462,-0.5874806642532349,0.3205089569091797,-0.7277706861495972,0.6063196659088135,-0.3262615501880646,-0.13892841339111328,0.03450357913970947,-0.40565319027572755,-0.6036191032999082,-0.6624226779992748,-0.17968184575115084,0.8150657441052177,2.655316876015378,-1.2646196081433336
1772661459008716800,2.283555746078491,-0.15714265406131744,-0.3414619266986847,-0.6256387233734131,0.32722318172454834,-0.7262349128723145,0.6045724153518677,-0.5558456182479858,-0.518500804901123,0.3328665494918823,-0.4076993738191257,-0.6019150203785288,-0.6633132964513941,-0.17746829288936283,0.8128290669590063,2.64549423443299,-1.2566769204402402
1772661459018754048,2.293592929840088,-0.4038379192352295,-0.31713077425956726,-0.5853487849235535,0.33361026644706726,-0.7259308695793152,0.6014389991760254,-0.7546154856681824,-0.5248779058456421,0.3260970711708069,-0.41014976904715106,-0.5995253425464759,-0.6642957744299002,-0.17623212647619518,0.8123869029954671,2.6351582836419136,-1.2466969697896124
1772661459028791808,2.303630828857422,-0.38492584228515625,-0.15465423464775085,-0.4906688928604126,0.3390215337276459,-0.726402759552002,0.5978320240974426,-0.5865648984909058,-0.3464730978012085,0.21971851587295532,-0.4126076219077822,-0.5972227605215837,-0.6650120273286763,-0.17560994725204193,0.8130732912059048,2.6257270978220983,-1.237306823732254
1772661459038828800,2.3136677742004395,-0.6314679384231567,-0.2821003496646881,-0.8056591153144836,0.345138281583786,-0.7272690534591675,0.5932615995407104,-0.1236875057220459,-0.3804579973220825,0.17057812213897705,-0.4155069665667333,-0.594213385119488,-0.6659889305196992,-0.17528030083368443,0.8143346317244033,2.614689863356335,-1.22540551487142
1772661459048866048,2.323704957962036,-0.7026525139808655,-0.398481547832489,-0.8467040061950684,0.353483647108078,-0.7283780574798584,0.5869540572166443,0.06974944472312927,-0.3328403830528259,0.164129376411438,-0.4195051725069309,-0.5902152799035357,-0.6671753493808998,-0.17475266005260462,0.8159517726637302,2.5995321798111313,-1.2094780127181222
1772661459058903808,2.33374285697937,-0.7465859055519104,-0.3570494055747986,-0.6921242475509644,0.36096319556236267,-0.7299385666847229,0.580426812171936,0.08492916822433472,-0.1361350417137146,0.14645612239837646,-0.4234527421130311,-0.5865042156238754,-0.6680016576493478,-0.17456913252951195,0.8182320819257762,2.5852309206488493,-1.194656320120116
1772661459068940800,2.3437798023223877,-0.7282570004463196,-0.35577723383903503,-0.7152104377746582,0.36837753653526306,-0.7316160202026367,0.573616623878479,-0.01869189739227295,0.04246807098388672,0.0668710470199585,-0.4275150363938177,-0.582865463177901,-0.6686375381632546,-0.17442075252366906,0.8206894664603768,2.5707191223998467,-1.1799879521989758
1772661459078979072,2.353817939758301,-0.9811742305755615,-0.25720804929733276,-0.62548828125,0.37482693791389465,-0.7338961958885193,0.5664817094802856,-0.18323755264282227,0.12153041362762451,-0.02726656198501587,-0.4314439879468314,-0.5791003036652926,-0.6692411296178938,-0.1749724426020243,0.8240402502232349,2.5570535964209657,-1.1651345657111911
1772661459089016064,2.3638548851013184,-1.0737032890319824,-0.21560227870941162,-0.5557426810264587,0.3806203305721283,-0.7375930547714233,0.5577495694160461,-0.3405050039291382,0.24131625890731812,-0.12545281648635864,-0.4358509622981175,-0.5749994816207644,-0.6695150300933277,-0.17651947598017445,0.8294988127480162,2.5427619763305565,-1.1490203852262904
1772661459099053824,2.3738927841186523,-0.8234747648239136,0.003682938637211919,-0.32706692814826965,0.3845846354961395,-0.7411494255065918,0.550265371799469,-0.5788443088531494,0.4011836647987366,-0.1295347809791565,-0.43936706886376536,-0.5715143300688474,-0.6697044564926621,-0.17839231712682074,0.8347808593264792,2.531600240819659,-1.1354917342001263
1772661459109092352,2.3839311599731445,-0.6650955080986023,0.3039720356464386,-0.11919587850570679,0.3853302597999573,-0.7443772554397583,0.5453652739524841,-0.6257781982421875,0.355903685092926,-0.11874479055404663,-0.4411578259483934,-0.5690523424242377,-0.6699716837911064,-0.180823652478569,0.8396017476846878,2.5264812469782467,-1.1265889241666476
1772661459119130112,2.3939690589904785,-0.5949031114578247,0.4643308222293854,-0.1348493993282318,0.383782297372818,-0.7474618554115295,0.5422289371490479,-0.463372141122818,0.18758630752563477,-0.08672350645065308,-0.4416625253210145,-0.5669811351556732,-0.6705571211341868,-0.18390170159384722,0.844233031295407,2.5256599417893377,-1.1200014169483314
1772661459129167104,2.404006004333496,-0.5143257975578308,0.4682069420814514,-0.19584470987319946,0.3823333978652954,-0.7499184608459473,0.5398553013801575,-0.20960384607315063,0.14205402135849,-0.07925349473953247,-0.4417783031715873,-0.5647513563212297,-0.6715530910653725,-0.18682714327547123,0.8479388453836474,2.5253747826307733,-1.1131265959003633
1772661459139204096,2.4140429496765137,-0.4103964865207672,0.5084227919578552,-0.040250327438116074,0.3806586265563965,-0.7519699335098267,0.53818279504776,-0.02837890386581421,0.29184097051620483,-0.10199487209320068,-0.4415837227315426,-0.5628208709184349,-0.672550423671325,-0.1895061384345759,0.8510453959565119,2.5259817684302694,-1.107423352985748
1772661459149242112,2.4240810871124268,-0.2555011808872223,0.6245864629745483,0.18305467069149017,0.3769765794277191,-0.7541026473045349,0.5377898812294006,0.02330729365348816,0.47628575563430786,-0.19465023279190063,-0.44054104769037944,-0.5618054153675759,-0.6732530157206917,-0.19242836239929553,0.854286699405774,2.530213482473432,-1.1054771342903558
1772661459159279104,2.4341180324554443,-0.15382355451583862,0.7642010450363159,0.24788826704025269,0.3715638816356659,-0.7559947371482849,0.5388993620872498,-0.012814491987228394,0.5217569470405579,-0.2650802731513977,-0.43854296938182796,-0.5614513996647584,-0.673959947458119,-0.1955261846752985,0.8571724896348132,2.5379575687629377,-1.1065549383569038
1772661459169317120,2.4441561698913574,-0.13318262994289398,0.8927438259124756,0.2840963304042816,0.36501771211624146,-0.7577744722366333,0.5408700108528137,-0.01382136344909668,0.446220338344574,-0.2502051591873169,-0.43587761067055586,-0.5612382256730383,-0.6748678936648338,-0.19893681943908612,0.8598956827066256,2.5479313467338525,-1.108763391490966
1772661459179354112,2.454193115234375,0.05760622024536133,1.0374048948287964,0.28102731704711914,0.35757866501808167,-0.759043276309967,0.5440508723258972,0.08340039849281311,0.3335059881210327,-0.2363266944885254,-0.43242646595400264,-0.5611192749276966,-0.6761439098430541,-0.20244035693178813,0.8618423265496057,2.5601360454687057,-1.1119993502177212
1772661459189391104,2.4642300605773926,0.24463580548763275,1.0874139070510864,0.36839962005615234,0.3493010997772217,-0.7593856453895569,0.5489287972450256,0.20459303259849548,0.2694104313850403,-0.3053983449935913,-0.42808129622650853,-0.5614480749600964,-0.6776728303505142,-0.20562634871690239,0.8623683231277306,2.574885794107069,-1.1174117331295037
1772661459199429120,2.4742679595947266,0.46865373849868774,1.1345670223236084,0.5470705628395081,0.339677095413208,-0.7589777112007141,0.5554929971694946,0.3002918064594269,0.37775200605392456,-0.37177711725234985,-0.42280763782622993,-0.5625707325628088,-0.6791617457266736,-0.208535967065729,0.8617416151825413,2.592769186391701,-1.1261782160595624
1772661459209466112,2.4843051433563232,0.9588103294372559,1.2168909311294556,0.6341579556465149,0.3285142779350281,-0.7570221424102783,0.5647971630096436,0.3134077191352844,0.5016968846321106,-0.49204325675964355,-0.41618417963908977,-0.5648963655620121,-0.6806545966571247,-0.21069446314604104,0.8587434899475491,2.6147750780757004,-1.1397504643702976
1772661459219504128,2.4943430423736572,0.8903458118438721,1.3922476768493652,0.7123784422874451,0.31598153710365295,-0.7536337375640869,0.576360821723938,0.24628958106040955,0.4656088352203369,-0.652227520942688,-0.4082549620518227,-0.5677831831545377,-0.6824973819825494,-0.21247929699049448,0.8535730110544599,2.640105061559526,-1.1559043024942837
1772661459229541120,2.504379987716675,0.6230157017707825,1.4727122783660889,0.7834452986717224,0.3019229769706726,-0.7515645623207092,0.586509108543396,0.1788356900215149,0.3845755457878113,-0.6517557501792908,-0.40037084025550157,-0.5703497987862504,-0.6840728445244794,-0.21551921065096627,0.8504306168181867,2.6661913370990638,-1.1714189286214234
1772661459239579136,2.514418125152588,0.3641825318336487,1.5079225301742554,0.8521846532821655,0.28690454363822937,-0.7511325478553772,0.5945466756820679,0.10794714093208313,0.4070773720741272,-0.5343202352523804,-0.3929640212097119,-0.5724713136985625,-0.6852371387774895,-0.21978615251758316,0.8497759658196335,2.6919939953988434,-1.1857712022918336
1772661459249616128,2.5244550704956055,0.4628094732761383,1.3990422487258911,1.0077131986618042,0.2711535096168518,-0.7514253854751587,0.6015278100967407,0.03856939077377319,0.5358186960220337,-0.2759357690811157,-0.3858050884988384,-0.5747844447559158,-0.6858474652905485,-0.22447838149597127,0.85021969965423,2.7180946682110507,-1.201017081820884
1772661459259653120,2.534492015838623,0.5351715087890625,1.255832314491272,1.3230135440826416,0.25438594818115234,-0.751267671585083,0.609002947807312,0.05849549174308777,0.5742200016975403,0.05005460977554321,-0.378396308935085,-0.5782466661234081,-0.685661913473509,-0.22872413303375008,0.8499806914114203,2.745913813519156,-1.2202794973411184
1772661459269691136,2.544530153274536,0.34509313106536865,1.174841284751892,1.717872977256775,0.23541079461574554,-0.752346396446228,0.6152693033218384,0.11998161673545837,0.5551266670227051,0.28957676887512207,-0.371191389866083,-0.5829168209155481,-0.6839902189706167,-0.23362833368833125,0.8516166734179503,2.7761632510811043,-1.2443522522260069
1772661459279728128,2.5545670986175537,0.26889050006866455,1.2198830842971802,1.9422030448913574,0.21408723294734955,-0.7546412348747253,0.6202282905578613,0.09546782076358795,0.5754115581512451,0.2723192572593689,-0.36404214911148713,-0.5883741844563135,-0.6811240375568678,-0.23949765945641738,0.8551071578566284,2.8092228067692684,-1.2723729758901265
1772661459289766144,2.5646049976348877,0.28160062432289124,1.3366336822509766,1.9740315675735474,0.1912812441587448,-0.7569050788879395,0.6249045729637146,-0.007885903120040894,0.4898154139518738,-0.043819546699523926,-0.3565084993090706,-0.5940195683627869,-0.6779329082061568,-0.24586432236463612,0.858564303405406,2.844551941420605,-1.3022766843874252
1772661459299803136,2.5746419429779053,0.1254701316356659,1.5308369398117065,1.9970098733901978,0.16709648072719574,-0.759118914604187,0.62913978099823,-0.050259947776794434,0.21140486001968384,-0.3356218934059143,-0.3484855907616752,-0.5993464024247334,-0.674799065731101,-0.252958073429091,0.8619585093009087,2.8819908985203417,-1.3326000775617213
1772661459309841152,2.5846800804138184,-0.30211377143859863,1.6644976139068604,1.9628052711486816,0.14183367788791656,-0.7626578211784363,0.6310598850250244,-0.019748106598854065,0.03003746271133423,-0.49630945920944214,-0.34073916287021755,-0.6038429908231424,-0.6714935427425375,-0.26147079734228085,0.8674123808159512,2.92051169346884,-1.362090841858381
1772661459319878144,2.594717025756836,-0.6310858130455017,1.767730474472046,2.0084261894226074,0.11572597920894623,-0.7683205008506775,0.6295169591903687,-0.009433247148990631,0.07149720191955566,-0.5403596758842468,-0.33379902094394104,-0.6073743830341953,-0.6677236269189479,-0.27169816215081694,0.8762130730536093,2.9597895248568644,-1.390856229641314
1772661459329915136,2.6047539710998535,-0.5650397539138794,1.8015632629394531,2.0297422409057617,0.08880307525396347,-0.7742418050765991,0.6266292333602905,0.02055666595697403,0.1672622561454773,-0.4916650652885437,-0.3268734972331649,-0.6106178491588572,-0.6636719616315057,-0.2825584550020817,0.8855162692412687,3.000814588745577,-1.4207400737436833
1772661459339953152,2.6147921085357666,-0.5469318628311157,1.7419017553329468,2.119480848312378,0.06148698553442955,-0.7792220115661621,0.6237246990203857,0.050878725945949554,0.2198805809020996,-0.2496248483657837,-0.31964288406067254,-0.6140311800604619,-0.65941493488684,-0.2931997661420856,0.8934235357024746,3.0433298111420273,-1.4524517553510705
1772661459349990144,2.624829053878784,-0.3940161466598511,1.6589809656143188,2.1525137424468994,0.034119464457035065,-0.783279538154602,0.6207326650619507,0.07005229592323303,0.22229015827178955,0.050440430641174316,-0.31234285825229074,-0.6177662630459025,-0.654775677429279,-0.303439642065201,0.8999238231211073,3.0866814707651806,-1.4861189742286107
1772661459360027904,2.634866952896118,-0.18001170456409454,1.6250866651535034,2.216299533843994,0.006729549262672663,-0.7855791449546814,0.6187248826026917,-0.00033614179119467735,0.12861186265945435,0.1848641037940979,-0.3045300916365053,-0.6219308302852158,-0.6500496027896562,-0.31288831651224813,0.9036315664460589,3.130716601805267,-1.521312982551752
1772661459370065152,2.644904136657715,0.0499735102057457,1.6174647808074951,2.2319416999816895,-0.020880436524748802,-0.7857834696769714,0.6181495785713196,-0.12587864696979523,0.04107809066772461,0.09503114223480225,-0.29591328208503204,-0.6265190443172893,-0.6454058329986596,-0.321497611451758,0.9039618497437585,-3.107826556255113,-1.5574954986902527
1772661459380103168,2.654942035675049,0.15245860815048218,1.682625412940979,2.257439374923706,-0.048781681805849075,-0.7842761874198914,0.6184913516044617,-0.2503058612346649,0.024434149265289307,0.00930112600326538,-0.2865554093585701,-0.6312234601983773,-0.6409388538053473,-0.32960647083426486,0.9015285906951797,-3.0628835405306862,-1.5936330799177532
1772661459390140160,2.6649789810180664,-0.04019952565431595,1.7446712255477905,2.311211347579956,-0.0774633139371872,-0.7824565768241882,0.6178684234619141,-0.260152667760849,0.013749182224273682,-0.09144014120101929,-0.27702382005103987,-0.6357777186109246,-0.636176785282164,-0.33811782524272127,0.8986010896785868,-3.016871537405283,-1.6303684565433183
1772661459400177152,2.675016164779663,-0.17294105887413025,1.7218987941741943,2.2161383628845215,-0.10600321739912033,-0.7810584902763367,0.615395188331604,-0.16101035475730896,-0.004525125026702881,-0.21593528985977173,-0.26796232378172047,-0.639854045970949,-0.6310977572479048,-0.34712921365511196,0.8963590800716198,-2.9710142947156974,-1.666744606616107
1772661459410215168,2.685054063796997,-0.10596650838851929,1.6242400407791138,2.110908269882202,-0.13327986001968384,-0.7795172929763794,0.6120374202728271,-0.04105187952518463,-0.011223852634429932,-0.1422497034072876,-0.2593934753111897,-0.6434685312840791,-0.6260726413157276,-0.35594450246258025,0.8938948405313025,-2.9271758983098173,-1.701273109206861
1772661459420252160,2.6950910091400146,0.004485701210796833,1.5055855512619019,2.130697250366211,-0.1594148576259613,-0.7767982482910156,0.6092386245727539,0.06075151264667511,-0.031917691230773926,0.02377229928970337,-0.250878538234514,-0.6471898458212462,-0.621099532086419,-0.363924084397119,0.8895655752198499,-2.885668071678705,-1.7344330002921822
1772661459430290176,2.7051291465759277,0.2120884209871292,1.443568468093872,2.1107571125030518,-0.18494059145450592,-0.772476315498352,0.6075172424316406,0.05379132926464081,-0.044341862201690674,0.0698508620262146,-0.2420569231529957,-0.6512348173579183,-0.6161589438300495,-0.3710118540794268,0.8827314319503757,-2.84608547214623,-1.7665395255842253
1772661459440327168,2.7151660919189453,0.44024649262428284,1.442797303199768,2.0422348976135254,-0.20975269377231598,-0.7663443088531494,0.6072235703468323,-0.0522102415561676,-0.012647509574890137,0.058151304721832275,-0.23263808129302255,-0.6553247910225609,-0.6116871730130158,-0.3771840801891456,0.8731312992042395,-2.808995681372617,-1.7959664876876205
1772661459450365184,2.7252039909362793,0.5571118593215942,1.458704948425293,2.042332887649536,-0.23417310416698456,-0.7586654424667358,0.6079389452934265,-0.08887073397636414,-0.01698458194732666,0.09507930278778076,-0.22261997445145318,-0.6593759951280279,-0.6076123463445405,-0.3827151717798954,0.8612621935857872,-2.773916763606809,-1.8228822969011456
1772661459460401920,2.735240936279297,0.4035457968711853,1.4544450044631958,2.0291998386383057,-0.258614182472229,-0.7506893873214722,0.6079345345497131,-0.04955238103866577,-0.05534100532531738,0.008261144161224365,-0.21263454314426194,-0.6632984402914195,-0.6033261448984543,-0.38835469605266576,0.8491049780191803,-2.7393848853667273,-1.8492099238863835
1772661459470439168,2.7452781200408936,0.3129293620586395,1.4423317909240723,1.931877851486206,-0.2821824550628662,-0.7430409789085388,0.6068469285964966,-0.05015397071838379,-0.06189066171646118,-0.11034119129180908,-0.2031423261185094,-0.6667869950243014,-0.5990146604289129,-0.3940935603036172,0.8376028339896984,-2.7063368223973416,-1.8740098602157285
1772661459480477184,2.7553160190582275,-0.040629755705595016,1.4493297338485718,2.024029493331909,-0.30567967891693115,-0.7364272475242615,0.6035186052322388,-0.07197529077529907,-0.09889984130859375,-0.16778868436813354,-0.1944325186120846,-0.6699534314603303,-0.5940721375431536,-0.4005454323890142,0.8277739376391282,-2.6727618542288942,-1.8997464950485778
1772661459490513920,2.765352964401245,-0.22505806386470795,1.4636366367340088,1.9117729663848877,-0.329029381275177,-0.7309545278549194,0.5978673100471497,-0.06441852450370789,-0.18187206983566284,-0.20638781785964966,-0.18657130891464335,-0.67275254352345,-0.5885046153542988,-0.407746908741324,0.8197196211936033,-2.638489626750415,-1.9265813592076106
1772661459500552192,2.775391101837158,-0.23712803423404694,1.4692326784133911,1.8312772512435913,-0.3514057397842407,-0.726101815700531,0.5910079479217529,-0.12585869431495667,-0.26910698413848877,-0.13338154554367065,-0.17926157771306755,-0.6749597593062102,-0.5830379796730097,-0.41516427949328893,0.8126354392065547,-2.6051626580186347,-1.9520869473955904
1772661459510589184,2.785428047180176,-0.09989263117313385,1.433855414390564,1.838260293006897,-0.37327346205711365,-0.720429003238678,0.5845072865486145,-0.11326822638511658,-0.27857911586761475,0.013759195804595947,-0.17175790615377082,-0.6771052236376037,-0.5777388226549568,-0.42219132079313204,0.8044206731864074,-2.573264608063487,-1.976064175210217
1772661459520626176,2.7954649925231934,0.03824339807033539,1.4252369403839111,1.8760894536972046,-0.3949359357357025,-0.7134548425674438,0.5787984728813171,-0.0656505823135376,-0.21305876970291138,0.1506478190422058,-0.16377759134857964,-0.6793760170221758,-0.572579658869401,-0.428692917094672,0.79441643800994,-2.542819293675878,-1.99853177627624
1772661459530664192,2.8055031299591064,0.08008366078138351,1.4180984497070312,1.9099862575531006,-0.416700541973114,-0.7053457498550415,0.5734531283378601,-0.02910032868385315,-0.12558704614639282,0.11017131805419922,-0.15537028312786896,-0.6817786576818606,-0.567366218031468,-0.4348949927649685,0.7829107670906682,-2.513202833010538,-2.0201389022955416
1772661459540701184,2.815540075302124,0.11843904107809067,1.4123097658157349,1.8065879344940186,-0.43790873885154724,-0.6967776417732239,0.5680989623069763,-0.001712113618850708,-0.07340961694717407,-0.029250264167785645,-0.14692212841712915,-0.6840271322008576,-0.5622778462242831,-0.4408676488260274,0.7708952490490686,-2.484891969038502,-2.040273143164668
1772661459550738944,2.825577974319458,-0.0036729376297444105,1.4478304386138916,1.811725378036499,-0.4585234820842743,-0.6882795691490173,0.5621632933616638,0.001644819974899292,-0.13255172967910767,-0.028273463249206543,-0.13865039649586916,-0.6859439009999235,-0.5572814393848236,-0.4468718703020754,0.7591148488730414,-2.4573869435784976,-2.0592558009905466
1772661459560776192,2.8356151580810547,-0.24559688568115234,1.4757763147354126,1.848540186882019,-0.4793100357055664,-0.6803412437438965,0.5544348359107971,0.01043790578842163,-0.2139917016029358,-0.07186037302017212,-0.130870105433413,-0.6876656122465286,-0.5516642440026283,-0.4534927624583901,0.7482281206457311,-2.428739456634223,-2.079696591008172
1772661459570814208,2.8456530570983887,-0.4817897081375122,1.4903182983398438,1.8234537839889526,-0.49997276067733765,-0.6733431816101074,0.5446432828903198,-0.011913836002349854,-0.22013521194458008,-0.12162387371063232,-0.12384591008812847,-0.6890868925556046,-0.5454180903173892,-0.4608042677347608,0.7387213990469602,-2.3989310694853914,-2.101747528231758
1772661459580851200,2.8556900024414062,-0.5094255805015564,1.4723752737045288,1.775814414024353,-0.5201589465141296,-0.6668827533721924,0.5335748791694641,-0.015180408954620361,-0.21963763236999512,-0.061986684799194336,-0.11736677466281628,-0.6902157787428786,-0.5388780976924611,-0.46844169078134806,0.7300175785163199,-2.3689256012297655,-2.124237653030582
1772661459590887936,2.865726947784424,-0.33613547682762146,1.4327938556671143,1.7226999998092651,-0.539444088935852,-0.659889280796051,0.523016631603241,0.0038453340530395508,-0.24640649557113647,0.04935586452484131,-0.11082829499153966,-0.6912223649737945,-0.5326536832718113,-0.47561416106950594,0.7206713681616919,-2.340733989667277,-2.144808694078104
1772661459600926208,2.875765085220337,-0.1908768266439438,1.4173626899719238,1.8380848169326782,-0.5585415363311768,-0.6514737010002136,0.5134333968162537,0.016778111457824707,-0.23329198360443115,0.1831457018852234,-0.10368296131396167,-0.6923713151407284,-0.5266295276092723,-0.48221706535022013,0.7095253052933505,-2.314139849866213,-2.1635390001165917
1772661459610963200,2.8858020305633545,-0.029536893591284752,1.3739519119262695,1.8276768922805786,-0.5776680707931519,-0.6415091156959534,0.5047436356544495,0.042191267013549805,-0.1400613784790039,0.10116773843765259,-0.0959086106886405,-0.6937764296505974,-0.5206208614132947,-0.48829282092198106,0.696463923886331,-2.2889239801111634,-2.180884766060621
1772661459621001216,2.8958401679992676,0.09935957193374634,1.3762177228927612,1.6967045068740845,-0.5957868695259094,-0.6309729218482971,0.4969014823436737,0.0123823881149292,-0.0891503095626831,0.04722687602043152,-0.08786564624984497,-0.6949626121557014,-0.5152452939984024,-0.4937902972245861,0.6828066664627305,-2.265943005209452,-2.1952917810751185
1772661459631038208,2.905877113342285,0.07674667239189148,1.3620489835739136,1.7477577924728394,-0.6133054494857788,-0.6201164722442627,0.4891951084136963,0.013970792293548584,-0.13954228162765503,0.13099834322929382,-0.079745181021002,-0.6959930304415647,-0.5100894516160637,-0.4990421898924706,0.6688911876802716,-2.2440947518097865,-2.208245283108806
1772661459641075968,2.915915012359619,0.027150355279445648,1.3633613586425781,1.821165680885315,-0.630983293056488,-0.6086878180503845,0.4809982478618622,0.05117982625961304,-0.17750602960586548,0.08745265007019043,-0.07159305081952548,-0.697142581050294,-0.50447135918062,-0.5043563548744483,0.6544056656907625,-2.2221227671571366,-2.2217550766807057
1772661459651112960,2.9259519577026367,-0.14108392596244812,1.4037641286849976,1.8591253757476807,-0.6487146019935608,-0.597088098526001,0.47186368703842163,0.0012230873107910156,-0.1679113507270813,-0.08042997121810913,-0.06359180526920805,-0.6982404133139585,-0.4983895765710504,-0.509925774820937,0.6398662039589443,-2.1996644625969117,-2.236015058107719
1772661459661150208,2.9359891414642334,-0.28528985381126404,1.4109728336334229,1.8093806505203247,-0.666284441947937,-0.5859719514846802,0.4611962139606476,-0.04445469379425049,-0.13955295085906982,-0.1416161060333252,-0.0561386684893702,-0.6991316784000385,-0.49174485224446934,-0.5159945163268392,0.6260789704428263,-2.1762622305007264,-2.251653958371839
1772661459671188224,2.9460270404815674,-0.25926733016967773,1.4070348739624023,1.7044007778167725,-0.6829012632369995,-0.5753945112228394,0.45007485151290894,-0.06300944089889526,-0.15547096729278564,-0.046357691287994385,-0.04909147408025895,-0.6996701314604502,-0.48528252282558176,-0.522065844404436,0.6130864576547239,-2.153516229678185,-2.266474739278625
1772661459681224960,2.956063985824585,-0.2603626847267151,1.3784221410751343,1.7462875843048096,-0.6989998817443848,-0.5645938515663147,0.4389001131057739,-0.08516460657119751,-0.19361543655395508,0.07921212911605835,-0.04208124351256041,-0.700102478638972,-0.47885966033719995,-0.5279955038207389,0.599941101048173,-2.1314763389629436,-2.280543920322545
1772661459691263232,2.966102123260498,-0.20125335454940796,1.295019507408142,1.6876676082611084,-0.7145189642906189,-0.5533782243728638,0.428059846162796,-0.0796552300453186,-0.13491523265838623,0.13508105278015137,-0.03512061527905809,-0.7006107448547559,-0.472413496205822,-0.533607186190889,0.5864146422200375,-2.110545097809915,-2.293935010458809
1772661459701300224,2.9761390686035156,-0.09922125190496445,1.2373982667922974,1.5814216136932373,-0.7288446426391602,-0.5422161817550659,0.4180753529071808,-0.12764638662338257,-0.0789995789527893,0.2313844859600067,-0.02829066674182011,-0.7010256803779858,-0.46647686575848873,-0.5386667926040182,0.573072409223958,-2.0915882225626015,-2.3053863366391325
1772661459711337984,2.9861769676208496,-0.049510423094034195,1.1924281120300293,1.555694580078125,-0.7423242926597595,-0.5309403538703918,0.4087262451648712,-0.16323906183242798,-0.11024922132492065,0.29259824752807617,-0.021450519676113854,-0.7013586477823314,-0.46093293360661686,-0.5433017622253534,0.5597098743642723,-2.0741026553197557,-2.3152216223503608
1772661459721375232,2.9962141513824463,-0.08912574499845505,1.1464213132858276,1.502944827079773,-0.7551601529121399,-0.5196707844734192,0.399594247341156,-0.16946148872375488,-0.1275917887687683,0.15944194793701172,-0.01478584678182029,-0.7016773632989857,-0.45546240420644585,-0.5477082197302335,0.54646558274201,-2.0574923886636025,-2.3244841427844536
1772661459731412224,3.006251096725464,-0.21558447182178497,1.114569902420044,1.419173240661621,-0.7671853303909302,-0.5090836882591248,0.3902059495449066,-0.21284103393554688,-0.09957420825958252,-0.030907094478607178,-0.008697894049775596,-0.7018693705390161,-0.44998039683685803,-0.5521063831259049,0.5341198418429882,-2.0413162625230714,-2.3338745294098477
1772661459741449984,3.016288995742798,-0.43325474858283997,1.091706395149231,1.353896975517273,-0.7784529328346252,-0.4995999336242676,0.3800145983695984,-0.27545636892318726,-0.08984705805778503,-0.1659337282180786,-0.0035174101528831405,-0.7019000057368527,-0.44423381766868675,-0.556758830904605,0.5231368903949315,-2.0249323521998943,-2.3444310589555744
1772661459751486976,3.0263259410858154,-0.5626649260520935,1.0756163597106934,1.3144391775131226,-0.7891476154327393,-0.4910295605659485,0.3689662516117096,-0.32077670097351074,-0.11431711912155151,-0.2108393907546997,0.0008412149607567237,-0.7017970977556017,-0.4381369232197477,-0.561708277437752,0.5132711962295178,-2.0081489113074,-2.356323740142332
1772661459761525248,3.0363640785217285,-0.6550484299659729,1.036913514137268,1.2974812984466553,-0.7993850111961365,-0.48284512758255005,0.3575528562068939,-0.33443450927734375,-0.16067901253700256,-0.1965269148349762,0.004700237437053396,-0.7016594706618152,-0.43179905303435395,-0.5667463488557926,0.5039007826557814,-1.9913901112203138,-2.3689330089643867
1772661459771561984,3.046401023864746,-0.7219237685203552,0.9707745909690857,1.2861154079437256,-0.8091357946395874,-0.47488611936569214,0.3460959792137146,-0.3089671730995178,-0.17051485180854797,-0.1251029074192047,0.008098397457891201,-0.7015851257743837,-0.4252367521914048,-0.571739815340156,0.4948346409070563,-1.9749815520461236,-2.3821309935420483
1772661459781600256,3.056439161300659,-0.7438644766807556,0.8877929449081421,1.249111294746399,-0.818320631980896,-0.4670279622077942,0.33501675724983215,-0.28487449884414673,-0.14803853631019592,-0.05744412541389465,0.01113027395512284,-0.7016337579378983,-0.4185910345851085,-0.5765134266769368,0.4859266594485165,-1.9593759259222119,-2.3954579245518817
1772661459791637248,3.0664761066436768,-0.6976816058158875,0.8349135518074036,1.1709388494491577,-0.8268147110939026,-0.4594186246395111,0.3245178759098053,-0.30070286989212036,-0.136391282081604,0.008978217840194702,0.013898409415937457,-0.7016986033136152,-0.4121626017782685,-0.5809886708667644,0.47734053734159193,-1.9448132981811563,-2.408186994345401
1772661459801674240,3.0765130519866943,-0.616426408290863,0.754629373550415,1.1046810150146484,-0.8345720767974854,-0.45205962657928467,0.3148517608642578,-0.30654120445251465,-0.12209808826446533,0.09481620788574219,0.016534718895359797,-0.7017517459966696,-0.4061654356814982,-0.585064745839956,0.46907301342848046,-1.9315480331703099,-2.419743107206485
1772661459811712000,3.0865509510040283,-0.5320254564285278,0.6299119591712952,1.0217293500900269,-0.8415415287017822,-0.4448784589767456,0.3064166009426117,-0.24731051921844482,-0.09093397855758667,0.1493786871433258,0.019065359052496355,-0.7019112595965086,-0.40066056790285137,-0.5885815609902894,0.46103855211168726,-1.9199886614343178,-2.4299381957240396
1772661459821749248,3.096588134765625,-0.4825766682624817,0.5072094798088074,0.9088448882102966,-0.8475596904754639,-0.4381926357746124,0.2993823289871216,-0.18584179878234863,-0.05497142672538757,0.15908324718475342,0.021299356380054243,-0.7022176634735184,-0.39570382105379714,-0.5914855817561055,0.4535870093113611,-1.9103444920115717,-2.438881441012508
1772661459831787008,3.106626033782959,-0.46638986468315125,0.4096316397190094,0.7818223237991333,-0.8526181578636169,-0.43239885568618774,0.2933833599090576,-0.1763584017753601,-0.039799660444259644,0.15185287594795227,0.023047420827956525,-0.702569336270124,-0.3912646230604515,-0.5939505558415006,0.4471515100067102,-1.9022026988351997,-2.446975741594351
1772661459841824000,3.1166629791259766,-0.4376729726791382,0.3158358931541443,0.6813018321990967,-0.8568361401557922,-0.42745766043663025,0.28829169273376465,-0.1710265874862671,-0.015154063701629639,0.11164119839668274,0.024330394717523875,-0.702966691556863,-0.3872772682236973,-0.5960388349658121,0.441678698395996,-1.8953588921409852,-2.4544040875835766
1772661459851862272,3.1267011165618896,-0.3902985751628876,0.2150537669658661,0.5897278785705566,-0.8603103160858154,-0.42317861318588257,0.2842286229133606,-0.1358749270439148,0.033347100019454956,0.03448161482810974,0.025281906969681175,-0.7034503542809852,-0.3837602241523239,-0.5977010033459789,0.4369506772154774,-1.8898857854334667,-2.460997745402648
1772661459861899264,3.1367380619049072,-0.3640081286430359,0.14685660600662231,0.4927675127983093,-0.8631146550178528,-0.4195541441440582,0.28108277916908264,-0.11042660474777222,0.03477326035499573,-0.023514389991760254,0.02593795066441683,-0.7039925201657239,-0.3807045099730695,-0.5989873613485348,0.43295407572032163,-1.8856259720293134,-2.4667887931187993
1772661459871936000,3.146775007247925,-0.37750566005706787,0.08076414465904236,0.42037585377693176,-0.8653398752212524,-0.41665685176849365,0.2785390019416809,-0.09088265895843506,-0.0006862878799438477,-0.020100951194763184,0.02621345020920438,-0.7045608383626428,-0.3779729143826913,-0.6000361198161966,0.4297646446925936,-1.8822072766656601,-2.4722212732659288
1772661459881974272,3.156813144683838,-0.35423150658607483,0.013392823748290539,0.36586788296699524,-0.8671104311943054,-0.4142729640007019,0.2765819728374481,-0.06630027294158936,0.0019194483757019043,0.014769315719604492,0.0261855900945125,-0.7052038131596858,-0.37547112135110433,-0.6008522119723678,0.42714383738577444,-1.8795644109781429,-2.477406971431363
1772661459892011264,3.1668500900268555,-0.2981361448764801,-0.027985908091068268,0.31761792302131653,-0.8685070872306824,-0.4122140407562256,0.2752731740474701,-0.05155223608016968,0.018445700407028198,0.025981098413467407,0.026040558107438626,-0.7059048823160401,-0.373275872305934,-0.6014028751868346,0.4248828508188472,-1.8777299703863255,-2.481990900002868
1772661459902049024,3.1768879890441895,-0.2547692060470581,-0.04707065224647522,0.2703508138656616,-0.8696164488792419,-0.41042646765708923,0.27443960309028625,-0.05141913890838623,0.012187391519546509,0.029805362224578857,0.025873474233860834,-0.7065961246870615,-0.3714050580241986,-0.6017563108331819,0.4229217010944594,-1.8764910322048551,-2.4858769281188176
1772661459912086272,3.186925172805786,-0.20007294416427612,-0.06186637282371521,0.23801632225513458,-0.8705047965049744,-0.4088563323020935,0.27396702766418457,-0.044839441776275635,-0.0015593171119689941,0.04182887077331543,0.025723144902352835,-0.7072560873359972,-0.3698274426474116,-0.6019591480087981,0.4212005007675537,-1.8757042375790056,-2.48911047711255
1772661459922123264,3.1969621181488037,-0.12863337993621826,-0.08245927095413208,0.21090267598628998,-0.8712441325187683,-0.4073393642902374,0.2738765776157379,-0.023653388023376465,-0.0019013583660125732,0.06311380863189697,0.02568666973487425,-0.70790201568417,-0.36852818336823645,-0.6019982717309665,0.41953888244137855,-1.8753667471872861,-2.49160971943969
1772661459932161024,3.2070000171661377,-0.04559646174311638,-0.08656133711338043,0.17982783913612366,-0.8718213438987732,-0.4058624804019928,0.27423205971717834,-0.005086004734039307,-0.0012572705745697021,0.08866775035858154,0.025825722243891455,-0.7085175547078938,-0.367585225592082,-0.6018446962227482,0.4179223353455377,-1.8755483810182343,-2.493149310988084
1772661459942198016,3.2170369625091553,0.009336560033261776,-0.09990484267473221,0.1583864688873291,-0.8722600340843201,-0.40442946553230286,0.2749531865119934,0.005286157131195068,-0.0061082541942596436,0.12748217582702637,0.02609370479258219,-0.7091135833014204,-0.3669257616539674,-0.6015334982042847,0.4163549239824506,-1.8761566155404594,-2.4939369009205774
1772661459952236288,3.2270750999450684,0.07905847579240799,-0.10247106105089188,0.12189583480358124,-0.8725494742393494,-0.40308117866516113,0.2760121822357178,0.007818818092346191,-0.0053202807903289795,0.16788119077682495,0.026488045688535706,-0.7096690381425207,-0.3665732482924366,-0.6010758634030776,0.41488115618466,-1.877165178721123,-2.4939388233580435
1772661459962273024,3.237112045288086,0.12033933401107788,-0.09304746240377426,0.09210997819900513,-0.8727109432220459,-0.40186941623687744,0.2772667407989502,-0.007309317588806152,-0.021638303995132446,0.1976478397846222,0.02698925195986455,-0.7101434310522535,-0.36651013167962543,-0.6005316876279426,0.41355745606938343,-1.8784182622432772,-2.4932407289641487
1772661459972311040,3.24714994430542,0.157085582613945,-0.09098737686872482,0.07587361335754395,-0.8728030920028687,-0.4007309079170227,0.2786211371421814,-0.013213872909545898,-0.03769993782043457,0.22531560063362122,0.027573771942693417,-0.7105566893344043,-0.366633010273209,-0.599941004142506,0.41231445839876757,-1.879796701797369,-2.4920820319219774
1772661459982348288,3.2571871280670166,0.18840835988521576,-0.0812375396490097,0.06333758682012558,-0.8728419542312622,-0.39964428544044495,0.2800563871860504,-0.014609336853027344,-0.05883657932281494,0.22992292046546936,0.028241601226307627,-0.7109133551700495,-0.36692014810603923,-0.599311535904726,0.4111287697468159,-1.8812753610061943,-2.4905077406398783
1772661459992385024,3.267224073410034,0.21853579580783844,-0.06594700366258621,0.059613682329654694,-0.8728907704353333,-0.3985275626182556,0.28149136900901794,-0.014636635780334473,-0.09282070398330688,0.22851833701133728,0.029026032349916717,-0.7112096500294902,-0.3673234536752645,-0.5986750016711505,0.40991083341391504,-1.8827489041575314,-2.488587325500311
1772661460002423040,3.277261972427368,0.2036319524049759,-0.07346990704536438,0.07606004178524017,-0.8729686737060547,-0.397335946559906,0.28293049335479736,-0.0006121397018432617,-0.1205320656299591,0.21510109305381775,0.029860908765014026,-0.7115056810572224,-0.3677294022370152,-0.5980326336294426,0.4086119701287355,-1.8842153794245602,-2.4866068843412434
1772661460012460288,3.287299156188965,0.1866697520017624,-0.06246492639183998,0.08397121727466583,-0.8730869889259338,-0.3960796892642975,0.28432342410087585,-0.0015161633491516113,-0.13538387417793274,0.22202417254447937,0.030665536756696456,-0.7118360160916584,-0.36803694426726424,-0.597409277074431,0.40724342303196326,-1.8856187471319839,-2.4848558241495247
1772661460022498048,3.297337055206299,0.18354879319667816,-0.03150540962815285,0.10023940354585648,-0.873309850692749,-0.39476561546325684,0.28546443581581116,-0.0534936785697937,-0.15537473559379578,0.23339542746543884,0.031499084811451666,-0.7121180322163668,-0.3682663884657555,-0.5968882358924181,0.4058127355130745,-1.886724496696775,-2.4832716834115183
1772661460032535040,3.3073740005493164,0.2037336528301239,-0.012431982904672623,0.12196001410484314,-0.873697817325592,-0.39324986934661865,0.28636786341667175,-0.07555139064788818,-0.15910300612449646,0.23307177424430847,0.03248347967191523,-0.7123404547001556,-0.36844945992715,-0.5964569139887917,0.4041635748800562,-1.8875273373242347,-2.481656090973151
1772661460042573312,3.3174121379852295,0.22225859761238098,-0.03323792666196823,0.149484321475029,-0.8741807341575623,-0.39144521951675415,0.2873646318912506,-0.030894219875335693,-0.14012518525123596,0.2203105390071869,0.03361584108257726,-0.7126116239727638,-0.3686014036034766,-0.5959761434200229,0.4022016032121652,-1.8883932260926666,-2.4799176213342107
1772661460052610048,3.327449083328247,0.19777265191078186,-0.05521553009748459,0.17073488235473633,-0.8746791481971741,-0.38942718505859375,0.28858721256256104,0.0292508602142334,-0.12807458639144897,0.21753153204917908,0.03477287603117152,-0.7130032835910152,-0.3686731852127749,-0.5953966365452149,0.4000096161376384,-1.8894851958291676,-2.478259609016447
1772661460062647040,3.3374860286712646,0.16516543924808502,-0.06399384140968323,0.17830012738704681,-0.8751946091651917,-0.3873501121997833,0.28981783986091614,0.05504995584487915,-0.13878819346427917,0.21395111083984375,0.03584001078171517,-0.713475353559615,-0.3685944038170083,-0.5948164584536167,0.3977555708279355,-1.890577641264173,-2.4769847921902772
1772661460072685312,3.3475241661071777,0.12133397907018661,-0.07990862429141998,0.1951126605272293,-0.8757115602493286,-0.3853069245815277,0.29097700119018555,0.06556153297424316,-0.14275392889976501,0.18424269556999207,0.03677618797147994,-0.7139975049232101,-0.36836946115081826,-0.5942717650756857,0.39554040749092223,-1.8915940110138623,-2.4761451612670298
1772661460082722304,3.3575611114501953,0.10157598555088043,-0.10312633216381073,0.19495899975299835,-0.8762093186378479,-0.38325875997543335,0.29218176007270813,0.08794021606445312,-0.11883169412612915,0.14072537422180176,0.03759195907983901,-0.7146043154109701,-0.3680102607744667,-0.5937137642956566,0.39332189447220384,-1.8926619137954555,-2.4756843224875196
1772661460092760064,3.3675990104675293,0.08029546588659286,-0.1222265213727951,0.18882787227630615,-0.8766096234321594,-0.38131284713745117,0.2935240864753723,0.10048645734786987,-0.09573796391487122,0.09981706738471985,0.03826853027233652,-0.7152814764048314,-0.3676063788347679,-0.5931050413185013,0.39121603047287473,-1.8939023891543434,-2.475436640700175
1772661460102797056,3.377635955810547,0.08398101478815079,-0.13065382838249207,0.1699226200580597,-0.8769168257713318,-0.37950265407562256,0.2949487566947937,0.09337800741195679,-0.08872854709625244,0.07561099529266357,0.03885844274606452,-0.715970999718672,-0.3672327729132937,-0.5924657753146286,0.3892586861768713,-1.8952571591111103,-2.475213942265613
1772661460112835072,3.38767409324646,0.08784748613834381,-0.14844028651714325,0.13585306704044342,-0.8770813345909119,-0.3779070973396301,0.29650333523750305,0.09682333469390869,-0.0983654260635376,0.07459041476249695,0.0393639574826658,-0.7166485101989803,-0.36696944703811946,-0.5917758910228605,0.387534717535876,-1.8967919666538775,-2.4748545860766904
1772661460122872064,3.3977110385894775,0.07640361040830612,-0.1738939881324768,0.10617426037788391,-0.8770560622215271,-0.3766111135482788,0.2982224225997925,0.12285995483398438,-0.1009889543056488,0.08832845091819763,0.03971827804327807,-0.7173273627424352,-0.36681421791049734,-0.5910255369120803,0.3861353390127308,-1.898558727258602,-2.474430411421583
