time,seconds_elapsed,rotationRateX,rotationRateY,rotationRateZ,gravityX,gravityY,gravityZ,accelerationX,accelerationY,accelerationZ,quaternionW,quaternionX,quaternionY,quaternionZ,pitch,roll,yaw
1773063392356640256,0.028235435485839844,-0.14376726746559143,0.013189524412155151,-0.1656581163406372,-0.10523240268230438,-0.2580145001411438,0.9603928327560425,0.050514400005340576,-0.07215514779090881,0.08030223846435547,-0.024699413537197654,0.2071888731381726,0.9681266453058465,0.13854044948636793,0.26096656862002815,-3.0324557894372575,-0.43599546853087534
1773063392366695168,0.03829026222229004,-0.19052396714687347,-0.00778623903170228,-0.12674155831336975,-0.10486852377653122,-0.25980788469314575,0.9599491953849792,0.033991456031799316,-0.08833661675453186,0.03809767961502075,-0.024435787300536423,0.2064510872042082,0.9681696896071992,0.13938542451901179,0.2628232629051596,-3.032780322940667,-0.4345798779517548
1773063392376751104,0.04834628105163574,-0.15601764619350433,-0.07521587610244751,-0.07382054626941681,-0.10412758588790894,-0.2616804540157318,0.9595213532447815,0.03755347430706024,-0.034218043088912964,0.018551945686340332,-0.023937278970155067,0.2059996259661992,0.9681553725435295,0.14023709552433014,0.26476291713368016,-3.033495324288954,-0.43370581478886633
1773063392386806272,0.05840134620666504,-0.1672177016735077,-0.16182702779769897,0.014298733323812485,-0.10288137942552567,-0.2633442282676697,0.9592005014419556,0.05924122780561447,0.01981392502784729,0.019467830657958984,-0.023155983709813126,0.205931639568053,0.968086985504615,0.14093843487042718,0.2664871649440692,-3.034743711812319,-0.4335273330769911
1773063392396862208,0.06845736503601074,-0.8616436123847961,-0.2735184133052826,0.36756837368011475,-0.1012563705444336,-0.2674683928489685,0.9582315683364868,0.07212734967470169,0.040478676557540894,0.004216492176055908,-0.021784417863258174,0.2068328235474866,0.9676445455352235,0.1428622996090964,0.27076473156296704,-3.036313304813886,-0.435513489833437
1773063392406917376,0.07851243019104004,-0.9765191078186035,-0.6110634803771973,0.35773998498916626,-0.0973898321390152,-0.2760814428329468,0.95618736743927,0.0974661260843277,0.0032390356063842773,0.04904639720916748,-0.01858010139536424,0.20931876953045989,0.9665812593772688,0.14683698854039187,0.2797146859387683,-3.040090431157562,-0.44082662704514197
1773063392416973312,0.08856844902038574,-1.2282451391220093,-0.32379549741744995,0.12445265799760818,-0.09313789010047913,-0.2865036129951477,0.9535414576530457,0.10192693024873734,-0.07908177375793457,0.04310178756713867,-0.0151166796139125,0.2108180652461793,0.9655705417149938,0.15166026098333515,0.2905754742602694,-3.0442257541340028,-0.44418132888626155
1773063392427028224,0.09862327575683594,-1.1411824226379395,-0.20948854088783264,0.11261308193206787,-0.0918700098991394,-0.2977612316608429,0.9502096772193909,-0.020404160022735596,-0.09748721122741699,-0.039961814880371094,-0.0131308674665561,0.21159289709614504,0.9645378649778019,0.1572348964199996,0.302346644461381,-3.045208300327539,-0.446596935758876
1773063392437084160,0.10867929458618164,-1.0604074001312256,-0.39348554611206055,0.13817037642002106,-0.08915294706821442,-0.3082003891468048,0.9471350312232971,-0.0008433908224105835,-0.03487825393676758,-0.06043136119842529,-0.010472503147012584,0.2125565882097249,0.963528518920906,0.16224346005581186,0.31330076944451835,-3.0477401131375568,-0.44908357867182574
1773063392447140096,0.11873531341552734,-0.832821249961853,-0.21816860139369965,0.13082946836948395,-0.08635974675416946,-0.3170650601387024,0.9444639682769775,0.06141161173582077,0.03729507327079773,-0.023488998413085938,-0.00794477936420659,0.21347160313144584,0.9626327765857732,0.16644822443542873,0.3226332732260719,-3.0504083734678487,-0.45130176907148933
1773063392457195264,0.12879037857055664,-0.8383179903030396,0.1790594458580017,0.11289973556995392,-0.08642182499170303,-0.324973464012146,0.9417659044265747,0.03556429594755173,0.11449381709098816,-0.09311807155609131,-0.0069848751362028795,0.21404194844887534,0.9618050658382068,0.1704937911997972,0.33098367700885445,-3.050083225724645,-0.45324132188711863
1773063392467251200,0.13884639739990234,-0.4128631055355072,-0.4124414324760437,0.013839995488524437,-0.08523496985435486,-0.33094868063926697,0.9397916197776794,0.07307371497154236,0.11990433931350708,-0.10621905326843262,-0.0056329953644240534,0.2145332658954745,0.9611822289111519,0.17341436975519947,0.3373087416201363,-3.0511445015732406,-0.45460687888067647
1773063392477306368,0.14890146255493164,-0.06280428171157837,-0.41568922996520996,0.1919689178466797,-0.08120658993721008,-0.3329249620437622,0.9394503235816956,0.19258049130439758,0.04074963927268982,-0.11790168285369873,-0.0032712217438172733,0.21532871366515802,0.9609155591758094,0.17396623839177144,0.33940379148491295,-3.0553664531830584,-0.4556743918898969
1773063392487362304,0.15895748138427734,0.15354293584823608,-0.29790589213371277,0.3882952928543091,-0.07903652638196945,-0.332255095243454,0.9398722648620605,0.15056973695755005,-0.0021565258502960205,-0.25270795822143555,-0.0019464810019754013,0.217145971118005,0.9606163418193181,0.1733785026129238,0.3386935063044112,-3.0576971982819536,-0.45897756329983913
1773063392497417216,0.16901230812072754,0.3219982087612152,-0.28763091564178467,0.17751313745975494,-0.0772881805896759,-0.3297174274921417,0.9409104585647583,0.2077813595533371,-0.023706555366516113,-0.1753619909286499,-0.0010698111840134787,0.21885063053317325,0.9604996799667994,0.1718822498606987,0.33600425665079264,-3.059634743192669,-0.46196007882526363
1773063392507473152,0.17906832695007324,0.3981625735759735,-0.19759441912174225,0.014726423658430576,-0.07518943399190903,-0.32620835304260254,0.9423027038574219,0.20435509085655212,-0.10837715864181519,-0.0548822283744812,-0.00033755433787923165,0.21943349889398955,0.9607290458206444,0.16984835983245872,0.33228973561965436,-3.0619680645245317,-0.4624615309876838
1773063392517528320,0.18912339210510254,0.4104253649711609,-0.13529722392559052,0.06694462150335312,-0.07383116334676743,-0.3223129212856293,0.9437498450279236,0.20792540907859802,-0.14459079504013062,0.008551359176635742,-5.5756297830702517e-05,0.21980176591452624,0.9610213843920257,0.16770565138220572,0.32817179011114567,-3.063519958802338,-0.46263198659538607
1773063392527584256,0.19917941093444824,0.33813509345054626,-0.1128695160150528,0.12305310368537903,-0.07292357832193375,-0.31859827041625977,0.9450807571411133,0.15324583649635315,-0.22711709141731262,0.03921806812286377,5.1485708780064695e-05,0.2203327660843462,0.9612459855340918,0.16570970569122478,0.32425032559001177,-3.064584033344185,-0.4632486035390605
1773063392537639424,0.20923447608947754,0.12984232604503632,-0.11373450607061386,0.2643308639526367,-0.07242879271507263,-0.31619906425476074,0.9459238648414612,0.09652243554592133,-0.2723323702812195,0.019560635089874268,0.00018917071430456123,0.2213448766656778,0.9612327394163027,0.16443224444234295,0.32172029309881256,-3.065172397100401,-0.46505915971898487
1773063392547695104,0.21929025650024414,-0.13109828531742096,-0.10112907737493515,0.4676338732242584,-0.0725952610373497,-0.31593021750450134,0.9460011124610901,0.0841766744852066,-0.24357908964157104,0.025724411010742188,0.00038636829008402635,0.22316243754366474,0.9608324923976266,0.16431468421746492,0.32143693072151847,-3.065003673071998,-0.4688488107777782
1773063392557750272,0.22934532165527344,-0.35224422812461853,-0.1528652310371399,0.7224501967430115,-0.07325960695743561,-0.3178735673427582,0.9452986717224121,0.1118338331580162,-0.19651547074317932,0.03750467300415039,0.000802227727177673,0.22614727874420198,0.9599514270241414,0.16537853162735983,0.3234858743407583,-3.064248347975592,-0.4753531465513063
1773063392567806208,0.23940134048461914,-0.439715176820755,-0.2338722199201584,0.9471514225006104,-0.07402496784925461,-0.32107746601104736,0.9441555738449097,0.1305587887763977,-0.16451823711395264,0.06051361560821533,0.0015376933478869327,0.23033118728937543,0.9586580956404304,0.1670924721746041,0.32686696576807944,-3.0633493552313666,-0.4844985828635793
1773063392577861376,0.24945640563964844,-0.4614100754261017,-0.24558933079242706,1.1759204864501953,-0.07520275563001633,-0.3246220350265503,0.9428495168685913,0.16071301698684692,-0.09601700305938721,0.01918661594390869,0.0023300352923729885,0.2356515200499353,0.957023048195061,0.16902617775880818,0.33061210874421315,-3.062000008208576,-0.49614709396425666
1773063392587917312,0.25951242446899414,-0.37520360946655273,-0.2727222740650177,1.2977889776229858,-0.0768139511346817,-0.327695369720459,0.9416559934616089,0.1962902694940567,-0.014727145433425903,-0.023687005043029785,0.003031304075839829,0.24185714198759084,0.9551613029388978,0.1707717211377278,0.33386321310986283,-3.0601996055177536,-0.5097187193929055
1773063392597972224,0.26956725120544434,-0.2956145107746124,-0.2821969985961914,1.3732023239135742,-0.07854989171028137,-0.32980674505233765,0.9407749772071838,0.20171883702278137,0.011645734310150146,-0.06478309631347656,0.0036433319162475393,0.2484700999697549,0.9532313939720796,0.17204438275816614,0.3360988449685063,-3.0582909905789384,-0.5241139530581451
1773063392608028160,0.27962327003479004,-0.27234718203544617,-0.15675826370716095,1.3659679889678955,-0.08053788542747498,-0.33137989044189453,0.9400536417961121,0.22329913079738617,0.027043402194976807,-0.07895451784133911,0.004145635855787149,0.2554471693149445,0.9511958559495353,0.17307787464784555,0.3377657332669223,-3.0561276384353495,-0.539307610350568
1773063392618084096,0.28967928886413574,-0.32682347297668457,-0.5144956707954407,1.7896217107772827,-0.08152410387992859,-0.332307904958725,0.9396408200263977,0.3146021366119385,-0.05320534110069275,-0.1485338807106018,0.0049398838413831575,0.26174074921662843,0.9493746273319241,0.173652188047626,0.3387494824294333,-3.055048445579067,-0.5528392779996357
1773063392628139264,0.29973435401916504,-0.584083616733551,-0.9096265435218811,2.200869560241699,-0.08260936290025711,-0.3345028758049011,0.93876713514328,0.461134135723114,0.10975614190101624,-0.13035643100738525,0.006621701398324129,0.27206343771990443,0.9462373147471836,0.17485033229826438,0.3410776560057608,-3.0538210288604963,-0.5750638447585291
1773063392638195200,0.30979037284851074,-0.9301134347915649,-1.0458635091781616,2.460883617401123,-0.08080752938985825,-0.33969005942344666,0.9370596408843994,0.39727482199668884,0.039244502782821655,-0.14000153541564941,0.010495245823999948,0.28400134909775643,0.9422701536443394,0.17708760998208503,0.3465873502257926,-3.0555702646566516,-0.6005507642462181
1773063392648250368,0.31984543800354004,-1.2378352880477905,-1.0794041156768799,2.5358991622924805,-0.07992704212665558,-0.3480636477470398,0.9340577125549316,0.4169173836708069,0.022883504629135132,-0.25742173194885254,0.014648284534082174,0.2966883663566092,0.9375525924606212,0.18098807866820268,0.3555047904638594,-3.056230889403944,-0.6283026734105365
1773063392658306304,0.32990145683288574,-1.7918797731399536,-1.303686261177063,2.506528615951538,-0.0776873528957367,-0.3600960373878479,0.9296748042106628,0.5880481004714966,-0.006343722343444824,-0.2570369839668274,0.0202289186077904,0.3095201030958292,0.9322203056675915,0.18642241419358235,0.3683708308952953,-3.058222341020818,-0.6566847839759983
1773063392668361216,0.33995628356933594,-2.564636468887329,-1.4902443885803223,2.527120351791382,-0.07411124557256699,-0.3783356547355652,0.9226968884468079,0.6307060718536377,0.03209853172302246,-0.20739543437957764,0.02773223214855244,0.32232453332913824,0.9259888459133012,0.19463414531682197,0.38799763944027693,-3.0614444630423074,-0.6856936517267929
1773063392678417152,0.35001230239868164,-3.335024356842041,-1.802904725074768,2.667250871658325,-0.06902195513248444,-0.40392857789993286,0.9121828675270081,0.6535251140594482,0.11919957399368286,-0.18461334705352783,0.03771183994652086,0.33546828752350516,0.9184511252153975,0.20612218837064217,0.4158072913525784,-3.0660697777738504,-0.7163375201122417
1773063392688472320,0.36006736755371094,-4.016194820404053,-2.1747350692749023,2.9130876064300537,-0.06268063187599182,-0.4355175793170929,0.8979950547218323,0.6746801733970642,0.21989575028419495,-0.0975039005279541,0.05019759465589562,0.3496253460960535,0.9092632430305031,0.2201875410563429,0.4506131685151307,-3.071905036528027,-0.7501510469706217
1773063392698528256,0.37012338638305664,-4.7359113693237305,-2.467012405395508,3.092196464538574,-0.05556459352374077,-0.4728067219257355,0.8794124126434326,0.7032086253166199,0.31826576590538025,-0.07116973400115967,0.06519410485649223,0.36470032098609273,0.8981647335899279,0.23673503111376312,0.49247331576513964,-3.078492763730903,-0.7872872317648586
1773063392708583424,0.38017845153808594,-5.344517707824707,-2.633819580078125,3.2035508155822754,-0.048996277153491974,-0.5152844190597534,0.8556176424026489,0.7237551808357239,0.37652093172073364,-0.07389450073242188,0.08218959148214923,0.3801326780368653,0.8850468683352436,0.25580483825390093,0.5413395118965317,-3.084390904772103,-0.8272379881728577
1773063392718639360,0.39023447036743164,-5.880530834197998,-2.795076847076416,3.148566484451294,-0.04321805760264397,-0.5611851811408997,0.826561450958252,0.7423452734947205,0.3878909945487976,-0.016075432300567627,0.10085094358667769,0.3952597266769066,0.8700864701284428,0.27667394881323826,0.5958169844299855,-3.0893536619672477,-0.8688521089216295
1773063392728694272,0.40028929710388184,-6.6609368324279785,-2.850069999694824,2.9746687412261963,-0.038199786096811295,-0.6108400821685791,0.7908318638801575,0.7591012716293335,0.3978121280670166,0.07644712924957275,0.12136753199632964,0.40917712837019565,0.8532233093903614,0.2997564928666589,0.6571212066541374,-3.093326870893252,-0.9107922634673815
1773063392738750208,0.41034531593322754,-7.422784805297852,-2.9766392707824707,2.7732434272766113,-0.03436863422393799,-0.6643564105033875,0.746625542640686,0.7880460023880005,0.4178353548049927,0.21585315465927124,0.14376499168946197,0.4211226505668405,0.8342472527457281,0.3256055367201311,0.7266324383376487,-3.095593167958846,-0.9524416820209134
1773063392748805376,0.42040038108825684,-7.800445079803467,-3.506545066833496,2.699685573577881,-0.029990987852215767,-0.7187482118606567,0.6946231126785278,0.8622358441352844,0.4361250400543213,0.3869960308074951,0.16882934214000656,0.4319732589222574,0.8128410990964176,0.35239894841023855,0.8020002167022212,-3.0984435368328125,-0.9952547224412365
1773063392758861312,0.43045639991760254,-8.128397941589355,-3.542853593826294,2.603029727935791,-0.02560683898627758,-0.7714204788208008,0.6358103156089783,0.8877589106559753,0.46703821420669556,0.5229116082191467,0.1960932649385058,0.4420097492338089,0.7890073067990608,0.3790016822444718,0.8810704299685284,-3.101340068863184,-1.0402747223278375
1773063392768916480,0.44051146507263184,-8.343962669372559,-3.7659223079681396,2.6193830966949463,-0.023563113063573837,-0.8207772374153137,0.5707618594169617,0.8779026865959167,0.5644754767417908,0.532936692237854,0.22404793759198707,0.4506779184638693,0.7630664066460578,0.405489160891746,0.9627702736567189,-3.1003324683253997,-1.0885345141241636
1773063392778972160,0.45056724548339844,-7.355185508728027,-3.5197112560272217,2.987452507019043,-0.028102559968829155,-0.8632031083106995,0.5040737986564636,0.8805805444717407,0.6600323915481567,0.5844423174858093,0.24987939780165563,0.4593449693139789,0.7355536015387909,0.43072414825719835,1.0415802123515698,-3.0858994246115037,-1.1484148660644424
1773063392789027328,0.46062231063842773,-5.98781681060791,-3.734102249145508,2.744819164276123,-0.03606034070253372,-0.8939169049263,0.4467800557613373,0.8243751525878906,0.5704914927482605,0.5639926791191101,0.27237012414632833,0.4694341225510782,0.7092401750817694,0.44991617337127465,1.1060089971370781,-3.0610556177767423,-1.2190952524702074
1773063392799083264,0.47067832946777344,-5.359984397888184,-3.5052225589752197,2.181425094604492,-0.043215062469244,-0.9168316125869751,0.39692866802215576,0.6108725666999817,0.4229503870010376,0.6278210878372192,0.292792340552527,0.4784125066165702,0.6852633115758725,0.4645517755019253,1.1600713799744211,-3.0331461756612947,-1.290054650168794
1773063392809139200,0.48073434829711914,-5.842992305755615,-3.362168788909912,1.870918869972229,-0.04852660745382309,-0.9364765286445618,0.34735721349716187,0.4756506085395813,0.2746416926383972,0.6378264427185059,0.31309360969078787,0.4847840713159344,0.6623163973975835,0.4778010450462685,1.212445532347827,-3.0027886812317477,-1.3600152544431767
1773063392819194368,0.49078941345214844,-6.656276702880859,-3.3093667030334473,2.6240718364715576,-0.05902712047100067,-0.9555693864822388,0.2887960970401764,0.5156158804893494,0.15074443817138672,0.7504647970199585,0.33403530386819447,0.4898066590822828,0.6359933041966919,0.49398629660300525,1.2715854259559023,-2.9399792312334183,-1.4615643240159555
1773063392829250304,0.5008454322814941,-7.051001071929932,-3.640368700027466,3.4303295612335205,-0.07945236563682556,-0.9710209369659424,0.22540083527565002,0.570419192314148,-0.18677008152008057,0.6463795900344849,0.3540040720869514,0.496272614360298,0.605321327722267,0.511840448001292,1.3294661614245975,-2.802698043104478,-1.640034494798078
1773063392839305216,0.5109002590179443,-8.20264720916748,-3.8474481105804443,4.326144695281982,-0.11029105633497238,-0.9819043278694153,0.15394599735736847,0.5892491936683655,-0.3373093605041504,0.47192370891571045,0.37417304684131936,0.5036048116906197,0.5686432877849339,0.5319975355966754,1.3802681594940003,-2.519926765774102,-1.9681126779027958
1773063392849361152,0.52095627784729,-8.750812530517578,-4.094460487365723,5.005330562591553,-0.15221227705478668,-0.9855061173439026,0.07489416003227234,0.6636868715286255,-0.1829814314842224,0.3031270503997803,0.39395832667023245,0.510896677456443,0.5257676925159892,0.5543913462642992,1.4003320783300792,-2.0280537585027085,-2.508164858956852
1773063392859416320,0.5310113430023193,-8.800742149353027,-4.507701396942139,5.326522350311279,-0.2018895447254181,-0.9793974161148071,-0.004623711109161377,0.7584233283996582,-0.13420426845550537,0.018570244312286377,0.4128818056622247,0.518278647070458,0.4786182073137332,0.5760559886476768,1.3674556314228756,-1.5478981461691883,-3.0402562533007838
1773063392869472256,0.541067361831665,-8.25398063659668,-5.05642032623291,5.708888530731201,-0.2577091157436371,-0.963130533695221,-0.07723821699619293,0.897067666053772,-0.18086665868759155,-0.11036860942840576,0.43003830968585827,0.5267604428780537,0.42884068013886895,0.5947152817894288,1.2984059421965894,-1.279604857343438,2.917794817209667
1773063392879527424,0.5511224269866943,-7.4039082527160645,-5.652759075164795,6.303110122680664,-0.32087355852127075,-0.9372089505195618,-0.13667365908622742,1.0551416873931885,-0.22259646654129028,-0.06970144808292389,0.443678583213465,0.5378771779673549,0.37729472400403197,0.6094967172102946,1.2145397076995648,-1.1681277123786766,2.7442437470087153
1773063392889583360,0.56117844581604,-6.35164213180542,-6.204638957977295,6.877021789550781,-0.3914276659488678,-0.9025979042053223,-0.1791687160730362,1.1907135248184204,-0.16304540634155273,0.0698394775390625,0.45259787530360285,0.5523435095183414,0.32454936854235544,0.6202737595434512,1.1257666994082072,-1.1415316437202336,2.650680285387646
1773063392899638272,0.5712332725524902,-5.025233268737793,-6.693165302276611,7.209079742431641,-0.46660900115966797,-0.86104816198349,-0.20216889679431915,1.279139518737793,0.04091876745223999,0.27495330572128296,0.4562783098425233,0.5700980376477437,0.271852497551625,0.626813067093953,1.0373272212275864,-1.1619396340289856,2.600246411573941
1773063392909694208,0.5812892913818359,-3.3000669479370117,-7.079008102416992,7.152156829833984,-0.5414358377456665,-0.8159729242324829,-0.2025715857744217,1.267876386642456,0.28605055809020996,0.5191915035247803,0.45424773558761616,0.5911642203170356,0.22189879001411048,0.6284462556535269,0.9544102336949934,-1.2127818193712647,2.578506763989304
1773063392919749376,0.5913443565368652,-1.403572916984558,-7.582023620605469,6.9257001876831055,-0.6117565035820007,-0.7705475687980652,-0.17891457676887512,1.226578950881958,0.4993836283683777,0.7048850059509277,0.4465216669961113,0.6159437552109006,0.17651062608976592,0.6245603667310715,0.8796997623954188,-1.2862708170987032,2.5783497112057114
1773063392929805312,0.6014003753662109,0.5356225967407227,-8.191405296325684,6.862733840942383,-0.675827145576477,-0.7253141403198242,-0.1310606151819229,1.2353060245513916,0.6491881012916565,0.8150968551635742,0.4326089032604131,0.6449664904815579,0.13597028342740505,0.6151258132294987,0.8114906273079907,-1.379247689829317,2.596699684983009
1773063392939860224,0.6114554405212402,2.098525285720825,-8.505142211914062,7.123152732849121,-0.7332849502563477,-0.677067756652832,-0.062227167189121246,1.1273889541625977,0.7183886766433716,0.9331377744674683,0.4117011980084779,0.6775451506365419,0.099090794960728,0.6013448511560913,0.7437708688771927,-1.486138332932974,2.629080766002874
1773063392949916416,0.6215114593505859,3.159851551055908,-8.399246215820312,7.5578083992004395,-0.7830592393875122,-0.6216310858726501,0.01981906034052372,0.8964321613311768,0.6765170097351074,0.9216482639312744,0.38399993185192544,0.7111646524183038,0.06445437998269916,0.585349829786642,0.6708232744035947,-1.5961007074034488,2.66711586995873
1773063392959972352,0.6315674781799316,3.7943265438079834,-8.066554069519043,7.998351573944092,-0.8239730596542358,-0.5563800930976868,0.1072831004858017,0.6495040655136108,0.5782306790351868,0.8628401756286621,0.35056819224779157,0.7434295279875714,0.03088832757482423,0.5687357928214084,0.5900229421413216,-1.7002701676988763,2.703042355960079
1773063392970027264,0.6416223049163818,3.924251079559326,-7.486107349395752,8.269349098205566,-0.8547463417053223,-0.48165813088417053,0.1934279203414917,0.4157050848007202,0.48191747069358826,0.8098984956741333,0.3133624760526458,0.7724693988470184,-0.002233826463508007,0.5523495969852594,0.5025458096142588,-1.7933464837212316,2.731222617148529
1773063392980083200,0.6516783237457275,4.066941738128662,-6.764112949371338,8.269723892211914,-0.8748137950897217,-0.4002031683921814,0.27301734685897827,0.18989241123199463,0.4407914876937866,0.633583664894104,0.2743265353383451,0.7970660167577303,-0.034560609696475016,0.5368764988858056,0.41173852182690673,-1.8733041908161039,2.750131255978046
1773063392990138368,0.6617333889007568,4.60899543762207,-6.226700305938721,8.504941940307617,-0.8846503496170044,-0.31277337670326233,0.3457845449447632,0.033102989196777344,0.40786609053611755,0.3341318666934967,0.23304601382067394,0.8176868142846382,-0.06542590837358463,0.5223001156067741,0.3181115174521075,-1.9434085733180442,2.763717359437388
1773063393000194304,0.6717894077301025,6.188352584838867,-5.850283145904541,9.051568984985352,-0.8848263621330261,-0.214320108294487,0.4137021005153656,-0.03625530004501343,0.4401348829269409,0.005472123622894287,0.1856923272131629,0.8354361155518846,-0.09432684239434631,0.5085935388548191,0.21599571036827628,-2.008150040552627,2.778962377571138
1773063393010249472,0.6818444728851318,8.173162460327148,-5.487385272979736,9.904613494873047,-0.874412477016449,-0.09824884682893753,0.4751317501068115,-0.008018672466278076,0.5220006704330444,-0.16936081647872925,0.1282951594658336,0.85026439011762,-0.12089805933210324,0.495958197732975,0.09840759768578818,-2.0685370659719045,2.8005532053613598
1773063393020305152,0.6919002532958984,10.026972770690918,-4.713845729827881,10.695923805236816,-0.8517581224441528,0.03734409064054489,0.5226024985313416,0.04646039009094238,0.580560564994812,-0.15636104345321655,0.06013525992108513,0.8603561642326875,-0.14521882388498636,0.4848530364268585,-0.03735277763898083,-2.1211248766247093,2.8280731293067474
1773063393030360320,0.7019553184509277,10.957671165466309,-3.3177855014801025,11.140968322753906,-0.8176625370979309,0.18630225956439972,0.5447193384170532,0.07034820318222046,0.4744643270969391,-0.018977880477905273,-0.01530832759694856,0.8627022275262101,-0.16764410495315182,0.47687094400664387,-0.1873971636501774,-2.158469488585074,2.8582694209051427
1773063393040416256,0.7120113372802734,10.827046394348145,-1.411973237991333,11.17329216003418,-0.7753562927246094,0.33563774824142456,0.5349482893943787,0.10685354471206665,0.30930545926094055,0.1625308394432068,-0.09146070650734876,0.8553779963854672,-0.18921583841309064,0.4734561347646119,-0.3422821726591892,-2.1747377656609657,2.8871587314822382
1773063393050471424,0.7220664024353027,10.148233413696289,0.2854762673377991,11.098855018615723,-0.7270622849464417,0.4743974208831787,0.4963133931159973,0.14371895790100098,0.13128483295440674,0.23253774642944336,-0.16322888074798192,0.8387445803030431,-0.21133913218748973,0.47455185577986125,-0.49427941177940515,-2.1697681356515597,2.9128676796472663
1773063393060527360,0.7321224212646484,9.817878723144531,1.383658766746521,11.196858406066895,-0.6708963513374329,0.599525511264801,0.43642568588256836,0.27670079469680786,-0.018730223178863525,0.15366220474243164,-0.23023070591850683,0.8143130927518704,-0.23474887283121673,0.47831060122481345,-0.6429081223301133,-2.147530923199479,2.93767926992528
1773063393070582272,0.7421772480010986,10.268794059753418,2.246899127960205,11.306465148925781,-0.6037010550498962,0.711923360824585,0.3587622046470642,0.48893964290618896,-0.10935378074645996,0.10537970066070557,-0.29541300709167184,0.7827628609119182,-0.2581925733719985,0.4830632319119048,-0.7922332169747632,-2.106992911208003,2.9716052856345985
1773063393080638208,0.7522332668304443,10.958320617675781,3.339505195617676,11.152446746826172,-0.5261270999908447,0.8091438412666321,0.2616804242134094,0.7246592044830322,-0.09701615571975708,0.21212029457092285,-0.3598621699197322,0.7432359282298715,-0.280072433663101,0.489549842750147,-0.942693595929676,-2.0323386106844485,3.0324967269109937
1773063393090693120,0.7622883319854736,11.946927070617676,4.420125961303711,10.66524887084961,-0.4407773017883301,0.885793924331665,0.14520442485809326,1.0280117988586426,0.01487123966217041,0.14571963250637054,-0.42267341722135426,0.6951795368601448,-0.2988772772981788,0.4987432932230012,-1.0882019200346047,-1.8890280657724443,-3.128524817649245
1773063393100749312,0.7723443508148193,13.288472175598145,5.217792510986328,10.050333976745605,-0.34932219982147217,0.9369484186172485,0.010069005191326141,1.4374265670776367,0.19374293088912964,-0.21977055072784424,-0.4836972831885922,0.6380875564664883,-0.31285583425916624,0.510883828022661,-1.2137933914325947,-1.5996127561319284,-2.866382505159066
1773063393110804224,0.7823994159698486,14.50604248046875,5.282746315002441,9.216011047363281,-0.2538938820362091,0.95718914270401,-0.13902023434638977,1.9244261980056763,0.46093207597732544,-0.38122811913490295,-0.5428369832068096,0.5730378177532933,-0.3195583566415593,0.5242499227396956,-1.2771302930803208,-1.0698341170900758,-2.364730309820302
1773063393120860416,0.7924554347991943,15.234947204589844,5.0754594802856445,8.467009544372559,-0.15806247293949127,0.9431418180465698,-0.2924034893512726,2.32230806350708,0.7442055940628052,-0.3951117992401123,-0.598292167922981,0.5022704870075334,-0.3186261328767901,0.5368875275088755,-1.2319590774256814,-0.49556898051033677,-1.817112238959618
1773063393130916352,0.80251145362854,15.882885932922363,4.771093368530273,7.814268112182617,-0.06437691301107407,0.8946148157119751,-0.4421764612197876,2.46112060546875,1.046547293663025,-0.6455157995223999,-0.6491039310031764,0.42709342615149604,-0.3106492908131907,0.5474964473780427,-1.107568422444421,-0.14457521266550086,-1.4908664925442867
1773063393140971264,0.8125662803649902,15.896500587463379,4.2598748207092285,6.825680255889893,0.02253817766904831,0.8138056397438049,-0.5807000398635864,2.3346548080444336,1.2272558212280273,-0.7664374113082886,-0.6937486252668323,0.349241909092704,-0.296108208460652,0.5559343500924795,-0.9506710111778776,0.03879261136390608,-1.3311571745890625
1773063393151027200,0.8226222991943359,14.119255065917969,4.2247114181518555,5.386911869049072,0.0966009795665741,0.7128836512565613,-0.6945971250534058,1.9077324867248535,1.3688576221466064,-0.42979252338409424,-0.7286109928874737,0.27444587543262866,-0.27817421689536365,0.562516391342958,-0.7936016682202454,0.1381884406436905,-1.256934879355723
1773063393161082368,0.8326773643493652,10.836482048034668,4.079218864440918,4.259350776672363,0.15965424478054047,0.6144500970840454,-0.772632896900177,1.2685683965682983,1.3063567876815796,0.063251793384552,-0.7516928226532108,0.20950984297889183,-0.26417642937073216,0.5668106140901272,-0.6616887783294915,0.20376870429879837,-1.2219678743935802
1773063393171138304,0.8427333831787109,7.966485977172852,3.4457592964172363,3.7468881607055664,0.21309016644954681,0.5318586826324463,-0.8195846080780029,0.8073718547821045,0.8908708095550537,0.39572596549987793,-0.7667581004115084,0.15768018327386488,-0.25562600687747433,0.5673397136605659,-0.5607939240965348,0.25436596086486235,-1.2004197647662678
1773063393181193472,0.8527884483337402,4.861325740814209,1.9707920551300049,2.941399097442627,0.25338417291641235,0.4700016379356384,-0.8455145955085754,0.6963381171226501,0.5709834694862366,0.7228491902351379,-0.7773552023364598,0.12048896721218881,-0.2504498145586704,0.5643369764314315,-0.4892926282777789,0.2911635800478534,-1.182714828037705
1773063393191249408,0.8628444671630859,1.882746934890747,0.6207117438316345,2.3726444244384766,0.27848178148269653,0.43348976969718933,-0.8570498824119568,0.659796416759491,0.42626670002937317,0.9591922163963318,-0.785046325562031,0.099459641854508,-0.24815890417777367,0.558772840378501,-0.44836171743373743,0.31416917875675443,-1.1649654377166163
1773063393201304320,0.8728992938995361,-0.2634924650192261,0.3220672309398651,3.1133809089660645,0.2906160354614258,0.42039623856544495,-0.8595401644706726,0.6093778610229492,0.08408984541893005,0.7249577045440674,-0.7923019592300243,0.0932309699926111,-0.2480683205342291,0.5495705319447156,-0.4338819786367658,0.3260401521762485,-1.1404124144758632
1773063393211360256,0.8829553127288818,-3.470679521560669,1.4874672889709473,2.299299716949463,0.3106611371040344,0.42617908120155334,-0.8496240973472595,0.5114976763725281,-0.5573893785476685,0.03649848699569702,-0.7984676148771821,0.0939573521247526,-0.25760430009331176,0.5359679231600852,-0.440264867174107,0.3505442530017962,-1.1031230762970325
1773063393221415168,0.8930103778839111,-7.54032564163208,3.228632926940918,-0.7619161009788513,0.33453598618507385,0.47006747126579285,-0.8167755007743835,-0.12684860825538635,-2.2572073936462402,-0.663311779499054,-0.7943259808764404,0.1085329531016008,-0.28254706456219836,0.526720025239453,-0.48936723293224227,0.38873874783892864,-1.072838054496407
1773063393231471360,0.9030663967132568,-12.078017234802246,3.1907312870025635,-2.1344525814056396,0.35315367579460144,0.5525959730148315,-0.7549306154251099,-0.26120421290397644,-2.6486806869506836,-0.7243632078170776,-0.7791110916727791,0.14067582946531548,-0.32053863104017577,0.5200493195221602,-0.5854757904237556,0.43755429862592465,-1.0433231388586433
1773063393241526272,0.9131214618682861,-16.806377410888672,1.5026880502700806,-2.3750722408294678,0.3560168445110321,0.6639488339424133,-0.6575896143913269,0.2713024616241455,-1.506005048751831,0.06284773349761963,-0.756853549076183,0.19449416914323928,-0.3652084687968117,0.5059324120045746,-0.7260871842557391,0.4962140180496617,-0.9866202299319194
1773063393251582464,0.9231774806976318,-21.265256881713867,-0.4230729043483734,-1.204337239265442,0.34588709473609924,0.7829067707061768,-0.5171259045600891,0.6400138139724731,-0.7101986408233643,0.6720331907272339,-0.7291119152125607,0.2676411274681761,-0.4120743379614014,0.4764020017574649,-0.8993243643737291,0.589522507325071,-0.8665315906704577
1773063393261637120,0.933232307434082,-23.369096755981445,-2.020369052886963,0.8248165845870972,0.33879560232162476,0.880130410194397,-0.3325479328632355,0.6747236847877502,0.4534419775009155,1.0550973415374756,-0.6963965829533215,0.35170254277806673,-0.45829178251263003,0.42580025176571773,-1.0761368345190738,0.7947041186608813,-0.6067356071258058
1773063393271693312,0.9432883262634277,-22.89122772216797,-1.930977702140808,2.3366291522979736,0.3491405248641968,0.9283450841903687,-0.12757860124111176,0.5211902856826782,1.0118862390518188,0.831344485282898,-0.6588166996095998,0.4308754965145767,-0.500556693919604,0.3602081084375753,-1.1899358002842821,1.2204618251494619,-0.1166613648431529
1773063393281749248,0.9533443450927734,-21.568103790283203,-1.7404165267944336,2.6678085327148438,0.37273526191711426,0.9249547123908997,0.07434508949518204,0.22542452812194824,1.3367183208465576,0.6453051567077637,-0.6156513959023056,0.4986187480528389,-0.5371702613596733,0.2894836676210972,-1.1809163675936136,1.7676708302159256,0.4911037448646588
1773063393291804416,0.9633994102478027,-18.86494255065918,-1.6744885444641113,2.2434895038604736,0.3981548249721527,0.8817211985588074,0.253061980009079,-0.0412975549697876,1.8213427066802979,0.8749592304229736,-0.5696771094949225,0.5545544115232632,-0.5648011932940329,0.22121705419297824,-1.0794982795238088,2.13697244033605,0.9166478337945904
1773063393301860352,0.9734554290771484,-14.116860389709473,-1.3378196954727173,1.7482566833496094,0.42011570930480957,0.819625735282898,0.38950812816619873,-0.3126175105571747,2.207275390625,0.7981749773025513,-0.527793327074845,0.5961929256615918,-0.58250154717217,0.16334071976328268,-0.9607574388430047,2.3184077890135124,1.1466980127996795
1773063393311915264,0.9835102558135986,-7.629942417144775,-1.2284040451049805,1.1351228952407837,0.43747371435165405,0.765995979309082,0.4710276424884796,-0.5107006430625916,2.6245527267456055,0.4718587398529053,-0.4992764646398786,0.621000195053096,-0.5915002803227899,0.12332575229947908,-0.8725892621025517,2.3931109993274258,1.257211316584164
1773063393321971200,0.9935662746429443,-1.4019458293914795,-1.1110018491744995,0.20389266312122345,0.4483693838119507,0.741267204284668,0.49948784708976746,-0.6305745244026184,3.020787239074707,0.5933771729469299,-0.4891752428523074,0.6306773066224746,-0.5932875008201642,0.1047078570687104,-0.8349562916197321,2.4100728560431683,1.2953323082071215
1773063393332026368,1.0036213397979736,3.256640672683716,-0.8477255702018738,-0.6203943490982056,0.45162612199783325,0.7474210262298584,0.48723313212394714,-0.736889123916626,3.2975316047668457,0.7048293352127075,-0.49529738172984583,0.6293127814908075,-0.5895608460794741,0.10518598181374739,-0.8441715972807813,2.3941021504644757,1.2873402157191443
1773063393342082304,1.0136773586273193,6.010472774505615,-0.4240962862968445,-1.095106840133667,0.4478937089443207,0.7737808227539062,0.44794464111328125,-0.6953455209732056,3.0444869995117188,0.6139297485351562,-0.5116228259369762,0.6201920085957222,-0.5825239815673067,0.11945608170573005,-0.8847882027496863,2.3562513269051824,1.2459345850636034
1773063393352137216,1.0237324237823486,6.911131381988525,-0.21763312816619873,-1.2471504211425781,0.4396887719631195,0.8068684339523315,0.39450904726982117,-0.5269079804420471,2.3721020221710205,0.6557229161262512,-0.5319278917586514,0.6066625222009946,-0.5737726959618599,0.14070642486510185,-0.9388316022745316,2.3020878633573196,1.1812806121309964
1773063393362193408,1.0337884426116943,6.591164588928223,-0.2927425503730774,-1.1771750450134277,0.43051648139953613,0.8372827768325806,0.33706527948379517,-0.3360035717487335,1.6570255756378174,0.7614912986755371,-0.5522349787242072,0.5917457162590671,-0.5642425366322971,0.16280003338375698,-0.9922945512120294,2.235043150770601,1.1027612525291175
1773063393372248064,1.0438432693481445,4.9989519119262695,-0.2093973010778427,-1.1389113664627075,0.42150577902793884,0.8606952428817749,0.2855459749698639,-0.1805543303489685,0.9729228615760803,0.7771371603012085,-0.5693612715001892,0.5786415635740993,-0.5549296650294423,0.18180956447553256,-1.0366336594267316,2.1662221586857076,1.0251043957546213
1773063393382304256,1.0538992881774902,1.3659812211990356,-0.3700133264064789,-1.3454039096832275,0.4114462435245514,0.8743594288825989,0.25730857253074646,-0.003121018409729004,0.4825589060783386,0.49272191524505615,-0.5777954879437237,0.5729521517630416,-0.5480694529651281,0.1936443280054143,-1.0641142141279225,2.1296659434123524,0.9845979082297471
1773063393392359168,1.0639543533325195,-0.2256566733121872,-0.9302334189414978,-2.465043544769287,0.39668339490890503,0.8838298916816711,0.24796584248542786,0.12388545274734497,0.17320746183395386,-0.07203197479248047,-0.579988950292938,0.5766263747123958,-0.5398934579765502,0.1990726464380151,-1.0839868124891843,2.129465824656651,0.9923953322189593
1773063393402415360,1.0740103721618652,-2.906733274459839,-1.2970900535583496,-3.364579439163208,0.37331870198249817,0.8911112546920776,0.2579803168773651,0.17587563395500183,0.06784254312515259,0.2117614448070526,-0.5753439795435638,0.5903373725856131,-0.5296149070888455,0.19997277233438315,-1.099788112953362,2.1754874666457598,1.0570101113792874
1773063393412470272,1.0840654373168945,-4.243183612823486,-1.2461309432983398,-4.272359848022461,0.342520534992218,0.8947166800498962,0.28663864731788635,0.22910422086715698,0.551846981048584,0.31553420424461365,-0.5637203060721471,0.6123324324242118,-0.5180427752293086,0.19723104711680042,-1.1077964779219682,2.2676070173466485,1.1747546071331898
1773063393422526464,1.0941214561462402,-3.571852684020996,-0.8484728932380676,-4.711611747741699,0.30481380224227905,0.8972985744476318,0.31928616762161255,0.23903992772102356,0.8799229860305786,-0.06516626477241516,-0.5493690648546089,0.6362441367960194,-0.5048133095477318,0.19634273676502467,-1.113611070506344,2.3793794996851445,1.3112550019364344
1773063393432582400,1.104177474975586,-2.1987435817718506,-0.48903384804725647,-4.787459850311279,0.26416999101638794,0.9012462496757507,0.34346699714660645,0.29024285078048706,1.462446928024292,-0.38698506355285645,-0.5369420345322803,0.6566455537807325,-0.49045908200192656,0.1998994845812251,-1.1226370662707132,2.4859617767264863,1.4372060740646146
1773063393442637312,1.1142323017120361,-0.9440473914146423,-0.1772349774837494,-5.264627456665039,0.21988846361637115,0.9079406261444092,0.35678112506866455,0.32314133644104004,1.8450653553009033,-0.41177383065223694,-0.527433487761936,0.673266056578638,-0.47445060774373926,0.20838256440291977,-1.138343721855079,2.5892653487567916,1.5550975964122535
1773063393452693248,1.1242883205413818,-0.3515484631061554,0.006088550202548504,-5.850183963775635,0.16900783777236938,0.9167191386222839,0.3620254695415497,0.3778519332408905,1.5462629795074463,-0.467326283454895,-0.5195746284294069,0.6879291121451764,-0.4558138538516442,0.2214260087601927,-1.1597897076416919,2.7048234758976806,1.682538803330155
1773063393462748416,1.1343433856964111,-0.6245431900024414,-0.07401400804519653,-6.082094669342041,0.11365333199501038,0.9236060380935669,0.3661075532436371,0.5232637524604797,1.041863203048706,-0.38910260796546936,-0.5111792034345819,0.7025151731973214,-0.4353460865953413,0.2358855827145045,-1.1773831481613508,2.8405883599270365,1.830227147408582
1773063393472804352,1.1443994045257568,-1.370955467224121,-0.3472914695739746,-6.106171131134033,0.057710807770490646,0.9251804947853088,0.3751142919063568,0.6997049450874329,0.7056789994239807,-0.15518933534622192,-0.5006553171103827,0.7182933424667808,-0.41426057442992686,0.24857024894713056,-1.181510832494047,2.9889409384406047,1.9928420843050196
1773063393482859264,1.1544544696807861,-1.9862502813339233,-0.5864507555961609,-6.206871032714844,0.0024778428487479687,0.9204619526863098,0.3908247947692871,0.8231751918792725,0.6000917553901672,0.059752047061920166,-0.4875346365795525,0.7356110555660637,-0.392796095990203,0.25864589580787795,-1.1692607678440101,3.1352527033719815,2.1564874030745242
1773063393492915200,1.1645102500915527,-1.9815113544464111,-0.5988079905509949,-6.446747303009033,-0.05327307805418968,0.9106741547584534,0.40967583656311035,0.8713120818138123,0.7074744701385498,0.17082947492599487,-0.4727462416354486,0.7534505948360488,-0.3703378437806327,0.26771810244432837,-1.1449129998876462,-3.0122811134559133,2.3113088133922153
1773063393502970112,1.174565315246582,-1.28775155544281,-0.423353910446167,-6.794764041900635,-0.1112666055560112,0.8981886506080627,0.42529627680778503,0.8742823600769043,0.9377641081809998,0.17536592483520508,-0.45820121691102716,0.7699743651565246,-0.346103471677145,0.27821489003664757,-1.1156316820376933,-2.885706469287453,2.456900280224999
1773063393513026304,1.1846213340759277,-0.07714346796274185,-0.3796793222427368,-7.203693866729736,-0.17236967384815216,0.8851706385612488,0.4321591258049011,0.8957278728485107,1.133551836013794,0.10095235705375671,-0.44608973803581614,0.7838414340777485,-0.3188607439773998,0.29141779785994404,-1.0868606227660842,-2.762072046813507,2.5999245556799973
1773063393523081216,1.194676399230957,1.056092619895935,-0.5104357600212097,-7.530642986297607,-0.23563173413276672,0.8722551465034485,0.42854300141334534,1.0102136135101318,1.2207320928573608,-0.08479288220405579,-0.43770680961903585,0.7946169405589147,-0.2878461763793577,0.30682468919506367,-1.0597947419721012,-2.638869350190545,2.745118229104372
1773063393533137408,1.2047324180603027,1.7348438501358032,-0.8356941938400269,-7.699307918548584,-0.2991701662540436,0.8577976226806641,0.41794827580451965,1.1506563425064087,1.162389874458313,-0.2587074637413025,-0.4322612209023005,0.8029417769396835,-0.25349288839395545,0.3227634183017716,-1.0309693927858126,-2.5203367638452314,2.889822816429271
1773063393543192320,1.214787483215332,1.9204357862472534,-1.304234266281128,-7.678634166717529,-0.36055949330329895,0.8399567008018494,0.4055488109588623,1.255105972290039,0.9123627543449402,-0.32168644666671753,-0.4282902299005788,0.8097780255190329,-0.21687312593157657,0.3373324321059309,-0.9972034455227439,-2.414851598113996,3.026559074746484
1773063393553248256,1.2248432636260986,1.6541638374328613,-1.8982579708099365,-7.506392478942871,-0.417467325925827,0.8174798488616943,0.3967965841293335,1.3148977756500244,0.6391088366508484,-0.35202735662460327,-0.4241252955978859,0.8162441708123227,-0.17928677898189796,0.34888301070034816,-0.9570216997964397,-2.330814142252948,-3.1359383063293205
1773063393563303168,1.234898328781128,1.2285566329956055,-2.515855312347412,-7.371890544891357,-0.46879708766937256,0.7900829911231995,0.3949658274650574,1.304261565208435,0.42856013774871826,-0.428962379693985,-0.4186541468680453,0.8230917876728272,-0.14143132642203662,0.35671520040203225,-0.9109443660786161,-2.2709254487048876,-3.0339481881805392
1773063393573359360,1.2449543476104736,0.8813990950584412,-3.01668643951416,-7.311325550079346,-0.5148519277572632,0.7579365968704224,0.40057384967803955,1.2376303672790527,0.2915475368499756,-0.5209810137748718,-0.41146470041419786,0.8304428026352076,-0.10320694991626618,0.3611229863853954,-0.860144147013049,-2.232000978529204,-2.9475856755909264
1773063393583415552,1.2550106048583984,0.6825525760650635,-3.359764337539673,-7.228140354156494,-0.5559162497520447,0.7219371795654297,0.4120243489742279,1.1562732458114624,0.2261524796485901,-0.572867214679718,-0.40281889657616926,0.8377448716170584,-0.06477427023585089,0.36293916309044966,-0.8065977897694617,-2.208617492316955,-2.8726395763076713
1773063393593470464,1.2650656700134277,0.5874859690666199,-3.6199567317962646,-7.167149543762207,-0.5920073986053467,0.6830319166183472,0.42777878046035767,1.0968139171600342,0.18311798572540283,-0.6252886056900024,-0.3931410752174263,0.8445134131414704,-0.026200902711824573,0.3626992202641973,-0.7519057213825923,-2.196523194724144,-2.805431698744665
1773063393603526656,1.2751216888427734,0.6422474980354309,-3.7938029766082764,-7.079606056213379,-0.6232059597969055,0.6421016454696655,0.4464523196220398,1.0621861219406128,0.1135593056678772,-0.6539718508720398,-0.38285724855748376,0.8503353393234395,0.012488703748945253,0.3608242289354922,-0.6972365708386987,-2.1924312205776317,-2.7430199825783976
1773063393613581312,1.2851765155792236,0.8407207131385803,-4.066678047180176,-6.979570388793945,-0.6491585373878479,0.6004815697669983,0.46692076325416565,1.0001107454299927,0.025922119617462158,-0.5899370908737183,-0.3726873924936855,0.8548794864417005,0.051394980007913885,0.35727259780464216,-0.6441032164716654,-2.1943389404407005,-2.6827409475308674
1773063393623637504,1.2952325344085693,1.2009543180465698,-4.3202056884765625,-6.816051959991455,-0.6691810488700867,0.5595443844795227,0.48898518085479736,0.9339821338653564,-0.00919044017791748,-0.5670186877250671,-0.3632278477751143,0.8580553785473336,0.09073898810470024,0.3515292975860837,-0.5938359773053935,-2.2018447961424887,-2.6226013941600006
1773063393633692416,1.3052875995635986,1.7739160060882568,-4.5698676109313965,-6.574038982391357,-0.6832305192947388,0.5214188098907471,0.5111931562423706,0.8835631608963013,-0.02694249153137207,-0.6601799726486206,-0.35543021840573247,0.8594351324619336,0.1302606815665728,0.3436171875735146,-0.5485128453202425,-2.213144534377734,-2.5608418521963303
1773063393643748608,1.3153436183929443,2.4614453315734863,-4.921203136444092,-6.312068462371826,-0.6909661293029785,0.48800015449523926,0.5333118438720703,0.8263269066810608,-0.08207058906555176,-0.6811695694923401,-0.3500267922636212,0.8589007477223368,0.1701335792578168,0.33290429392973725,-0.5097970909127413,-2.2281260341732363,-2.495797508408815
1773063393653803520,1.3253986835479736,3.0202908515930176,-5.155384063720703,-5.954885005950928,-0.6926422119140625,0.4603191912174225,0.5552953481674194,0.8549194931983948,-0.13047000765800476,-0.7449774146080017,-0.3469926013557378,0.8564867898169531,0.20994772719823018,0.31929365145534505,-0.4783547305877475,-2.2465765833231814,-2.4277953364807323
1773063393663859712,1.3354547023773193,3.3931777477264404,-5.3695831298828125,-5.542009353637695,-0.6886828541755676,0.4387349784374237,0.5772583484649658,0.8982014060020447,-0.20143035054206848,-0.7169831991195679,-0.34578048176882775,0.8524694051085986,0.24884751646454556,0.30299598265110356,-0.4541904332585925,-2.2684036133140935,-2.358721430738684
1773063393673914368,1.3455095291137695,3.460829496383667,-5.619603633880615,-5.090832710266113,-0.6791397333145142,0.4225109815597534,0.6002113819122314,0.9218918085098267,-0.3265637457370758,-0.6001198291778564,-0.34523625823163595,0.8474524664500227,0.28623418285640034,0.28408843804296013,-0.4362139585784653,-2.294578534771911,-2.290980374671549
1773063393683970560,1.3555655479431152,3.220231533050537,-5.694255828857422,-4.644627571105957,-0.6646157503128052,0.41031938791275024,0.624439001083374,0.9225655198097229,-0.41982558369636536,-0.5574375987052917,-0.3441535098187321,0.8419970927251528,0.3213415655288198,0.26332282125165474,-0.42280424792481636,-2.32503697658573,-2.2272879423273544
1773063393694025472,1.3656206130981445,2.7748520374298096,-5.8086628913879395,-4.323785781860352,-0.6461697220802307,0.40001994371414185,0.6499605774879456,0.8209438920021057,-0.49564674496650696,-0.45603668689727783,-0.34140214349894954,0.8364987967488534,0.353906854501271,0.2417938821988043,-0.4115386024021767,-2.3591192624588095,-2.1693303898268095
1773063393704081408,1.3756766319274902,2.404723644256592,-6.1795973777771,-4.041037559509277,-0.6228196024894714,0.3905029892921448,0.6779405474662781,0.7348037958145142,-0.552581787109375,-0.3295366168022156,-0.3362389657590521,0.8312657229550837,0.384665549215678,0.21902774479061207,-0.4011779095310734,-2.398545117226129,-2.1166795177005366
1773063393714136576,1.3857316970825195,2.1238889694213867,-6.337604522705078,-3.6155083179473877,-0.5939338803291321,0.3827756345272064,0.7076195478439331,0.7445228695869446,-0.5109800100326538,-0.3667534589767456,-0.32905387867518343,0.8263254110698482,0.413516729367046,0.19471463335829797,-0.39279889554507785,-2.4433195166075765,-2.068998631343443
1773063393724192512,1.3957877159118652,1.968614935874939,-6.161251068115234,-3.213894844055176,-0.5614913702011108,0.37778332829475403,0.7362112402915955,0.7099899649620056,-0.4420839250087738,-0.383428156375885,-0.3209401514384228,0.8214369255870632,0.439712409188327,0.1699756896006071,-0.38740105130130886,-2.490027542735828,-2.0262836119422016
1773063393734247424,1.4058425426483154,1.726324439048767,-5.901130199432373,-2.9650537967681885,-0.5277327299118042,0.3750118613243103,0.7621443271636963,0.6209640502929688,-0.4479794502258301,-0.38380277156829834,-0.3125168184143354,0.8162393019426052,0.46349277600506195,0.1458114982747456,-0.3844095759100474,-2.5359642975543513,-1.9872704109550023
1773063393744303360,1.4158985614776611,1.0063958168029785,-5.737331867218018,-2.706190824508667,-0.49308091402053833,0.37119680643081665,0.7868192791938782,0.5921409130096436,-0.41558459401130676,-0.27468836307525635,-0.3023849532553096,0.8112497853361635,0.48506022518742187,0.12310085443688579,-0.3802975751308517,-2.5817888900694546,-1.9532795291757357
1773063393754359552,1.4259545803070068,0.34430983662605286,-5.51817512512207,-2.4397342205047607,-0.45730674266815186,0.36423933506011963,0.811295211315155,0.6071023344993591,-0.3850829005241394,-0.13919150829315186,-0.2896135175268555,0.8070589891852781,0.5042850410330829,0.10235385708105764,-0.37281591287616106,-2.628311161181962,-1.9257142365189617
1773063393764414464,1.4360096454620361,-0.22850891947746277,-5.224574565887451,-2.2735226154327393,-0.4213353395462036,0.3543177545070648,0.8348263502120972,0.5800726413726807,-0.4019404947757721,-0.030856192111968994,-0.27488913926468556,0.8034378536049985,0.5214410649510269,0.08380135817614698,-0.3621843753424194,-2.6741935639674246,-1.903113817764268
1773063393774470656,1.4460656642913818,-0.694290041923523,-4.880417823791504,-2.1504809856414795,-0.38609233498573303,0.3413231074810028,0.8569896817207336,0.5072471499443054,-0.3836509883403778,0.10689282417297363,-0.25870564626490994,0.8000923124515997,0.5369796317840945,0.06765033156581539,-0.3483241695098777,-2.718305058919928,-1.8838251316836707
1773063393784525568,1.4561207294464111,-1.0502479076385498,-4.463209629058838,-1.961646318435669,-0.35223981738090515,0.3260510563850403,0.8772785663604736,0.43224167823791504,-0.38427862524986267,0.1821085810661316,-0.24178375795876766,0.7969825216417538,0.5508703561925721,0.05386367767461483,-0.3321233248283666,-2.759781591495929,-1.8672486266435107
1773063393794581504,1.4661765098571777,-1.336353063583374,-4.067300796508789,-1.760201096534729,-0.3201946020126343,0.30912038683891296,0.8954995274543762,0.36049315333366394,-0.44716671109199524,0.2206348180770874,-0.22462694800212415,0.7942028258571291,0.563020113890791,0.042341583336430774,-0.31426798133826916,-2.7981990357625732,-1.8532933003578218
1773063393804636416,1.476231575012207,-1.6415292024612427,-3.729872226715088,-1.5428667068481445,-0.2899029850959778,0.2904607355594635,0.9119148254394531,0.29965338110923767,-0.5378209948539734,0.2525595426559448,-0.2072639485797211,0.791822011493671,0.5735637071697604,0.03292711088094943,-0.2947082824526565,-2.8337905751102657,-1.8417732069762145
1773063393814692608,1.4862875938415527,-1.6369152069091797,-3.5312180519104004,-1.3295854330062866,-0.2602139413356781,0.2710660696029663,0.9267209768295288,0.344091534614563,-0.5624631643295288,0.2637696862220764,-0.18981083019448722,0.7899277433268527,0.5825587109202386,0.02472507671608525,-0.27450038796179943,-2.8678515656164483,-1.8326659424051752
1773063393824747520,1.496342658996582,-1.1304811239242554,-3.089977741241455,-1.1584792137145996,-0.23252341151237488,0.25476810336112976,0.9386299252510071,0.31740808486938477,-0.5119855403900146,0.18196028470993042,-0.17435391629629357,0.787851332616495,0.5904280137342387,0.016904542577954013,-0.2576078819053274,-2.898754997493964,-1.8237333709564771
1773063393834803456,1.5063986778259277,-0.5146105885505676,-2.56455135345459,-0.9948028326034546,-0.20838214457035065,0.24466156959533691,0.9469517469406128,0.35472917556762695,-0.4089987277984619,0.1282588243484497,-0.1626106304538874,0.785521473511696,0.5970191655525318,0.009050558684851667,-0.24717063948784532,-2.924989206098835,-1.8148047058023307
1773063393844858368,1.516453504562378,-0.029920563101768494,-2.112494945526123,-0.8445054888725281,-0.1884063333272934,0.2402970790863037,0.9522395730018616,0.3370269536972046,-0.3785264790058136,0.08840972185134888,-0.15452576319584485,0.7829892885127261,0.6025342750905258,0.001399888404828562,-0.2426718798944656,-2.946259456525088,-1.8059317507327104
1773063393854914304,1.5265095233917236,0.24736563861370087,-1.743455171585083,-0.6259571313858032,-0.17176882922649384,0.24019098281860352,0.9554075598716736,0.3004767596721649,-0.4176049828529358,0.07440799474716187,-0.14919945741585378,0.7806272737004794,0.6068977064498139,-0.00597518218014211,-0.24256258575405443,-2.963707070025091,-1.7981792394914176
1773063393864969472,1.536564588546753,0.26394566893577576,-1.5013009309768677,-0.4344787895679474,-0.15750564634799957,0.24190552532672882,0.9574307203292847,0.28188005089759827,-0.4380877912044525,0.07603174448013306,-0.14533492918421384,0.7787386600817907,0.6101487290044012,-0.012742528805369174,-0.24432923029358217,-2.9785443941276855,-1.7923219529312024
1773063393875025408,1.5466206073760986,0.11434110999107361,-1.300633192062378,-0.3037450611591339,-0.14495402574539185,0.2432626634836197,0.9590684175491333,0.26984718441963196,-0.4176095128059387,0.0903702974319458,-0.141851794889636,0.7773564540831855,0.6125774557935311,-0.01854773559963928,-0.24572815001324447,-2.991587547757462,-1.7882404955078974
1773063393885080576,1.556675672531128,-0.13456033170223236,-1.0950664281845093,-0.19116953015327454,-0.13395369052886963,0.24288199841976166,0.960762619972229,0.25617659091949463,-0.34493279457092285,0.101798415184021,-0.1381555699583646,0.7764676356472455,0.6143934508147292,-0.023059601738796853,-0.2453357081155076,-3.003061356743792,-1.785699830519167
1773063393895136512,1.5667316913604736,-0.39253440499305725,-0.8503485321998596,-0.09057112783193588,-0.1249530166387558,0.24008481204509735,0.962676465511322,0.2334582656621933,-0.25456541776657104,0.1107792854309082,-0.1341311487858145,0.7761086634920416,0.6156245488408537,-0.025895753595860268,-0.24245322203944636,-3.012516771566961,-1.7846609475731394
1773063393905192704,1.5767877101898193,-0.4912031888961792,-0.7360187768936157,-0.04390562325716019,-0.1175311729311943,0.235600546002388,0.9647168517112732,0.1955188661813736,-0.20848573744297028,0.14712995290756226,-0.12994406393561836,0.776100332303274,0.6164630637460929,-0.02749661062539171,-0.2378364691444811,-3.0203603859010477,-1.7845683341862104
1773063393915247360,1.5868425369262695,-0.46704426407814026,-0.6458097696304321,0.03003823570907116,-0.11090131103992462,0.23083308339118958,0.9666523933410645,0.20585677027702332,-0.14317137002944946,0.1676095724105835,-0.12590956888905122,0.7762882913180476,0.6170110803571554,-0.028645215231412217,-0.2329337977340503,-3.0273648865021965,-1.7850626312408038
1773063393925303552,1.5968985557556152,-0.20204377174377441,-0.5081800222396851,0.10452445596456528,-0.10500961542129517,0.227540984749794,0.9680901765823364,0.23751690983772278,-0.03178592026233673,0.11259853839874268,-0.12271991002544905,0.7766360726858116,0.6171559668348715,-0.029914291274925477,-0.22955167806118953,-3.0335441919837547,-1.7861809242568987
1773063393935358464,1.6069536209106445,0.17405523359775543,-0.2506627142429352,0.1554366499185562,-0.10096054524183273,0.22754040360450745,0.9685207009315491,0.25217515230178833,0.007246583700180054,0.022842824459075928,-0.1214506114638532,0.7769939913234621,0.6168797957631789,-0.0314547571542067,-0.22955107669153377,-3.0377257804285374,-1.7875490104152094
1773063393945414656,1.6170096397399902,0.47690802812576294,-0.020326707512140274,0.1769384741783142,-0.09933579713106155,0.23095114529132843,0.9678810238838196,0.24766650795936584,-0.03586755692958832,-0.027558326721191406,-0.1223303261295654,0.7772908109615752,0.6162463058792995,-0.033086344247626985,-0.23305514980422237,-3.0393185053390295,-1.7889237395243105
1773063393955469568,1.6270647048950195,0.5722064971923828,0.13048546016216278,0.18292756378650665,-0.09949201345443726,0.23639607429504395,0.9665495157241821,0.25183576345443726,-0.10915306210517883,-0.03901362419128418,-0.12460005361406591,0.7775242730931506,0.6154110420561675,-0.0346410312457964,-0.2386551196524811,-3.0390186667204406,-1.790209720775568
1773063393965525504,1.6371207237243652,0.4554558992385864,0.21312201023101807,0.1894669532775879,-0.10076936334371567,0.24165567755699158,0.9651158452033997,0.2572177052497864,-0.1532919555902481,-0.04908478260040283,-0.12715814399874867,0.7777999339941183,0.614479611077025,-0.03567935988085779,-0.2440717293245345,-3.0375579380690434,-1.7915669764116406
1773063393975580416,1.6471755504608154,0.28040364384651184,0.25395190715789795,0.20751963555812836,-0.10254743695259094,0.24546019732952118,0.9639678597450256,0.25486063957214355,-0.1628338098526001,-0.04935574531555176,-0.12929580217517112,0.7782197626417294,0.6134801782835628,-0.03603955464267431,-0.24799438922208106,-3.0356106915112107,-1.7932243604169689
1773063393985636352,1.6572315692901611,0.0866304561495781,0.30453306436538696,0.18564124405384064,-0.10477461665868759,0.24742095172405243,0.9632267951965332,0.2449723184108734,-0.12420614063739777,-0.05812084674835205,-0.13083365050243775,0.7787687046926209,0.6124807825368446,-0.035627763768389824,-0.25001753214522165,-3.033244029656596,-1.795087486551901
1773063393995691520,1.6672866344451904,-0.10007231682538986,0.3451771140098572,0.11995037645101547,-0.10753433406352997,0.24754451215267181,0.9628905653953552,0.22618666291236877,-0.042527392506599426,-0.04331958293914795,-0.13178895745771507,0.7793058244440271,0.6116598106121048,-0.0344445557716849,-0.2501450580609751,-3.0303748382749354,-1.7966916021423895
1773063394005747456,1.6773426532745361,-0.31546372175216675,0.43880748748779297,0.061288658529520035,-0.11109963059425354,0.245573952794075,0.9629905819892883,0.21434056758880615,0.07864485681056976,0.013587474822998047,-0.13213849883717738,0.7797840078901416,0.6110909839846201,-0.03231514085982579,-0.24811173812363452,-3.0267310789436372,-1.7978501895496832
1773063394015802624,1.6873977184295654,-0.3872990906238556,0.5922120213508606,0.038244765251874924,-0.11592797189950943,0.2421383559703827,0.9632909297943115,0.19426661729812622,0.18252894282341003,0.09917837381362915,-0.13228614465755056,0.7802492381382989,0.610619853959593,-0.02923752888053469,-0.24456919099905125,-3.021822899211584,-1.798779344127133
1773063394025858304,1.697453498840332,-0.338664174079895,0.7680778503417969,0.012399320490658283,-0.12248808890581131,0.23861145973205566,0.9633592963218689,0.1749172955751419,0.21600890159606934,0.15749025344848633,-0.1329398235241096,0.7806778944890471,0.610099729443015,-0.025442637697493515,-0.24093575418209137,-3.0151244098241654,-1.799546635526461
1773063394035913472,1.7075085639953613,-0.30896684527397156,0.9004241228103638,-0.0803714245557785,-0.13067229092121124,0.23547889292240143,0.963054895401001,0.15996915102005005,0.21502164006233215,0.18394839763641357,-0.13425742973739657,0.7808937730252573,0.6096985840660688,-0.021155787049372474,-0.23771128349772414,-3.006731062679953,-1.79965370687484
1773063394045969408,1.717564582824707,-0.3439144194126129,1.0123834609985352,-0.24123461544513702,-0.1402904987335205,0.23213182389736176,0.9625141620635986,0.1396801620721817,0.20303358137607574,0.20479846000671387,-0.13593026202486902,0.780721251154027,0.6096978109478842,-0.016306883667002673,-0.23426881046748274,-2.996857621217891,-1.7985088226892632
1773063394056024576,1.7276196479797363,-0.46687614917755127,1.1809295415878296,-0.36262229084968567,-0.15177905559539795,0.22797955572605133,0.9617635011672974,0.09086592495441437,0.18011681735515594,0.27277958393096924,-0.13786569244247732,0.7800921365644065,0.610195059492849,-0.010557008629619764,-0.23000208555591473,-2.985070256343283,-1.7958798576226649
1773063394066080512,1.737675666809082,-0.9180156588554382,0.9172051548957825,-0.20585770905017853,-0.16270388662815094,0.2206203043460846,0.9616931676864624,0.04632513225078583,0.15204505622386932,0.43436378240585327,-0.1383373032250359,0.779681036595483,0.6106914646179754,-0.0040137762021714265,-0.22245039699532707,-2.973994881164755,-1.793933311187736
1773063394076136704,1.7477316856384277,-1.1288021802902222,0.8674676418304443,-0.141208678483963,-0.17170853912830353,0.210810124874115,0.9623281955718994,0.17416518926620483,0.0850578248500824,0.05161845684051514,-0.137218601387252,0.7799541946796305,0.6106026120782341,0.0026517409748313125,-0.2124036378772323,-2.965020529979796,-1.7943049422234696
1773063394086191360,1.757786512374878,-1.786258578300476,0.5462864637374878,-0.4898068606853485,-0.179087296128273,0.19625988602638245,0.9640589356422424,0.1156412661075592,-0.00689832866191864,-0.21886557340621948,-0.1336782550537756,0.7799462633621523,0.6113209469289411,0.01003059820892618,-0.19754215505251774,-2.957922427715256,-1.7937736570324683
1773063394096247552,1.7678425312042236,-2.1389591693878174,0.26506802439689636,-0.4583987891674042,-0.18407456576824188,0.1756824105978012,0.9670842289924622,0.18756884336471558,0.1562572717666626,-0.3577704429626465,-0.12698703605596162,0.7796865976442422,0.6128873620200159,0.018223390297532102,-0.17659891557017926,-2.95350281802123,-1.7925152817389713
1773063394106302464,1.777897596359253,-1.3266127109527588,0.22524818778038025,-0.19074125587940216,-0.1867755651473999,0.15762168169021606,0.9696751236915588,0.3722614645957947,0.29733431339263916,-0.36391669511795044,-0.12060697123904135,0.7797942974209418,0.6138064876605275,0.024825063971839277,-0.1582817673900644,-2.951306443650844,-1.7927571583296866
1773063394116358400,1.7879536151885986,-0.3684450387954712,0.27625715732574463,-0.14695964753627777,-0.18962718546390533,0.14949285984039307,0.9704091548919678,0.34616705775260925,0.21398678421974182,-0.40157651901245117,-0.11826295643412119,0.7797761435389691,0.6141284524085631,0.028450407632235004,-0.15005534377045107,-2.9486148890421853,-1.7928105486786796
1773063394126413568,1.798008680343628,-0.2020757794380188,0.19143974781036377,-0.2034199982881546,-0.19214597344398499,0.14663606882095337,0.9703494310379028,0.2578960657119751,0.22033782303333282,-0.4776124954223633,-0.11794050879488381,0.7793328695344044,0.6146665762823933,0.030255235182284415,-0.14716671551326072,-2.9461042616859574,-1.7915002857940334
1773063394136469504,1.8080646991729736,-0.16527046263217926,0.045539408922195435,-0.07451782375574112,-0.19350802898406982,0.1444753110408783,0.970402717590332,0.1747702658176422,0.1378275454044342,-0.5185137391090393,-0.11752841357442056,0.778967109257233,0.615151685051861,0.03139569622498164,-0.1449826949937051,-2.9447644368140455,-1.790393361401989
1773063394146524416,1.8181195259094238,0.1609577089548111,-0.10844056308269501,-0.004566173069179058,-0.1931663304567337,0.14434830844402313,0.9704896211624146,0.1366172879934311,-0.08763140439987183,-0.3339083194732666,-0.11737248482297684,0.7789146356797746,0.61525343729002,0.031286277715483674,-0.14485435612140457,-2.94512026354883,-1.7902057007280323
1773063394156580352,1.8281755447387695,0.24582774937152863,-0.24528393149375916,-0.08312959969043732,-0.19149942696094513,0.14660775661468506,0.9704813957214355,0.06642313301563263,-0.24966561794281006,-0.03890180587768555,-0.11775795373102334,0.778654722031895,0.615579019339581,0.029872533494293613,-0.1471381033433334,-2.946771335022419,-1.7892629513426208
1773063394166635520,1.8382306098937988,-0.04018561542034149,-0.3230067193508148,-0.04096643254160881,-0.18876418471336365,0.14750275015830994,0.9708815813064575,0.05953750014305115,-0.10969147086143494,0.14102637767791748,-0.11725973196713826,0.7784199285043559,0.6160383219499949,0.028449428085665012,-0.1480429251061527,-2.949562850624328,-1.7883637199577982
1773063394176691456,1.8482866287231445,-0.21958580613136292,-0.2341591715812683,0.024538135156035423,-0.18597473204135895,0.1461329162120819,0.971626877784729,0.08174192905426025,0.11625723540782928,0.18270063400268555,-0.11582632653622518,0.7785356655118865,0.6161945038408139,0.027764715471392462,-0.14665809211929967,-2.952474526312595,-1.788611683839112
1773063394186746624,1.8583416938781738,-0.1521095484495163,-0.07663984596729279,-0.014608468860387802,-0.18438763916492462,0.1441820114850998,0.9722203612327576,0.0406956672668457,0.190839946269989,0.2347496747970581,-0.1145402092800751,0.778708472484521,0.616216923344108,0.027753906664032286,-0.14468629419852952,-2.954162533796279,-1.7891035415126588
1773063394196802560,1.8683977127075195,0.11810921877622604,0.026014074683189392,-0.04999949783086777,-0.1842135637998581,0.14396069943904877,0.9722865223884583,0.0273531973361969,0.18701770901679993,0.13057315349578857,-0.11440163241748173,0.778607902232388,0.6163708253737057,0.027732766865514447,-0.1444626453259376,-2.95434781745816,-1.7887696209339654
1773063394206857472,1.8784525394439697,0.2671349048614502,0.07128168642520905,-0.04432084038853645,-0.184825137257576,0.14594902098178864,0.9718735218048096,0.03780674934387207,0.16137821972370148,0.03181886672973633,-0.11539766051454586,0.7783488371181001,0.6165304892499174,0.02732244733998251,-0.14647220292003457,-2.9536627064702596,-1.7879529924244542
1773063394216913408,1.8885085582733154,-0.08297339081764221,0.045150257647037506,-0.19208155572414398,-0.18554635345935822,0.1470041126012802,0.9715771675109863,0.02456614375114441,0.1611776202917099,0.0008653998374938965,-0.11606436735037601,0.7779277254107426,0.6169416832518301,0.027211051639742887,-0.1475387955944688,-2.952890437850869,-1.7866184394428986
1773063394226969600,1.8985645771026611,-0.6708345413208008,0.020763158798217773,-0.3422366976737976,-0.18626075983047485,0.14274278283119202,0.9720757007598877,-0.029284879565238953,0.17828688025474548,-0.03958076238632202,-0.11462604434965683,0.7772956620035186,0.6179395751676257,0.028687168901386038,-0.14323202199765278,-2.9522759415047592,-1.7846178515371844
1773063394237024512,1.9086196422576904,-0.8683483004570007,0.031134072691202164,-0.3100658059120178,-0.18697552382946014,0.13430161774158478,0.9731411933898926,-0.09395408630371094,0.09822709858417511,-0.04388070106506348,-0.11153431289724222,0.7766913191717956,0.6191293797865415,0.031458563325676446,-0.13470866759571376,-2.951769870099164,-1.782764093488311
1773063394247080448,1.9186756610870361,-0.9881013631820679,0.06375592947006226,-0.14185629785060883,-0.1877293735742569,0.12500007450580597,0.9742344617843628,-0.1013331264257431,-0.00788886845111847,-0.08344161510467529,-0.10810410702944376,0.7764666594193844,0.6198522003731405,0.03458759757443852,-0.12532790452851342,-2.951231626763759,-1.782206996487708
1773063394257135616,1.9287307262420654,-1.1671022176742554,0.06644316762685776,0.06028541922569275,-0.1885228157043457,0.11412667483091354,0.9754152894020081,-0.04534868896007538,0.019540347158908844,-0.05239558219909668,-0.10403126233025191,0.7769308606448792,0.619746779131402,0.038341077392318484,-0.11437588943672199,-2.9506722895594724,-1.7839727482527157
1773063394267191296,1.938786506652832,-0.8938450217247009,-0.0037026326172053814,0.061388760805130005,-0.1887468844652176,0.10408246517181396,0.9764946699142456,0.02288380265235901,0.020124085247516632,0.016593217849731445,-0.10008694596250084,0.7776920947723133,0.6192272230001306,0.04165771669663346,-0.1042713146200752,-2.9506570485942074,-1.7867144491009628
1773063394277246464,1.9488415718078613,-0.7137364745140076,-0.004224157426506281,0.013371673412621021,-0.18863162398338318,0.0963377133011818,0.9773112535476685,0.07228334248065948,-0.00043623149394989014,-0.03477585315704346,-0.09695923198937632,0.7781933951289736,0.6189270302721402,0.0440830259047547,-0.09648735873917934,-2.9509264310652292,-1.7885752090075775
1773063394287302400,1.958897590637207,-0.49318358302116394,0.034818049520254135,-0.013072184287011623,-0.1887335479259491,0.0904381051659584,0.9778549075126648,0.08242559432983398,0.026718877255916595,-0.003322005271911621,-0.0946418981071471,0.7784937455403091,0.6187688859654061,0.04599306053149785,-0.0905618407673018,-2.950929390625737,-1.789767982479746
1773063394297357568,1.9689526557922363,-0.5399438738822937,-0.23162764310836792,0.10713046789169312,-0.18897317349910736,0.08518064767122269,0.9782809019088745,0.10340188443660736,0.056466683745384216,0.08690464496612549,-0.09260850820664265,0.778953522339924,0.6183622420722915,0.04778331563258135,-0.08528399690232269,-2.950774273039851,-1.7914825402659262
1773063394307413504,1.979008674621582,-0.3345920443534851,0.23950979113578796,-0.12692782282829285,-0.18862871825695038,0.08130913227796555,0.9786767959594727,0.08685256540775299,-0.0018871352076530457,0.1737586259841919,-0.09096400865549535,0.7790733397835385,0.6183713414906711,0.04885909828290698,-0.08139899483426648,-2.951188934205847,-1.792007490538698
1773063394317468416,1.9890635013580322,-0.40228602290153503,0.18399766087532043,-0.03820047527551651,-0.19033722579479218,0.0775924026966095,0.9786478281021118,-0.0707101821899414,-0.137391597032547,0.11401891708374023,-0.09004677563756579,0.7789264040376641,0.6185447127362973,0.05067314899973489,-0.07767047576586443,-2.949500731945667,-1.7918412040322484
1773063394327524352,1.999119520187378,-0.4629366099834442,0.020439349114894867,0.17304491996765137,-0.1912604719400406,0.07332395017147064,0.9787967801094055,0.0497656911611557,-0.10341427475214005,0.15961575508117676,-0.08862045382598008,0.77932456551352,0.6181032429519631,0.05242185991995318,-0.07338981275030113,-2.94862054224846,-1.7934145218548592
1773063394337579520,2.0091745853424072,-0.44171589612960815,-0.06880433857440948,0.2299632877111435,-0.1907958686351776,0.0694047138094902,0.9791733622550964,0.08389271795749664,-0.1992417275905609,0.11575186252593994,-0.08685417779872102,0.7801989908272433,0.6171517072792727,0.053570598122200226,-0.06946055326143204,-2.949150022217129,-1.7964052957197043
1773063394347635456,2.019230604171753,-0.507779598236084,-0.09722532331943512,0.10944486409425735,-0.18980129063129425,0.06513100117444992,0.9796597361564636,0.07282745838165283,-0.252402126789093,0.027969539165496826,-0.08478839321595509,0.780979096167764,0.616361510373395,0.05459857645816558,-0.06517713955945106,-2.9502215154332747,-1.799072979272571
1773063394357690624,2.0292856693267822,-0.7028520703315735,-0.1335134506225586,-0.09873144328594208,-0.1886797994375229,0.05918040871620178,0.9802541136741638,0.076390340924263,-0.14632335305213928,-0.04904055595397949,-0.08206300469639119,0.7812764666722732,0.6162257131192989,0.05602442225206573,-0.059215008953940905,-2.951437731716311,-1.8002668366571597
1773063394367746560,2.039341688156128,-0.703489363193512,-0.23223550617694855,-0.18120262026786804,-0.18694809079170227,0.05167345702648163,0.9810100793838501,0.05906413495540619,0.07988783717155457,-0.029395461082458496,-0.07857392122897769,0.7811418223441405,0.6167029107088845,0.05763009594546447,-0.05169647982825107,-2.9532835733070124,-1.8001120333955543
1773063394377801472,2.049396514892578,-0.1456039398908615,-0.1883409470319748,-0.07268545031547546,-0.18474321067333221,0.04696038365364075,0.9816641807556152,0.027150452136993408,0.27759405970573425,-0.04691082239151001,-0.0760453931621485,0.7809648976232054,0.6171919623777873,0.058180587166675964,-0.046977661104980604,-2.9555744611953725,-1.7996205627110438
1773063394387857408,2.059452533721924,0.5443949699401855,0.03664156794548035,0.03102256916463375,-0.1839715987443924,0.04898284748196602,0.9817102551460266,-0.054782673716545105,0.3343179225921631,-0.09177196025848389,-0.0766111328321096,0.7808672021368952,0.6173342321159326,0.05723268705578159,-0.04900245682508718,-2.9563421956660316,-1.799104600631543
1773063394397913344,2.0695085525512695,0.9207630157470703,0.1779719889163971,-0.0022288907784968615,-0.1851099133491516,0.05653098225593567,0.9810906648635864,-0.11101742088794708,0.26088234782218933,-0.053279876708984375,-0.0799656421634336,0.7805982373855733,0.6174234652143192,0.055319485832841596,-0.05656113458936736,-2.9551072640860983,-1.7978909809979462
1773063394407968512,2.079563617706299,0.930942714214325,0.22727562487125397,-0.0850401520729065,-0.18716026842594147,0.06577475368976593,0.9801250696182251,-0.037098199129104614,0.11733072996139526,-0.041404128074645996,-0.08430089876560787,0.7800201190234641,0.6177630286079718,0.053206517697850245,-0.06582227480911292,-2.952908671686059,-1.7956949401962927
1773063394418024448,2.0896196365356445,0.4747917950153351,0.1465897411108017,-0.24522773921489716,-0.1891428828239441,0.07269696891307831,0.9792550206184387,0.05628460645675659,-0.03178815543651581,-0.010047197341918945,-0.08772465380972796,0.7791431601001745,0.6185171417842958,0.05173919839404502,-0.07276115059799672,-2.9507924421733214,-1.7926766816031656
1773063394428079616,2.099674701690674,-0.009365820325911045,-0.009231550619006157,-0.2911747395992279,-0.19004561007022858,0.07424755394458771,0.9789641499519348,0.09048193693161011,-0.08755318820476532,0.04003345966339111,-0.08869990509466642,0.7781703125432963,0.6196233028713152,0.051482660593584154,-0.0743159405346382,-2.9498483292490087,-1.7895343526840393
1773063394438135552,2.1097307205200195,-0.23827826976776123,-0.1008121594786644,-0.3299029767513275,-0.18960757553577423,0.07238870114088058,0.9791878461837769,0.08069033920764923,-0.06594948470592499,0.035750508308410645,-0.08790392287945717,0.7772918975952602,0.6208149624117324,0.051758831384636064,-0.07245207062589384,-2.950322202232112,-1.7867566299794506
1773063394448190464,2.1197855472564697,-0.49085456132888794,-0.06726352125406265,-0.35868722200393677,-0.18901485204696655,0.0680999755859375,0.979610025882721,-0.014445826411247253,0.05609130859375,0.013691365718841553,-0.08611028040236858,0.7763650181858177,0.622143361891558,0.05272582722994309,-0.06815271896016212,-2.9509859212786753,-1.7839429837812855
1773063394458246400,2.1298415660858154,-0.22686947882175446,0.001312918495386839,-0.25697067379951477,-0.18878521025180817,0.0634818896651268,0.9799643754959106,-0.09278522431850433,0.1438545286655426,0.059174418449401855,-0.08429399467618735,0.7755751967299164,0.6232698416864083,0.053966009709042785,-0.06352460600691291,-2.9512791354245933,-1.7816354917108443
1773063394468301568,2.1398966312408447,0.23497244715690613,0.15918803215026855,-0.18498064577579498,-0.1896781027317047,0.06335589289665222,0.9797999858856201,-0.0633736401796341,0.08494427800178528,0.024747014045715332,-0.08458815893414728,0.7748661982406697,0.624085227051008,0.05426592111440157,-0.06339835236441821,-2.9503694451362654,-1.779447986111443
1773063394478357504,2.1499526500701904,0.40369829535484314,0.2991756498813629,-0.047138966619968414,-0.19209088385105133,0.06624175608158112,0.9791391491889954,-0.029146328568458557,0.022945858538150787,0.09431684017181396,-0.08653413748775067,0.7742598070714352,0.6245729075935608,0.05424350695478309,-0.06629029987078365,-2.947869534879727,-1.7775584783625311
1773063394488412672,2.1600077152252197,0.7179084420204163,0.43526533246040344,0.2055545449256897,-0.19560730457305908,0.07188887149095535,0.9780440926551819,0.037770360708236694,-0.16185468435287476,0.13911306858062744,-0.08986715275858892,0.7741703938920761,0.6242453352981812,0.053869928883531475,-0.07195093931523698,-2.944198573371896,-1.7772742884927049
1773063394498468352,2.1700634956359863,0.6756343245506287,0.5850070118904114,0.13512879610061646,-0.20053277909755707,0.07966193556785583,0.9764431715011597,0.1144426017999649,-0.41526371240615845,0.16824102401733398,-0.09446164264066213,0.7743289981627224,0.6234069148699359,0.05343768043635322,-0.07974643685196212,-2.939038373618832,-1.7778068053169829
1773063394508523520,2.1801185607910156,-0.371891587972641,0.4817988872528076,-0.30011534690856934,-0.20598921179771423,0.08156517893075943,0.9751489758491516,0.14507615566253662,-0.42235496640205383,0.3100377321243286,-0.09698274161664296,0.7738187262999793,0.6235214950366064,0.05495315254457611,-0.08165589189449687,-2.93341436675889,-1.7765564512840597
1773063394518579456,2.1901745796203613,-1.4216325283050537,0.3137107491493225,-0.3690221309661865,-0.21010571718215942,0.07138638198375702,0.9750688672065735,0.1836927980184555,-0.1411495804786682,0.3875713348388672,-0.09437300637094756,0.7730020078736477,0.624501656309496,0.059659302632056585,-0.07144715068838699,-2.9293598202166233,-1.7749105321441572
1773063394528634624,2.2002296447753906,-1.3825865983963013,0.1552950143814087,-0.03567611053586006,-0.212566077709198,0.05668671429157257,0.9755009412765503,0.19463703036308289,0.045074138790369034,0.21903324127197266,-0.08940246595441965,0.772948313500231,0.6247410406006753,0.06524323626903585,-0.056717119273279895,-2.9270419495275997,-1.7759720226098057
1773063394538690560,2.2102856636047363,-0.8469448089599609,0.030242998152971268,0.07600109279155731,-0.21346662938594818,0.0456351675093174,0.9758838415145874,0.10277940332889557,0.009052328765392303,-0.005440235137939453,-0.08529370679076936,0.7735758818331182,0.624117203230542,0.06915940018988954,-0.045651020632091296,-2.926242744182024,-1.778916093564546
1773063394548745728,2.2203407287597656,-0.299557626247406,-0.00800984725356102,-0.12793445587158203,-0.21346129477024078,0.0400872603058815,0.9761284589767456,-0.07886654138565063,-0.033419184386730194,-0.2102290391921997,-0.08310108416707761,0.7737446735473343,0.6240059485498897,0.07092142518571809,-0.04009800448822823,-2.926300277938683,-1.7799051607968253
1773063394558801408,2.2303965091705322,0.16630247235298157,0.13337837159633636,-0.23275983333587646,-0.21406321227550507,0.03907640278339386,0.9760380387306213,-0.21264882385730743,0.04077284410595894,-0.31582069396972656,-0.08296487305426928,0.7731359946411464,0.6247237427157205,0.07139944510551723,-0.039086353707200004,-2.925692465227818,-1.7781096369245624
1773063394568857344,2.240452527999878,0.31739747524261475,0.29763972759246826,-0.08581911772489548,-0.21628795564174652,0.04132210090756416,0.9754550457000732,-0.22888725996017456,0.09136833995580673,-0.28853464126586914,-0.08462969733404777,0.7724071793501792,0.6253916158999996,0.07148726483853728,-0.04133386820228525,-2.923392510780748,-1.7758507490712554
1773063394578912512,2.2505075931549072,0.2548503875732422,0.2803597152233124,0.06365085393190384,-0.2192610651254654,0.044220320880413055,0.9746635556221008,-0.12763221561908722,0.09143030643463135,-0.2136620283126831,-0.0867317955980767,0.772162774536995,0.6253770205917752,0.07173417465479157,-0.044234743386822026,-2.9203155484650347,-1.7751770679092491
1773063394588968960,2.260564088821411,-0.07265744358301163,0.11581577360630035,0.0655432939529419,-0.22124141454696655,0.045401234179735184,0.974161684513092,0.007786214351654053,0.08001074939966202,-0.12203466892242432,-0.08780870244573685,0.7722657684913501,0.6250491433468854,0.07217198459924108,-0.045416847723998774,-2.918271230330716,-1.7756421186063467
1773063394599023872,2.2706189155578613,-0.2527734935283661,-0.09901262819766998,-0.020878395065665245,-0.22124679386615753,0.043671272695064545,0.9742392897605896,0.08982288837432861,0.12239012122154236,-0.0854455828666687,-0.08711514433364453,0.7724254072984015,0.6248828941074901,0.07274053107584977,-0.04368516795792883,-2.9182831771201854,-1.7762988161331805
1773063394609079808,2.280674934387207,-0.2269517332315445,-0.11107408255338669,-0.052829671651124954,-0.2200927585363388,0.04110261797904968,0.9746125340461731,0.0690155029296875,0.11295011639595032,-0.10475486516952515,-0.08574383795400936,0.7724380165725975,0.6250166320984174,0.07308684040876917,-0.04111420066667614,-2.9194922476088006,-1.7764191497290758
1773063394619134976,2.2907299995422363,-0.1209772378206253,-0.22560228407382965,0.0728432685136795,-0.21923615038394928,0.03917710483074188,0.9748850464820862,0.018644079566001892,0.041892848908901215,-0.0675363540649414,-0.08469710064332218,0.7726320756252981,0.6248857473939424,0.07337524494799068,-0.03918713250808646,-2.920388517407599,-1.7771024434445573
1773063394629190912,2.300786018371582,0.09003379940986633,0.1162775531411171,-0.15669004619121552,-0.2183416187763214,0.03939971327781677,0.9750767946243286,-0.02889654040336609,-0.10005340725183487,-0.0024358034133911133,-0.08451472384417527,0.7725180820343777,0.6251033549494385,0.07293081270928363,-0.03940991406351956,-2.9213040402714285,-1.7766111522025894
1773063394639246080,2.3108410835266113,-0.0804004818201065,0.06722604483366013,-0.14010845124721527,-0.21903838217258453,0.039208464324474335,0.9749282598495483,-0.13704074919223785,-0.20320993661880493,0.012956380844116211,-0.08472160530920278,0.7719939051476148,0.6256912393003946,0.07319957061605682,-0.03921851859914297,-2.9205911105958604,-1.7750347611842998
1773063394649302016,2.320897102355957,-0.1714550256729126,-0.09000059217214584,-0.046605393290519714,-0.21896687150001526,0.037611525505781174,0.975007176399231,-0.016659364104270935,-0.059217970818281174,0.14161574840545654,-0.08409821566395917,0.7717953484235991,0.6259676826115309,0.07364733118928835,-0.037620398211805454,-2.9206782544456464,-1.7745299413003466
1773063394659356928,2.3309519290924072,0.010890715755522251,-0.08597201108932495,-0.08867572247982025,-0.21791912615299225,0.03660273924469948,0.9752804636955261,-0.004355683922767639,-0.03458857536315918,0.1313023567199707,-0.0833839916980751,0.7716969274212703,0.6261981143463113,0.07353232151885916,-0.03661091630342301,-2.9217611289433707,-1.7741771492997067
1773063394669412864,2.341007947921753,0.26951879262924194,0.09836401045322418,-0.21705447137355804,-0.21795932948589325,0.03763112053275108,0.975231945514679,-0.07796959578990936,-0.054446302354335785,0.05729961395263672,-0.08386115127519013,0.7711599445113384,0.6268399438539441,0.07315232565288357,-0.03764000936299452,-2.9217112887911356,-1.7723784607470352
1773063394679468032,2.3510630130767822,0.24805070459842682,0.26140642166137695,-0.1485200673341751,-0.21982046961784363,0.04002798721194267,0.9747188687324524,-0.11291268467903137,-0.02129019796848297,0.07546734809875488,-0.08548346218134424,0.7703318810982934,0.6276529564423852,0.07302864119810287,-0.040038684130455596,-2.9197814929014716,-1.769753487198059
1773063394689523968,2.361119031906128,0.22429636120796204,0.23227012157440186,-0.020070739090442657,-0.22222867608070374,0.04207245633006096,0.974086344242096,-0.026748985052108765,0.08562835305929184,0.11644399166107178,-0.08709569485279953,0.7699060910100982,0.6279233959203521,0.0732880442341755,-0.042084878618324134,-2.9172909360450037,-1.768508899488081
1773063394699578880,2.3711740970611572,0.15819405019283295,0.09945952892303467,-0.13178570568561554,-0.22378796339035034,0.044021304696798325,0.9736430048942566,0.05212664604187012,0.13352996110916138,0.04831421375274658,-0.08839322836041899,0.7695490565221776,0.6281844823925002,0.0732464347136321,-0.044035533998294865,-2.915670521609068,-1.7673912264704417
1773063394709634816,2.381229877471924,0.11013944447040558,0.09211905300617218,-0.1543741077184677,-0.22475117444992065,0.04461381211876869,0.9733942151069641,0.07695455849170685,0.2350035011768341,-0.04616349935531616,-0.08899833002623,0.7689706525010892,0.6287934908401573,0.07336303206448694,-0.04462862686673106,-2.9146750657093743,-1.7656151235459199
1773063394719690752,2.3912858963012695,0.5145567059516907,0.08246749639511108,-0.1139071062207222,-0.22569537162780762,0.04740698263049126,0.9730439186096191,0.06732437014579773,0.17111414670944214,-0.10985410213470459,-0.090453430799641,0.768402960830992,0.6293479477249001,0.07277562822830887,-0.047424758780789056,-2.9136751290934044,-1.763684518624599
1773063394729745920,2.401340961456299,0.46788638830184937,0.1570328176021576,-0.25061357021331787,-0.22693763673305511,0.05239228904247284,0.9724990725517273,0.014413192868232727,-0.011468209326267242,-0.12337791919708252,-0.09289099170858765,0.7675321927387118,0.6301935218637588,0.0715664014203777,-0.05241628669402501,-2.912340062514521,-1.760648789350381
1773063394739801856,2.4113969802856445,-0.13161858916282654,0.18856944143772125,-0.15030452609062195,-0.22882407903671265,0.053429532796144485,0.9720003604888916,-0.07546667754650116,-0.11180965602397919,0.05654877424240112,-0.09399412788850241,0.766690315327195,0.6310199186714894,0.07186717846166236,-0.053454986610099446,-2.910386854084314,-1.7581137000026552
1773063394749857024,2.421452045440674,-0.3238722085952759,0.14482168853282928,0.057007912546396255,-0.23043884336948395,0.050965726375579834,0.9717513918876648,-0.04830874502658844,-0.25679153203964233,0.14354419708251953,-0.09356135659371734,0.7666203066492826,0.6310063424763995,0.07328479969358148,-0.0509878147225052,-2.9087558763214965,-1.7582898507935147
1773063394759912960,2.4315080642700195,-0.758869469165802,0.09354358166456223,0.09988587349653244,-0.23159655928611755,0.04612147435545921,0.9717182517051697,0.011534273624420166,-0.314020037651062,0.11150336265563965,-0.09199093715967942,0.7671014827060735,0.630408149470815,0.07535696833236054,-0.04613784186782199,-2.9076205500127172,-1.760377129796519
1773063394769967872,2.4415628910064697,-1.0753991603851318,-0.02689533680677414,0.008383961394429207,-0.23189881443977356,0.03702573850750923,0.9720351099967957,0.03094056248664856,-0.13224057853221893,0.10441148281097412,-0.0884755924407164,0.7676947434520995,0.6298113488994682,0.07845107550511803,-0.03703420412863142,-2.907399834617085,-1.7631305929634742
1773063394780023808,2.4516189098358154,-1.082869529724121,-0.0779632180929184,0.03839690983295441,-0.23132289946079254,0.026388682425022125,0.9725187420845032,0.027999624609947205,0.059167347848415375,0.013732731342315674,-0.08408347782082358,0.7682281437879883,0.6293527650149185,0.0816727210389966,-0.026391746196607085,-2.9080725013124176,-1.7657869522262362
1773063394790078976,2.4616739749908447,-0.8198147416114807,-0.06222526729106903,0.16722679138183594,-0.23059387505054474,0.017109423875808716,0.9728996157646179,-0.0039794594049453735,0.15893122553825378,-0.032210588455200195,-0.08013662570230426,0.7689921490927721,0.6285705107713867,0.08442923013083345,-0.017110258281961454,-2.9088699968502265,-1.7690762802651752
1773063394800134912,2.4717299938201904,-0.48897579312324524,-0.02990635111927986,0.19214726984500885,-0.23012524843215942,0.011332379654049873,0.9730952978134155,-0.01895928382873535,0.12885011732578278,-0.08903133869171143,-0.07761800410392324,0.7698593895596706,0.627585982599775,0.08618541653627532,-0.01133262244126831,-2.909371144437496,-1.7723947515558338
1773063394810190080,2.4817850589752197,-0.44194409251213074,-0.10985151678323746,0.10592184960842133,-0.2295001894235611,0.007217438891530037,0.973281741142273,-0.015937402844429016,0.07568356394767761,-0.038726806640625,-0.0757172213630529,0.7705627676075624,0.6267965380751481,0.0873268258704423,-0.00721750168735207,-2.9100223583004876,-1.7750038373020207
1773063394820246016,2.4918410778045654,-0.5055243372917175,-0.21059972047805786,0.05849173292517662,-0.22801142930984497,0.0027505974285304546,0.9736545085906982,0.01782163977622986,0.07220057398080826,0.00011557340621948242,-0.07343569937205846,0.7710434175579636,0.6263539636783119,0.08820382265903033,-0.0027506008294741293,-2.9115569170059166,-1.776827381497685
1773063394830300928,2.5018959045410156,-0.4644160568714142,-0.3275739848613739,0.0975099727511406,-0.22533641755580902,-0.001933563849888742,0.9742792844772339,0.07103951275348663,0.10491512715816498,0.041757822036743164,-0.07068696649097657,0.7715796869169336,0.6259428407864384,0.08867808017548484,0.0019335650974581303,-2.9143039530960437,-1.7786889825534082
1773063394840356864,2.5119519233703613,-0.19196367263793945,-0.35633382201194763,0.13273048400878906,-0.2219458818435669,-0.00502311997115612,0.9750464558601379,0.10124878585338593,0.08763419836759567,-0.03414332866668701,-0.06832140688313369,0.7722244314863271,0.625453949086248,0.0883694469631479,0.005023141109900688,-2.917780195023931,-1.7806144790057337
1773063394850411776,2.5220069885253906,0.1541127860546112,-0.40374502539634705,0.09067758917808533,-0.21819493174552917,-0.004837829619646072,0.9758934378623962,0.08693879842758179,-0.019225284457206726,-0.09128022193908691,-0.06713984300767327,0.7727627266488849,0.6251275848418324,0.08686560034177801,0.0048378484676470665,-2.9216256377384138,-1.7817762028786024
1773063394860467968,2.5320630073547363,0.15711234509944916,-0.4452837109565735,0.0034091153647750616,-0.2140796184539795,-0.0030564649496227503,0.9768115282058716,0.07520937919616699,-0.04343706741929054,-0.028401494026184082,-0.06650707092499832,0.7730309172817794,0.6251631612608598,0.08468230027504157,0.0030564697587460734,-2.925842153908306,-1.7818565826949335
1773063394870523904,2.542119026184082,0.1115131676197052,-0.4161364436149597,-0.011337073519825935,-0.2097860425710678,-0.0018097766442224383,0.9777455925941467,0.06246243417263031,0.047616660594940186,0.069114089012146,-0.06563064331393749,0.7731424123357726,0.6253987561750419,0.08258206740150745,0.0018097776686857756,-2.930236162684981,-1.7814900419456072
1773063394880579072,2.5521740913391113,0.27011409401893616,-0.32436060905456543,-0.013745838776230812,-0.20605400204658508,-1.7273810954065993e-05,0.9785406589508057,0.020827561616897583,0.08781635016202927,0.07954955101013184,-0.06514921249511803,0.7732117911127042,0.6256307594891116,0.08053116862390974,1.7273811580842128e-05,-2.9340519573677115,-1.7810249383283752
1773063394890634752,2.562229871749878,0.3371775448322296,-0.1617962121963501,-0.03726448118686676,-0.20369091629981995,0.0029281589668244123,0.9790310263633728,-0.04995599389076233,0.07965240627527237,0.03367972373962402,-0.06556621734381099,0.7731382706394754,0.6259175131376854,0.07864881775356608,-0.0029281631244810506,-2.9364653986398617,-1.7801806547584067
1773063394900689920,2.5722849369049072,0.5371273756027222,-0.0019706548191607,-0.153897225856781,-0.20286765694618225,0.007030729204416275,0.9791811108589172,-0.09319867193698883,0.020480871200561523,-0.01642763614654541,-0.06695851740493075,0.7727408044625066,0.626468049030407,0.07698112305868575,-0.0070307871848486695,-2.937301989138838,-1.7783982984768647
1773063394910745856,2.582340955734253,0.6689498424530029,0.0962725579738617,-0.23333905637264252,-0.20346331596374512,0.012644637376070023,0.979000985622406,-0.08622482419013977,-0.11017881333827972,-0.03977668285369873,-0.06944237787794198,0.7718716131110783,0.6274669031048445,0.07534784879844249,-0.012644974755651095,-2.9366821173133735,-1.7751582319736767
1773063394920801024,2.5923960208892822,0.6668907403945923,0.018980568274855614,-0.22759711742401123,-0.20414890348911285,0.018802590668201447,0.9787591099739075,-0.03555138409137726,-0.14290232956409454,-0.02204841375350952,-0.07217657935329322,0.7708806011186177,0.6285878161914004,0.07355890217082892,-0.018803698482576046,-2.9359615282829274,-1.7715122095881666
1773063394930856960,2.602452039718628,0.6748767495155334,-0.06283813714981079,-0.23491334915161133,-0.20391233265399933,0.024677008390426636,0.9786782264709473,0.003686472773551941,-0.08336231112480164,-0.022837042808532715,-0.0744950166517225,0.7699545712954897,0.6296896549222917,0.0714943850733901,-0.024679513104594642,-2.9361766537176837,-1.7680149521295792
1773063394940912128,2.6125071048736572,0.8603521585464478,0.174655020236969,-0.21069274842739105,-0.20446237921714783,0.031762346625328064,0.9783589243888855,-0.03325429558753967,-0.08287928998470306,-0.05306601524353027,-0.07754107323808744,0.768914576490849,0.6308326564691896,0.06933897341805235,-0.03176768836428199,-2.935572751785421,-1.764171251992487
1773063394950967808,2.622562885284424,0.8676897287368774,0.4081314504146576,-0.28461146354675293,-0.20750676095485687,0.04005448892712593,0.9774129986763,-0.05103810131549835,-0.11128251999616623,0.04471200704574585,-0.0818645478030309,0.7677038621224163,0.6319313843664598,0.06776129018996391,-0.04006520526185986,-2.9323966842160476,-1.759995661571755
1773063394961022976,2.632617950439453,0.5789634585380554,0.45408907532691956,-0.47721320390701294,-0.21208062767982483,0.04635011777281761,0.9761525988578796,-0.015427947044372559,-0.09459840506315231,0.10047721862792969,-0.08594964662303323,0.7660348552732368,0.6334563112296369,0.0673532906352147,-0.04636672813412915,-2.9276556740149022,-1.7547197958117173
1773063394971078912,2.642673969268799,0.42166969180107117,0.3709894120693207,-0.548865556716919,-0.21638870239257812,0.05002081021666527,0.9750251770019531,0.019245117902755737,-0.08131659030914307,0.0006829500198364258,-0.08897321626104977,0.7639959346619662,0.6354705295375449,0.06761095562968464,-0.05004169436128437,-2.9232008568871133,-1.7484729968418389
1773063394981133824,2.652729034423828,0.6004688739776611,0.2727079689502716,-0.3924318552017212,-0.21976949274539948,0.05358750745654106,0.9740790128707886,0.0027589648962020874,-0.14469772577285767,-0.08331656455993652,-0.09164188494886372,0.762126990345189,0.6373397540216583,0.06754482086717005,-0.05361318926652302,-2.919690327795286,-1.7426869956682818
1773063394991190016,2.662785053253174,1.2816119194030762,0.2551526725292206,-0.2573760151863098,-0.22260405123233795,0.06218240037560463,0.9729236960411072,-0.008032530546188354,-0.31218239665031433,-0.16169029474258423,-0.09603770901342265,0.7606006124933653,0.6387085018364904,0.06568746056491356,-0.06222254437144963,-2.9166651435051274,-1.7375454864469453
1773063395001244672,2.672839879989624,1.2704687118530273,0.1894226223230362,-0.43219202756881714,-0.225041002035141,0.07457245886325836,0.9714915156364441,-0.04551258683204651,-0.33476534485816956,-0.08823645114898682,-0.10178812782827487,0.7588111165005366,0.6402745015861273,0.06239781990363168,-0.07464175019262287,-2.9139626163229053,-1.7313052317373556
1773063395011300864,2.6828958988189697,0.30627599358558655,0.14167746901512146,-0.6257479190826416,-0.22701223194599152,0.08125005662441254,0.970496654510498,-0.1499256193637848,-0.07142339646816254,0.13144725561141968,-0.10522028018183668,0.7565606789917628,0.6425451477937995,0.06066577310396591,-0.0813397199113935,-2.9118106110974478,-1.724028720534791
1773063395021356800,2.6929519176483154,-0.10987331718206406,0.2359522432088852,-0.3938441276550293,-0.22924470901489258,0.08036982268095016,0.9700450897216797,-0.15393398702144623,0.24239933490753174,0.16661256551742554,-0.10578491058320258,0.754778467749776,0.6444625799302794,0.061538501223115306,-0.08045659762580426,-2.90952658461944,-1.7187676940460461
1773063395031411968,2.7030069828033447,0.1769278198480606,0.41676679253578186,-0.19953857362270355,-0.232468843460083,0.07995724678039551,0.9693114757537842,-0.05712766945362091,0.2919604778289795,0.050067007541656494,-0.10678876599625323,0.7537417307945321,0.6453906840027301,0.06277209819603355,-0.08004268646831758,-2.9062095119556286,-1.7159018430089472
1773063395041467904,2.7130630016326904,0.4594057500362396,0.43317875266075134,-0.10796968638896942,-0.23678000271320343,0.08278373628854752,0.9680299758911133,0.06081564724445343,0.2585553526878357,-0.16320514678955078,-0.1093730549779961,0.7529470322655104,0.645821762044915,0.06342345658580684,-0.0828785849867162,-2.901702886198174,-1.7136742475153046
1773063395051523072,2.7231180667877197,0.7012932300567627,0.22980989515781403,-0.1298808455467224,-0.2402472347021103,0.08801883459091187,0.9667128324508667,0.20547248423099518,0.21277767419815063,-0.25131988525390625,-0.11260124579708998,0.7521841526865738,0.6462007540278183,0.06296411129044428,-0.0881328826004416,-2.8980076485976376,-1.7112925530219905
1773063395061579008,2.7331740856170654,1.222710371017456,0.04692642390727997,-0.3950212299823761,-0.2417394518852234,0.09665542840957642,0.9655154347419739,0.2564794421195984,0.045113980770111084,-0.2729952335357666,-0.11653935755986909,0.7507896565662523,0.6473581677869733,0.06050565500712996,-0.09680656166023949,-2.896262514424697,-1.706538489415994
1773063395071633920,2.7432289123535156,1.5597912073135376,-0.011146465316414833,-0.7710409760475159,-0.2424192726612091,0.10897467285394669,0.9640316963195801,0.1402464658021927,-0.16462349891662598,-0.1752745509147644,-0.12173087034915739,0.7480264719088966,0.6499786509930774,0.056264276996615216,-0.10919151778252648,-2.895236579651362,-1.6973034505000983
1773063395081689856,2.7532849311828613,1.5122859477996826,0.07992931455373764,-0.9473835229873657,-0.24364106357097626,0.12194552272558212,0.9621686339378357,-0.05437834560871124,-0.21653476357460022,-0.019327998161315918,-0.12741624682086686,0.7441630488191031,0.6536862115981918,0.05177667774591115,-0.12224980146173386,-2.893584990987185,-1.6848111921131896
1773063395091745024,2.7633399963378906,1.309395432472229,0.36290085315704346,-0.7225334048271179,-0.24674822390079498,0.13352017104625702,0.9598373770713806,-0.2175615131855011,-0.16893580555915833,0.05287325382232666,-0.13317085930150296,0.7403532142374543,0.6571117252976455,0.04844441089716164,-0.13392010828690148,-2.889968269745964,-1.6728246994031268
1773063395101800960,2.7733960151672363,0.8338758945465088,0.6703360080718994,-0.22988194227218628,-0.2524483799934387,0.14290717244148254,0.9569990634918213,-0.2421957552433014,-0.09656623005867004,0.06913912296295166,-0.1388677082330447,0.7378819228480844,0.6588093780040074,0.047076422331715606,-0.1433981107371605,-2.8836763039347773,-1.6652769747432876
1773063395111855872,2.7834510803222656,0.12565425038337708,0.7621687054634094,0.12542982399463654,-0.25951889157295227,0.14742054045200348,0.954419732093811,-0.10222119092941284,0.03655467927455902,0.04442054033279419,-0.14305322947679222,0.7372694319643015,0.6585162485782793,0.048227368832341334,-0.14795980238743422,-2.876098905205954,-1.6637281469284402
1773063395121912064,2.7935070991516113,-0.26872017979621887,0.6820337772369385,0.12056190520524979,-0.2663370370864868,0.1468096822500229,0.9526341557502747,0.08193451166152954,0.0980938971042633,0.005312800407409668,-0.1451312839197867,0.737642306274045,0.657419890796522,0.05118514533983588,-0.14734223301567193,-2.8689738659880697,-1.6654335889951792
1773063395131966720,2.8035619258880615,-0.4417652189731598,0.5446048378944397,-0.04819915071129799,-0.27211523056030273,0.14341482520103455,0.9515177011489868,0.17978423833847046,0.06543223559856415,-0.0015968084335327148,-0.14579933464963796,0.7378720198661554,0.6567371785004521,0.054624340789634025,-0.1439110564810177,-2.8630471504177124,-1.6668126807758463
1773063395142022912,2.8136179447174072,-0.38674965500831604,0.504989743232727,-0.20034067332744598,-0.27724528312683105,0.13903646171092987,0.9506861567497253,0.18113017082214355,0.047898948192596436,-0.09147894382476807,-0.14591103310955028,0.7376053110366103,0.6567202457036598,0.05802549803252639,-0.13948836503019182,-2.857835547859626,-1.6667308720000882
1773063395152077824,2.8236730098724365,-0.4017496407032013,0.5666275024414062,-0.2973755896091461,-0.2826322019100189,0.1347341686487198,0.9497188329696655,0.08339819312095642,0.014222115278244019,-0.07593953609466553,-0.1461832945382209,0.7368959087339032,0.6571482649677584,0.061408950959111495,-0.1351451835772825,-2.852343132965237,-1.6653715999289733
1773063395162134016,2.8337290287017822,-0.6006729006767273,0.6463624835014343,-0.29942867159843445,-0.2887689471244812,0.12912341952323914,0.9486513137817383,-0.04974722862243652,-0.0057713985443115234,0.022906124591827393,-0.14623724359873075,0.736031051218347,0.6577111546512308,0.06548991100926069,-0.12948494273539365,-2.8461045678649053,-1.6637686839510053
1773063395172188928,2.8437840938568115,-0.5830742120742798,0.6309548020362854,-0.1788814663887024,-0.295165479183197,0.12246367335319519,0.9475652575492859,-0.08358815312385559,0.03770782798528671,0.045003652572631836,-0.1459580789857434,0.7354820046528879,0.6579124911766077,0.0700970179625404,-0.12277186323242614,-2.839620132912992,-1.6633184393200295
1773063395182244864,2.853839874267578,-0.22309234738349915,0.5854633450508118,-0.1025412380695343,-0.30120664834976196,0.11813462525606155,0.946212887763977,-0.06335633993148804,0.07672011107206345,0.07566821575164795,-0.14642609491333453,0.7351267202326534,0.6577956669116407,0.07384424048056504,-0.11841114410177397,-2.833406559290588,-1.6633035933401272
1773063395192300800,2.863895893096924,0.26255103945732117,0.5785558819770813,-0.06746234744787216,-0.30671989917755127,0.1180032342672348,0.9444565176963806,-0.07444465160369873,0.0569540411233902,0.03358602523803711,-0.14832887536711878,0.7346039759805878,0.6577121478956219,0.07596235872918769,-0.11827882253106375,-2.827579564363065,-1.6623899554826402
1773063395202355968,2.873950958251953,0.530078113079071,0.7058746218681335,0.03505881130695343,-0.3128505051136017,0.12195342034101486,0.9419405460357666,-0.08348128199577332,0.004618242383003235,-0.0356142520904541,-0.15200757012312838,0.7340064842943851,0.6574228127661195,0.07696391395214666,-0.12225775474630825,-2.820921857995912,-1.660968549662832
1773063395212411904,2.884006977081299,0.4392879903316498,0.7682117819786072,0.11643330007791519,-0.31977465748786926,0.12703059613704681,0.9389394521713257,-0.05908578634262085,-0.029206514358520508,0.05015045404434204,-0.15637854104798357,0.7335491877957658,0.6567916908406117,0.0779486900935109,-0.12737474857332498,-2.8133432679419648,-1.659976822939849
1773063395222467072,2.894062042236328,0.2693427801132202,0.7658480405807495,0.31220829486846924,-0.3263665735721588,0.13125194609165192,0.9360862374305725,-0.04883170127868652,-0.1359822005033493,0.18828797340393066,-0.16025058792923996,0.7336385775017683,0.6556047171975217,0.07922462735821757,-0.13163174745457495,-2.806120908238517,-1.6606982897837306
1773063395232523008,2.904118061065674,0.09034745395183563,0.730175793170929,0.5542305111885071,-0.3328951895236969,0.13411971926689148,0.9333770871162415,-0.0180569589138031,-0.23200486600399017,0.2630798816680908,-0.16347276100326918,0.7346587316294848,0.6534256513966028,0.08116735317302373,-0.13452510450575916,-2.7989999269739676,-1.6644006047929616
1773063395242577664,2.914172887802124,0.20844677090644836,0.6000158190727234,0.5614869594573975,-0.3384048044681549,0.13741672039031982,0.9309130311012268,-0.00012668967247009277,-0.2825125455856323,0.24457836151123047,-0.166447187254202,0.7361413101912329,0.6508090914411139,0.08269751016160734,-0.1378529163930936,-2.792925094489489,-1.6693753938756117
1773063395252633856,2.9242289066314697,0.19727188348770142,0.5023244023323059,0.5136643052101135,-0.34274378418922424,0.14124296605587006,0.9287503957748413,-0.015013813972473145,-0.21248623728752136,0.11356234550476074,-0.16923983655736843,0.7374703200024995,0.6484695246401154,0.0835627141529246,-0.14171685536589979,-2.7880595316240453,-1.6736979992099532
1773063395262688768,2.934283971786499,-0.022619273513555527,0.5163112282752991,0.4591469168663025,-0.34672632813453674,0.14400093257427216,0.9268465638160706,-0.009810537099838257,0.045726850628852844,-0.016308903694152832,-0.17150235658393218,0.738760361752781,0.64626342737857,0.0846383573143451,-0.14450331201332592,-2.7836178611754803,-1.6779774203706306
1773063395272744960,2.9443399906158447,-0.13834960758686066,0.57817542552948,0.3669317662715912,-0.3510678708553314,0.14429326355457306,0.9251651763916016,0.04262673854827881,0.29253536462783813,-0.1374760866165161,-0.17293590036504852,0.7400067493316237,0.6441836676634031,0.08666333204898227,-0.14479872174332845,-2.7789131602267885,-1.6824350062207982
1773063395282799872,2.954395055770874,-0.2638728618621826,0.4987795948982239,0.01400856114923954,-0.3549983501434326,0.14331260323524475,0.923816978931427,0.08128619194030762,0.37301430106163025,-0.17013955116271973,-0.1738139753687401,0.7406264166997991,0.6429471270271415,0.08877077962954893,-0.14380776936711084,-2.7747167083639845,-1.6850368169973897
1773063395292856064,2.9644510746002197,-0.3828418552875519,0.6164153814315796,-0.16628211736679077,-0.36005324125289917,0.14007394015789032,0.922356128692627,0.07331010699272156,0.563340961933136,-0.14594322443008423,-0.1743238967551035,0.7403368836970655,0.6427125081828857,0.09183179585246859,-0.14053608374659668,-2.7694219937529145,-1.6852353023086255
1773063395302910720,2.97450590133667,-0.3027168810367584,0.8224664330482483,-0.09267226606607437,-0.3671968877315521,0.13617950677871704,0.9201205968856812,0.013360798358917236,0.7084402441978455,-0.1055910587310791,-0.17532008825458711,0.7398683488878485,0.6423823733273274,0.09593045465909184,-0.13660395886478066,-2.761884165128483,-1.6853268064205311
1773063395312966912,2.9845619201660156,0.08827242255210876,0.8620628714561462,0.03924155607819557,-0.3749704957008362,0.13507643342018127,0.9171434044837952,-0.07456877827644348,0.4493809938430786,-0.1370069980621338,-0.17760673214020078,0.7394673841640184,0.6416850452113908,0.09941975371027245,-0.13549060197664434,-2.753483676888498,-1.6854890291033444
1773063395323021824,2.994616985321045,0.022119268774986267,0.9832804203033447,0.07393058389425278,-0.38336703181266785,0.13630922138690948,0.9134823679924011,-0.0999704897403717,0.008435666561126709,-0.1852564811706543,-0.18100891113616746,0.7391157617483994,0.6406629946442338,0.10244376130504289,-0.13673490238262676,-2.7442397428770855,-1.6856926495586222
1773063395333078016,3.0046730041503906,-0.41385698318481445,0.9459276795387268,0.007125448435544968,-0.3923465311527252,0.13471421599388123,0.9098989963531494,-0.011935055255889893,-0.23349963128566742,0.07670372724533081,-0.1834849565957903,0.7389412001354002,0.6394649277380292,0.10669465439301057,-0.13512503685849342,-2.7344840536571797,-1.6869494437171317
1773063395343133952,3.0147290229797363,-0.7479407787322998,0.5329031348228455,-0.22354422509670258,-0.3994113802909851,0.12884794175624847,0.9076723456382751,0.12360870838165283,-0.3719204366207123,0.4139373302459717,-0.18365150777582145,0.7387184964208131,0.6388514241901849,0.1115169981766624,-0.12920715308178066,-2.7270529448284617,-1.6883262576960796
1773063395353188864,3.0247840881347656,-0.36757057905197144,0.4473712146282196,-0.2375045120716095,-0.4038368761539459,0.12193478643894196,0.9066686034202576,0.14031755924224854,-0.47157469391822815,0.2376948595046997,-0.1825526821735348,0.738257897449378,0.638991065384114,0.11550015233042764,-0.12223898382883923,-2.722564533585296,-1.6886767255780621
1773063395363245056,3.0348401069641113,0.14431814849376678,0.7234385013580322,-0.21596713364124298,-0.40922820568084717,0.1206018328666687,0.9044269323348999,-0.04006695747375488,-0.4670220911502838,0.0113142728805542,-0.18404760739058965,0.7373038424664597,0.6392155312271841,0.11795409766707139,-0.12089611906519568,-2.7166845940799944,-1.6869636635145084
1773063395373299712,3.0448949337005615,-0.021813834086060524,0.935940146446228,-0.326596200466156,-0.4173775315284729,0.12016011029481888,0.9007537961006165,-0.1489371359348297,-0.07311727106571198,0.037249624729156494,-0.1869364918257225,0.7358316165474733,0.6394753501276396,0.12115201231014848,-0.12045116033021688,-2.707680379532644,-1.6841098779496946
1773063395383355904,3.0549509525299072,0.18292564153671265,0.861588180065155,-0.24163106083869934,-0.42591163516044617,0.11928968876600266,0.8968663215637207,-0.07054829597473145,0.26948899030685425,0.08695930242538452,-0.1898247934492695,0.734258562947888,0.6397636460803663,0.1246329567487096,-0.11957443357274555,-2.6982351732924696,-1.6811445050010971
1773063395393410816,3.0650060176849365,0.5525886416435242,0.8175477385520935,-0.09728612750768661,-0.43368062376976013,0.12215913832187653,0.8927475214004517,0.03612816333770752,0.22000393271446228,-0.10829323530197144,-0.1938811889784734,0.7328812154668722,0.6397334549184119,0.12663448041055578,-0.12246502130028736,-2.689384054182513,-1.6781066580199409
1773063395403467008,3.0750620365142822,0.6701655387878418,0.8157651424407959,-0.23628869652748108,-0.44131508469581604,0.12724778056144714,0.8882843852043152,0.011551231145858765,0.06905655562877655,-0.1682831048965454,-0.19883389505412577,0.7311786052396729,0.6399375354495576,0.12776122102287704,-0.12759370411003815,-2.6804944184360475,-1.673703073984103
1773063395413521920,3.0851171016693115,0.35559961199760437,0.6108388900756836,-0.14492149651050568,-0.44816529750823975,0.13084687292575836,0.8843229413032532,-0.021393418312072754,-0.016985788941383362,-0.1808621883392334,-0.20294011392744782,0.7295285114082481,0.6402730781812771,0.129049873668898,-0.13122315449485614,-2.6725284487892194,-1.6695356499550797
1773063395423577856,3.095172882080078,0.14636725187301636,0.34471189975738525,-0.12093160301446915,-0.45242276787757874,0.13264478743076324,0.8818839192390442,0.05602988600730896,-0.09785473346710205,-0.2565176486968994,-0.2053110987173388,0.7285867266536271,0.6403931090128898,0.13002099063492237,-0.1330368751271268,-2.667584565115683,-1.6672854147406273
1773063395433632768,3.1052279472351074,-0.015767326578497887,0.25777193903923035,-0.17086267471313477,-0.45514976978302,0.13230232894420624,0.8805307745933533,0.050624072551727295,-0.17521005868911743,0.0420459508895874,-0.20628121471311248,0.7278336242850891,0.6407211548079873,0.13108235264051202,-0.13269137575471757,-2.664513576289566,-1.66561940978983
1773063395443688960,3.115283966064453,-0.10437306016683578,0.19600501656532288,0.037443846464157104,-0.45732638239860535,0.13156910240650177,0.8795126676559448,0.05043545365333557,-0.059410274028778076,0.3936502933502197,-0.20682538368740352,0.727489427034082,0.6407148111413108,0.1321628992187561,-0.13195167970531194,-2.6620914334948966,-1.6651713285929401
1773063395453743872,3.1253390312194824,-0.2525007426738739,-0.0065408991649746895,0.20117393136024475,-0.458055704832077,0.13042470812797546,0.8793034553527832,0.11488547921180725,0.20362073183059692,0.6816707849502563,-0.20652202561225164,0.7280294777769042,0.6400193754623721,0.1330299903297412,-0.13079732887081946,-2.661341442535709,-1.6672157656394226
1773063395463800064,3.135395050048828,0.16661719977855682,-0.10650737583637238,0.30073752999305725,-0.4570524990558624,0.1308479905128479,0.8797620534896851,0.09168094396591187,0.3465384244918823,0.6344588994979858,-0.20613909672369995,0.7289868209996045,0.6391081558205427,0.13276107593992031,-0.13122428225073063,-2.662452585131913,-1.6699037718812653
1773063395473854720,3.1454498767852783,0.6410524249076843,0.029478419572114944,0.24833932518959045,-0.4563335180282593,0.13597919046878815,0.8793575763702393,0.006092369556427002,0.22360944747924805,0.2524632215499878,-0.20778943278487091,0.7294819541136459,0.6383845841951844,0.1309383822712415,-0.1364017694166065,-2.6629083899039796,-1.6704630041313755
1773063395483910912,3.155505895614624,0.44032835960388184,-0.04137483984231949,0.43799343705177307,-0.45578399300575256,0.1420823186635971,0.8786771893501282,-0.03387051820755005,0.023414477705955505,-0.14669781923294067,-0.2099075560664956,0.7298562324484208,0.6376899421003854,0.1288418891235492,-0.14256476318627934,-2.66308452448662,-1.6705527684475046
1773063395493966848,3.1655619144439697,0.3024202883243561,-0.5820018649101257,0.5336073637008667,-0.4515796899795532,0.14753836393356323,0.8799481391906738,0.08860349655151367,-0.13758961856365204,-0.7419931888580322,-0.21026767642749256,0.7314289732905258,0.6363848912865622,0.1257520234670739,-0.14807893643935363,-2.667449617316989,-1.6737059066803766
1773063395504021760,3.175616979598999,-0.30773842334747314,-0.656320333480835,0.23865509033203125,-0.44539788365364075,0.14943012595176697,0.8827751278877258,0.09615457057952881,-0.2766426205635071,-0.5749898552894592,-0.20855391140773671,0.7330165459657998,0.6356684054583371,0.12295467395410702,-0.14999190918354374,-2.6743173797614705,-1.6770490693484839
1773063395514077952,3.1856729984283447,-0.6378026604652405,-0.7020127177238464,0.2535421848297119,-0.43909016251564026,0.14601150155067444,0.8864986896514893,-0.004879415035247803,-0.17610187828540802,0.08768320083618164,-0.20470842599048694,0.7346938730681752,0.6351962386903275,0.12183994698745716,-0.14653535392574785,-2.6817054378974494,-1.6814455307925835
1773063395524132864,3.195728063583374,-0.5886411070823669,-0.6841562986373901,0.3280867338180542,-0.4323377311229706,0.14148814976215363,0.8905420303344727,0.06305980682373047,0.11441698670387268,0.29576772451400757,-0.20022741805158267,0.7366959535620957,0.6344683583338447,0.12098736228609762,-0.14196452791372047,-2.6896307648188498,-1.686940809020035
1773063395534189056,3.2057840824127197,-0.06145934760570526,-0.4856954514980316,0.5295349359512329,-0.4263843894004822,0.14034253358840942,0.893588662147522,0.0006030797958374023,0.20002003014087677,0.4895901679992676,-0.1973446404557826,0.7387749550610752,0.6332502649532974,0.11941883370085866,-0.14080736983804867,-2.696383781048176,-1.6923948349485303
1773063395544243712,3.21583890914917,0.056411661207675934,-0.3279273509979248,0.546728253364563,-0.4220127463340759,0.14321018755435944,0.8952073454856873,-0.10540735721588135,0.10088469088077545,0.490641713142395,-0.19661663144940011,0.7407170282118961,0.6316185333702906,0.11721029046191392,-0.14370428423371387,-2.7010747437078613,-1.697232658365772
1773063395554299904,3.2258949279785156,-0.2362857162952423,-0.5068696141242981,0.5259636044502258,-0.41749948263168335,0.1447276771068573,0.8970774412155151,-0.11025622487068176,0.09221076965332031,0.3400440812110901,-0.19531998260424369,0.7426669816857846,0.6300670406025062,0.1153748078688486,-0.14523774568001857,-2.706006469207167,-1.7022864974166014
1773063395564354816,3.235949993133545,-0.2337135672569275,-0.46380293369293213,0.7624375224113464,-0.4118480682373047,0.1445722132921219,0.8997112512588501,-0.10164079070091248,0.1120958924293518,-0.28011274337768555,-0.19286175775055822,0.7453245504809182,0.6279704894570076,0.11379275638731236,-0.14508063692115222,-2.712307737693778,-1.709610314662942
1773063395574411008,3.2460060119628906,-0.29176223278045654,-0.5702281594276428,0.5663614869117737,-0.4053240716457367,0.14418448507785797,0.9027308821678162,-0.10489928722381592,-0.02153433859348297,-0.8547573685646057,-0.19000694279627764,0.7481353781306909,0.6258265796243423,0.11194583075102199,-0.1446887906903128,-2.719572587035572,-1.7173225199113735
1773063395584465408,3.2560606002807617,0.07226971536874771,-0.486189603805542,0.22198568284511566,-0.39961621165275574,0.14469823241233826,0.9051903486251831,-0.14121636748313904,-0.12080296874046326,-0.796196699142456,-0.18799363024193616,0.7498529320980473,0.6247525494455421,0.10983301794562127,-0.1452079898369328,-2.7258531741737495,-1.7216345042766517
1773063395594521600,3.2661166191101074,0.3534174859523773,-0.36623018980026245,-0.23866793513298035,-0.3955496549606323,0.14620788395404816,0.9067324995994568,-0.15649813413619995,-0.14007385075092316,-0.3643893003463745,-0.18723611850357808,0.7498220168402212,0.6254064117426262,0.10759375370539928,-0.1467338648243437,-2.730243337519981,-1.720578253506119
1773063395604576512,3.2761716842651367,0.9927459955215454,0.32677170634269714,0.16485629975795746,-0.39529871940612793,0.15179654955863953,0.9059234261512756,-0.20972764492034912,-0.14991970360279083,-0.08431375026702881,-0.18953930807240843,0.7487879610530946,0.6263212423480201,0.10541950712564827,-0.15238563382535386,-2.7301487725016496,-1.716589109265871
1773063395614632704,3.2862277030944824,0.43642470240592957,0.06573875993490219,-0.47209033370018005,-0.39627766609191895,0.15542738139629364,0.9048795700073242,-0.1441735327243805,-0.10484446585178375,0.17281848192214966,-0.1915729442864999,0.7471834986261093,0.6278189274111399,0.10421229559282824,-0.15606007859209378,-2.728817878402427,-1.71124558770807
1773063395624687616,3.2962827682495117,-0.27636247873306274,0.07288117706775665,0.47807204723358154,-0.39649268984794617,0.15496593713760376,0.9048640131950378,-0.16544264554977417,-0.034650400280952454,0.3967258334159851,-0.19139380538498618,0.7475995518015498,0.6273172374585176,0.10457700048488579,-0.15559297287665758,-2.728612165161502,-1.7126626316513047
1773063395634743552,3.3063385486602783,-0.4893091022968292,0.23627890646457672,0.5013656616210938,-0.39703214168548584,0.15323008596897125,0.9049230813980103,-0.08284145593643188,0.019438371062278748,0.5530235767364502,-0.19056127454805227,0.7495429502696573,0.625017516555914,0.10594714132206241,-0.15383613358619513,-2.7281361618163595,-1.719164674389468
1773063395644799488,3.316394567489624,-0.47179847955703735,0.15102936327457428,0.12981680035591125,-0.39886072278022766,0.15004540979862213,0.9046525955200195,-0.035984188318252563,0.12676426768302917,0.7456310987472534,-0.1896730568257825,0.7509270698466755,0.6232454139280597,0.10815631002150246,-0.15061420983249862,-2.726332574898731,-1.7243081394338033
1773063395654854656,3.3264496326446533,-0.1990090161561966,-0.10087957978248596,0.1303238719701767,-0.39901676774024963,0.14698293805122375,0.9050867557525635,0.004561752080917358,0.25203439593315125,0.2760962247848511,-0.18839515075678384,0.7515830656183168,0.6226285149736117,0.1093800464648089,-0.1475173865635698,-2.7263652899088666,-1.7267979587115412
1773063395664910592,3.336505651473999,0.42720741033554077,0.12334549427032471,0.28060948848724365,-0.39855074882507324,0.14920231699943542,0.9049285650253296,-0.12163656949996948,0.20797540247440338,-0.7355408668518066,-0.18901412212770596,0.7521945720572077,0.6218260327485271,0.10867064509697592,-0.14976151502409654,-2.726732015389532,-1.7284171614371315
1773063395674965504,3.3465607166290283,0.4763432741165161,0.09736635535955429,0.23531441390514374,-0.39922064542770386,0.15488946437835693,0.9036771059036255,-0.2643383741378784,-0.03811393678188324,-0.43298912048339844,-0.19145102981780043,0.7524712205473991,0.6209876018267547,0.10727534018671706,-0.15551556983125586,-2.7256008558866265,-1.728793541641954
1773063395685021696,3.356616735458374,0.020791515707969666,0.04457615315914154,0.2545715272426605,-0.39947056770324707,0.15798133611679077,0.9030313491821289,-0.1331070363521576,-0.08327427506446838,0.1213982105255127,-0.19266367129615905,0.753064366294046,0.6200078416860187,0.10660748953524066,-0.15864597654113693,-2.725105065597654,-1.7304113159207686
1773063395695076352,3.366671562194824,0.21322888135910034,0.1314641833305359,0.0766257643699646,-0.39954257011413574,0.15942497551441193,0.9027455449104309,-0.06078463792800903,-0.07370106875896454,0.19152331352233887,-0.19320789259647747,0.7533871144697778,0.6195003098031692,0.1062918745545307,-0.16010815065528378,-2.7249212803968503,-1.7313090438534835
1773063395705132544,3.37672758102417,0.10110972076654434,0.2519437372684479,-0.02190106362104416,-0.40157487988471985,0.16144318878650665,0.9014841318130493,-0.10846537351608276,-0.16650912165641785,0.10788470506668091,-0.1947300246981082,0.7531560794007067,0.619272131300301,0.10648066901427888,-0.16215284409490915,-2.7225208137060926,-1.7307308014738243
1773063395715187456,3.386782646179199,-0.22673071920871735,0.2574511468410492,0.31557497382164,-0.40366849303245544,0.16111794114112854,0.9006069302558899,-0.17506691813468933,-0.016266226768493652,0.4636814594268799,-0.19524101537875685,0.7534835416415989,0.618519216127814,0.10759879446649546,-0.16182328699096651,-2.720221404944166,-1.7322263498826052
1773063395725243648,3.396838665008545,-0.04724739119410515,0.14340025186538696,0.3780391812324524,-0.4050472378730774,0.16132895648479462,0.8999501466751099,-0.03048446774482727,0.24093852937221527,0.5656872987747192,-0.1955676692487956,0.7547191147366562,0.6167447847638129,0.1085281676156306,-0.16203709828185694,-2.718674340618281,-1.736472117708815
