time,seconds_elapsed,rotationRateX,rotationRateY,rotationRateZ,gravityX,gravityY,gravityZ,accelerationX,accelerationY,accelerationZ,quaternionW,quaternionX,quaternionY,quaternionZ,pitch,roll,yaw
1773062296307916288,0.029299497604370117,0.018586982041597366,0.013013186864554882,-0.0010398502927273512,0.19364109635353088,0.22149665653705597,-0.9557417631149292,0.020134523510932922,0.012054353952407837,-0.009590208530426025,0.21951573326368184,-0.12032824810959103,-0.08746556151145103,0.9642010081184907,-0.22334897813878113,0.1999021633753983,2.716382893163867
1773062296317953280,0.039336442947387695,0.0833931416273117,0.02669331431388855,0.02387801557779312,0.1938605159521103,0.2209356427192688,-0.9558271765708923,0.00018550455570220947,0.0273401141166687,-0.036772310733795166,0.21949638038265987,-0.12036863107313797,-0.0871654563591508,0.9642276055417259,-0.22277370954176698,0.20010526685890173,2.716397574310324
1773062296327991296,0.04937434196472168,0.08658786863088608,0.025862140581011772,0.029746824875473976,0.19417767226696014,0.22004708647727966,-0.9559677243232727,-0.016046583652496338,0.026946932077407837,-0.03231346607208252,0.21941343146826675,-0.12041276697769188,-0.0867000255436139,0.964283008376623,-0.22186273289331063,0.2003952612213727,2.7165261133779732
1773062296338028544,0.05941152572631836,0.06985629349946976,0.01857839524745941,0.0301822517067194,0.19444508850574493,0.21922247111797333,-0.9561028480529785,-0.01788562536239624,0.022278383374214172,-0.0018897056579589844,0.21932549041339375,-0.12043940809260006,-0.08627245736220687,0.9643379491113205,-0.2210174877909721,0.20063629941215244,2.716665112389785
1773062296348066304,0.06944942474365234,0.04338429868221283,0.005229566246271133,0.027132399380207062,0.19463594257831573,0.2186293601989746,-0.9561997652053833,-0.014566987752914429,0.011579975485801697,0.022926509380340576,0.21922240580939736,-0.12045433655895484,-0.08597008423822407,0.9643865158788895,-0.22040962721783278,0.20080815586325135,2.716847437885684
1773062296358103296,0.07948637008666992,0.023571176454424858,-0.008530987426638603,0.02808634378015995,0.19467955827713013,0.2182646244764328,-0.9562742710113525,-0.005897819995880127,0.0043000727891922,0.03339219093322754,0.2191096474860464,-0.120422264461126,-0.08579835356429383,0.9644314906467957,-0.22003586948275605,0.20083673477036254,2.7170550655823678
1773062296368141312,0.08952450752258301,0.0008767825784161687,-0.015506605617702007,0.02157970704138279,0.19460828602313995,0.2180902659893036,-0.9563285112380981,0.0059532225131988525,-0.0004999637603759766,0.02757185697555542,0.21899136835138688,-0.12035515886496984,-0.08573433339579727,0.9644723670326607,-0.21985721033669223,0.20075408770692138,2.717279145374029
1773062296378178304,0.09956145286560059,-0.02787230722606182,-0.028819747269153595,0.01983160898089409,0.19443894922733307,0.21815989911556244,-0.9563471078872681,0.013553604483604431,-0.007085055112838745,0.020342469215393066,0.2188748752530077,-0.12026842745432352,-0.08580185756544267,0.964503702131118,-0.21992854795467628,0.2005802512416963,2.7175108421360217
1773062296388216320,0.10959935188293457,-0.05630776658654213,-0.03428162261843681,0.01791306771337986,0.19417868554592133,0.21851496398448944,-0.9563189148902893,0.013661280274391174,-0.015542551875114441,0.013661444187164307,0.2187407839906399,-0.12016889363946869,-0.08602316219614072,0.9645267919434327,-0.22029239916153864,0.20032465004241967,2.7177941005739696
1773062296398253568,0.11963653564453125,-0.08217798173427582,-0.054206062108278275,0.011638127267360687,0.19377997517585754,0.2191593050956726,-0.9562523365020752,0.011145561933517456,-0.029385745525360107,0.018309831619262695,0.2186035881482271,-0.12003445391039207,-0.08640350748549253,0.9645406000502983,-0.22095274628721004,0.19993775357746596,2.718094644692934
1773062296408291328,0.12967443466186523,-0.08923109620809555,-0.057110242545604706,-0.004674531985074282,0.19325676560401917,0.2199806421995163,-0.956169605255127,0.003032281994819641,-0.035364553332328796,0.026817798614501953,0.2185127573598405,-0.11986302662387141,-0.0868794831363631,0.9645398097295287,-0.22179462550902151,0.1994289348094591,2.7183017357847477
1773062296418328320,0.1397113800048828,-0.05503690615296364,-0.05839255452156067,-0.010511914268136024,0.19267740845680237,0.22071051597595215,-0.9561183452606201,-0.005009561777114868,-0.02843451499938965,0.029818296432495117,0.21847806516093726,-0.11965757664420236,-0.08730917442496974,0.9645343650335414,-0.22254288505974,0.19885711399263298,2.7183789795004043
1773062296428366336,0.1497495174407959,0.026552539318799973,-0.053580351173877716,-0.0013470458798110485,0.1921364814043045,0.22086746990680695,-0.9561909437179565,-0.0036446750164031982,-0.00950273871421814,0.02181905508041382,0.21846109798034274,-0.1194042620384829,-0.087447965085679,0.9645570281889543,-0.22270381776169162,0.19829871326199347,2.7183757734535425
1773062296438403328,0.15978646278381348,0.10204596072435379,-0.0330929197371006,0.013770121149718761,0.19173482060432434,0.22018827497959137,-0.9564281702041626,0.005835980176925659,0.00875459611415863,7.271766662597656e-06,0.21844977155230794,-0.11912091006321346,-0.08715567177492128,0.9646211120123449,-0.22200747649964886,0.19784709624088154,2.7183058059031655
1773062296448441344,0.16982436180114746,0.15104980766773224,-0.01414080336689949,0.023139655590057373,0.1915605217218399,0.21892251074314117,-0.9567536115646362,0.012235864996910095,0.021693333983421326,-0.01600944995880127,0.21842577822071352,-0.11887998099205792,-0.0865490445392155,0.9647108400978517,-0.22071005375742175,0.19760640285111705,2.7182358931800525
1773062296458478336,0.17986130714416504,0.1547878235578537,-0.011877914890646935,0.021878648549318314,0.19148139655590057,0.21736401319503784,-0.9571247100830078,0.010880649089813232,0.025845810770988464,-0.014387071132659912,0.21839461962226484,-0.11865113157897927,-0.08578776094566619,0.9648140991700225,-0.21911310632457676,0.19745227032710877,2.718166135761208
1773062296468516352,0.18989944458007812,0.10957801342010498,-0.011247543618083,0.010080046020448208,0.19141142070293427,0.21603301167488098,-0.9574400186538696,0.004847109317779541,0.013825371861457825,-0.012622177600860596,0.21838637752865056,-0.11845629044360742,-0.08513573157178812,0.9648976301616168,-0.21774970126903026,0.19731864486728912,2.7180682502031908
1773062296478553344,0.1999363899230957,0.039311833679676056,-0.01979442685842514,-0.004913019016385078,0.19123902916908264,0.21529114246368408,-0.9576415419578552,-0.0033575743436813354,-0.008732929825782776,0.0058135986328125,0.21840356703974736,-0.11828297263315232,-0.08478417543117572,0.9649459674394015,-0.2169899539733109,0.19710507522295134,2.717956363592288
1773062296488591360,0.2099745273590088,-0.02316335029900074,-0.027115989476442337,-0.015108131803572178,0.19099484384059906,0.21523039042949677,-0.9577039480209351,-0.01185666024684906,-0.029378339648246765,0.014130949974060059,0.2184531296730142,-0.11815800693361606,-0.08477447805467311,0.9649508854441323,-0.2169277409782089,0.19684737135390853,2.7178262656786467
1773062296498628352,0.22001147270202637,-0.06664425134658813,-0.03363780677318573,-0.01588604226708412,0.19066914916038513,0.21570199728012085,-0.9576627612113953,-0.014353841543197632,-0.03715890645980835,0.020193278789520264,0.21848486713655757,-0.1180543407210518,-0.08504000677689615,0.9649330086709046,-0.21741068976514397,0.19652851875935537,2.7177688171287104
1773062296508666368,0.23004937171936035,-0.07054551690816879,-0.03681468963623047,-0.005705841816961765,0.19030220806598663,0.21640202403068542,-0.9575777649879456,-0.008478477597236633,-0.029527634382247925,0.021359562873840332,0.21848117626252211,-0.1179542546464621,-0.08542772998670145,0.9649118374167236,-0.21812765448643795,0.19617689752699283,2.717799288975879
1773062296518703104,0.24008631706237793,-0.039483070373535156,-0.03462730348110199,0.007818888872861862,0.18996506929397583,0.2169433832168579,-0.9575222134590149,0.004370853304862976,-0.013375893235206604,0.012804865837097168,0.21843384648447595,-0.11784624285174548,-0.0857388170967617,0.9649081180785611,-0.2186821807782013,0.1958492525642373,2.717909823099442
1773062296528741376,0.250124454498291,-0.002791322534903884,-0.028185782954096794,0.025234762579202652,0.18969857692718506,0.21709395945072174,-0.9575409293174744,0.01804983615875244,0.005791172385215759,-0.0038390755653381348,0.21831964509420818,-0.11772086129990803,-0.08585642728110905,0.9649388613226894,-0.21883643928351632,0.19557773564289802,2.718133974105325
1773062296538778368,0.2601613998413086,0.028261402621865273,-0.016523798927664757,0.015130198560655117,0.18952763080596924,0.21688953042030334,-0.9576210975646973,0.014985904097557068,0.009322002530097961,-0.013326108455657959,0.21821780883964964,-0.11760193322977382,-0.08578591974803883,0.9649826868522432,-0.2186270168266026,0.1953899945589999,2.7183127379370204
1773062296548816384,0.2701995372772217,0.031440507620573044,-0.015025503933429718,0.0008050545584410429,0.18941541016101837,0.21656657755374908,-0.9577164053916931,0.004828974604606628,-0.00022746622562408447,-0.016023218631744385,0.21819146214711854,-0.11750494874376546,-0.08564100462165111,0.965013320962115,-0.21829620067060648,0.19525828545599674,2.7183309591952165
1773062296558853376,0.28023648262023926,0.008198566734790802,-0.01268698275089264,-0.0059324768371880054,0.18927061557769775,0.21636363863945007,-0.9577909111976624,-0.0007787942886352539,-0.011300772428512573,-0.0056185126304626465,0.21820031036496462,-0.11740913492575777,-0.08555491054410318,0.9650306634836741,-0.21808834224207926,0.19509799178738182,2.7182829626634537
1773062296568891392,0.29027438163757324,-0.011022398248314857,-0.01657506451010704,-0.015030235052108765,0.18908898532390594,0.2163751721382141,-0.957824170589447,-0.0015584677457809448,-0.01810246706008911,-0.0020604729652404785,0.21824212086192932,-0.11732344307805334,-0.08557525124985339,0.9650298088765451,-0.2181001492008931,0.19490888456592312,2.7181804016293336
1773062296578928128,0.3003113269805908,-0.022314468398690224,-0.01196859497576952,-0.014436082914471626,0.18893297016620636,0.2165716290473938,-0.9578105807304382,-0.00199754536151886,-0.0215948224067688,-0.0024402737617492676,0.21829976861599978,-0.11727403584598031,-0.08568267943104345,0.9650131967678708,-0.2183013722437082,0.1947547937536055,2.718062160551549
1773062296588966400,0.3103494644165039,-0.027451038360595703,-0.01083102636039257,-0.012661218643188477,0.18877743184566498,0.21681788563728333,-0.9577854871749878,-0.004817485809326172,-0.01801113784313202,-0.0032587647438049316,0.2183503506117411,-0.11723020315211301,-0.0858156412660462,0.9649952917179538,-0.21855363508444436,0.1946034524481223,2.7179626413420124
1773062296599003392,0.3203864097595215,-0.007883730344474316,-0.0013064967934042215,-0.024277927353978157,0.18868450820446014,0.21702799201011658,-0.9577562212944031,-0.008035704493522644,-0.012102454900741577,0.00043505430221557617,0.21843038747405233,-0.11721598212455936,-0.08592028893453324,0.9649695517416464,-0.21876885853701597,0.1945158457475678,2.71780487225547
1773062296609041152,0.33042430877685547,0.008105223067104816,0.002975733019411564,-0.02739316038787365,0.18864504992961884,0.21706774830818176,-0.9577549695968628,-0.01284855604171753,-0.00605398416519165,-0.004738867282867432,0.2185600547436629,-0.11721256819387203,-0.08592856184947618,0.964939823775863,-0.21880959271499822,0.19447643432271364,2.7175355740799225
1773062296619078400,0.34046149253845215,0.02199653722345829,0.006408015266060829,-0.025442395359277725,0.18862228095531464,0.21698449552059174,-0.9577783346176147,-0.01163560152053833,-0.0012557506561279297,-0.00013786554336547852,0.2187041375473173,-0.11720404071508621,-0.08587220818310293,0.9649133584008123,-0.21872430552968666,0.1944489206871168,2.717228320346914
1773062296629116416,0.35049939155578613,0.0386553630232811,0.0071634212508797646,-0.01696115918457508,0.18866421282291412,0.21672044694423676,-0.9578298926353455,-0.0044143348932266235,0.0029755979776382446,0.001286923885345459,0.2188320010840239,-0.11720477364695742,-0.0857210768076249,0.96489771784438,-0.21845382344903305,0.19448086722173316,2.7169461001201594
1773062296639153152,0.3605363368988037,0.05672837421298027,0.005908805876970291,-0.01322714053094387,0.18869982659816742,0.2162456512451172,-0.9579301476478577,0.0031031519174575806,0.0023365020751953125,-0.005128324031829834,0.21893623327525766,-0.11717501044961152,-0.0854689318551881,0.9648999526487069,-0.21796748496645613,0.19449681735579843,2.716695306602054
1773062296649191424,0.3705744743347168,0.06182477995753288,0.00454872939735651,-0.013813834637403488,0.1887463927268982,0.215624138712883,-0.9580610990524292,0.007939398288726807,-0.0024130642414093018,-0.007240414619445801,0.2190358037009332,-0.11713267547147116,-0.08514338505762255,0.9649113191633085,-0.21733095167887193,0.19451768362559685,2.716443614509427
1773062296659228416,0.3806114196777344,0.042633239179849625,-0.0020790796261280775,-0.021079471334815025,0.18871654570102692,0.21508239209651947,-0.9581887125968933,0.0061229318380355835,-0.01180480420589447,-0.01198035478591919,0.21915220777092606,-0.11706316222762589,-0.08486374088094958,0.9649179496244858,-0.21677619824074768,0.1944624323416991,2.7161563004984295
1773062296669266176,0.39064931869506836,-0.004156014882028103,-0.0011453754268586636,-0.032139044255018234,0.188635915517807,0.21490323543548584,-0.958244800567627,0.0015343725681304932,-0.01844632625579834,0.005318164825439453,0.21928741239653005,-0.1170133110036766,-0.08476725281955863,0.9649017678227786,-0.2165927504000826,0.19437034248387727,2.7158543628660867
1773062296679303424,0.40068650245666504,-0.038018640130758286,-0.01612139493227005,-0.03692154958844185,0.1884469836950302,0.21514500677585602,-0.9582276940345764,-0.004212379455566406,-0.019405275583267212,0.015295624732971191,0.21943378439455144,-0.11696076455877344,-0.08489005164402998,0.9648640653713848,-0.21684031166447537,0.1941839015235432,2.715552915183281
1773062296689341184,0.410724401473999,-0.05194608494639397,-0.020888719707727432,-0.03964143991470337,0.18813572824001312,0.21564166247844696,-0.9581772089004517,-0.009424805641174316,-0.016529738903045654,0.020982444286346436,0.2195837966200993,-0.11687805331411179,-0.08515222746834204,0.9648168516039096,-0.2173489040080076,0.1938811135110689,2.7152528608637665
1773062296699379456,0.4207625389099121,-0.04908904433250427,-0.02485576458275318,-0.044430334120988846,0.18778978288173676,0.21620813012123108,-0.9581174254417419,-0.012649402022361755,-0.010473877191543579,0.020464837551116943,0.21974936660192756,-0.11678787597538602,-0.08545098433757282,0.9647636046490682,-0.2179290511857641,0.19354522415454345,2.7149226134589757
1773062296709416448,0.4307994842529297,-0.026814987882971764,-0.029704581946134567,-0.04410223290324211,0.18740274012088776,0.2166815847158432,-0.9580862522125244,-0.014429107308387756,-0.0017462819814682007,0.012850046157836914,0.2199289704982096,-0.11666734731060466,-0.08570643948677337,0.964714664913439,-0.21841400139531403,0.19316230747171548,2.714551987801496
1773062296719454208,0.44083738327026367,-0.003198608523234725,-0.017168017104268074,-0.039484843611717224,0.18708710372447968,0.2169117033481598,-0.958095908164978,-0.009093329310417175,0.00835379958152771,0.008816123008728027,0.22011718229953844,-0.11655410282134156,-0.08583238656195184,0.9646741990583453,-0.2186497294116817,0.19284309403765273,2.714150619733124
1773062296729491200,0.45087432861328125,0.027160894125699997,-0.014751998707652092,-0.027692632749676704,0.18689338862895966,0.2168363481760025,-0.9581507444381714,-0.0005835741758346558,0.014624208211898804,0.0005549192428588867,0.22027917445574752,-0.11646269597571447,-0.08579665771861329,0.9646514578125229,-0.21857254849429522,0.19263756005196686,2.7137908695958095
1773062296739528448,0.46091151237487793,0.04048309475183487,-0.013350110501050949,-0.013591461814939976,0.18672940135002136,0.2164795845746994,-0.9582633972167969,0.004951506853103638,0.014294341206550598,-0.002277374267578125,0.22038500343064626,-0.11634726575800247,-0.08562488321190477,0.9646564546562375,-0.21820709071237746,0.19245061221076798,2.713528170779369
1773062296749565440,0.4709484577178955,0.03708529844880104,-0.01134408451616764,-0.006240470800548792,0.18659397959709167,0.21606183052062988,-0.9583840370178223,0.002172499895095825,0.009752988815307617,0.0034890174865722656,0.22044264679482556,-0.1162344573828679,-0.08542557669020755,0.9646745848942354,-0.21777921503146558,0.19229083284973783,2.7133633587192554
1773062296759603200,0.4809863567352295,0.031930748373270035,-0.021908044815063477,-0.004551760386675596,0.18643319606781006,0.2157014012336731,-0.9584965109825134,-0.0070203691720962524,0.0037352442741394043,0.015594959259033203,0.22047228658749765,-0.11611341509256905,-0.08526087492919515,0.9646969625894627,-0.2174100766456857,0.1921072031550414,2.713258791876906
1773062296769640448,0.49102354049682617,0.03857120871543884,-0.024262145161628723,-0.014710254967212677,0.18618673086166382,0.2153496891260147,-0.9586235284805298,-0.014632165431976318,-0.0022454410791397095,0.016561150550842285,0.22053378365477738,-0.11595345454303958,-0.08510609082128381,0.9647158254749196,-0.2170499111407441,0.19183462829507136,2.713081051084731
1773062296779678464,0.5010614395141602,0.042680732905864716,-0.019420519471168518,-0.017106302082538605,0.18590791523456573,0.2149716019630432,-0.9587624669075012,-0.014139726758003235,-0.003774687647819519,0.01190882921218872,0.22062987968718767,-0.11577721249773786,-0.08493764621032626,0.9647298985719625,-0.2166627483900505,0.19152724361915424,2.7128266699974
1773062296789715200,0.5110983848571777,0.058829475194215775,-0.025160031393170357,-0.0022364086471498013,0.18564389646053314,0.214521586894989,-0.9589143991470337,-0.009710058569908142,0.004487812519073486,0.01865255832672119,0.22069807257057272,-0.11559725682881233,-0.08473531784384912,0.9647536091712849,-0.21620199125658404,0.19123226931978263,2.7126258854675
1773062296799753472,0.5211365222930908,0.08933492004871368,-0.03280916064977646,0.015394249930977821,0.18538077175617218,0.2137988805770874,-0.9591267108917236,-0.0018785744905471802,0.012092232704162598,0.028493165969848633,0.2206946498295505,-0.11537864314460033,-0.08440629522093092,0.9648094250087972,-0.21546211076277436,0.1909265165480104,2.7125526435549534
1773062296809790464,0.5311734676361084,0.11468976736068726,-0.040814757347106934,0.03677184134721756,0.1850823163986206,0.21274764835834503,-0.9594180583953857,0.0026465654373168945,0.012884080410003662,0.027899503707885742,0.2206070645130574,-0.11509563030065516,-0.08392837910112767,0.9649049975435534,-0.21438612129862947,0.19057003093562322,2.7126253372715934
1773062296819828224,0.5412113666534424,0.13193559646606445,-0.04821221902966499,0.05236278474330902,0.18475256860256195,0.21147215366363525,-0.9597635269165039,0.0017098337411880493,0.010238051414489746,0.036194801330566406,0.22044643161848596,-0.11476397904131592,-0.08335146928454934,0.965031183078633,-0.213080932910062,0.19017181244236595,2.7128293856596204
1773062296829865472,0.5512485504150391,0.14030475914478302,-0.056406766176223755,0.06499442458152771,0.18437384068965912,0.21005681157112122,-0.9601470828056335,-0.005891785025596619,0.006419628858566284,0.047045886516571045,0.22021845128991768,-0.11438569926945397,-0.08271861004763102,0.9651825833331229,-0.2116330622748589,0.18971726692565882,2.7131581489127994
1773062296839903232,0.561286449432373,0.16377919912338257,-0.06588256359100342,0.07603482902050018,0.1839301586151123,0.2084738314151764,-0.960577130317688,-0.011811017990112305,0.0023263543844223022,0.06081211566925049,0.21994092107792979,-0.1139512539748831,-0.08201561633053936,0.9653572343470762,-0.21001423758441798,0.18918883778510556,2.713571275448683
1773062296849940224,0.5713233947753906,0.18142658472061157,-0.08413280546665192,0.10531455278396606,0.1833890974521637,0.20664307475090027,-0.961076021194458,-0.010873228311538696,0.0027838051319122314,0.07550168037414551,0.21957495848994868,-0.11343190782939981,-0.08121084045125693,0.9655697409097274,-0.2081427293622276,0.18854982216415894,2.7141404823238604
1773062296859978496,0.5813615322113037,0.22302143275737762,-0.09849470108747482,0.1476960927248001,0.18277214467525482,0.20448270440101624,-0.9616554379463196,-0.0029930919408798218,0.003952354192733765,0.08874589204788208,0.2190451180837241,-0.11282286040790121,-0.08027007576057774,0.9658400569818925,-0.20593521437375442,0.1878197625866986,2.7150178028228957
1773062296870015488,0.5913984775543213,0.302097350358963,-0.11704733967781067,0.1899532824754715,0.18207640945911407,0.20166495442390442,-0.9623821973800659,0.0028601139783859253,0.009348839521408081,0.10615050792694092,0.21833634461251228,-0.11208362734468104,-0.0790327558711935,0.9661886106043541,-0.20305750517396218,0.18698338322340471,2.7162092763371115
1773062296880053248,0.6014363765716553,0.4168865382671356,-0.13479864597320557,0.24322955310344696,0.18129466474056244,0.1978287398815155,-0.9633255004882812,-0.00017283856868743896,0.017243891954421997,0.12349700927734375,0.21743950657918265,-0.11116929552884067,-0.07732162685606672,0.9666348107696449,-0.19914239293989078,0.186020891002457,2.7177058177517406
1773062296890090496,0.611473560333252,0.5667582154273987,-0.15260827541351318,0.30178818106651306,0.18044808506965637,0.1925862431526184,-0.9645460247993469,-0.008466273546218872,0.028361022472381592,0.14728528261184692,0.21633425509905369,-0.11004683239212204,-0.07494452946189237,0.9671982990557548,-0.1937970480708563,0.1849429947396654,2.719522271535467
1773062296900128256,0.6215114593505859,0.7687587141990662,-0.1762973517179489,0.3850537836551666,0.17948876321315765,0.1855309009552002,-0.966106653213501,-0.011886224150657654,0.040100812911987305,0.17968392372131348,0.21497439369510965,-0.10864741725722042,-0.07171062044101337,0.9679045690326998,-0.1866121145564536,0.18369132697640955,2.7217196840622884
1773062296910165248,0.6315484046936035,1.0468990802764893,-0.20050428807735443,0.48156073689460754,0.17844882607460022,0.1759747564792633,-0.9680851697921753,-0.01594272255897522,0.054402440786361694,0.2185276746749878,0.21329851069283204,-0.10691299474757204,-0.06728317285559551,0.9687860146319444,-0.1768958921391783,0.1822855461697422,2.7243755078259433
1773062296920203520,0.6415865421295166,1.3991698026657104,-0.23578743636608124,0.6016267538070679,0.17726553976535797,0.16314537823200226,-0.9705464839935303,-0.019764333963394165,0.07202306389808655,0.26859647035598755,0.2112478565830234,-0.10473674589120359,-0.06129407636276623,0.9698698635362304,-0.16387791350552414,0.1806538197415483,2.7275467588921587
1773062296930240512,0.6516234874725342,1.8084661960601807,-0.25717687606811523,0.7380692362785339,0.17590461671352386,0.14635814726352692,-0.9734663963317871,-0.020280227065086365,0.09428821504116058,0.3257765769958496,0.2087426646934099,-0.10204553479242186,-0.05341817425599421,0.9711641179512861,-0.14688575952024827,0.17877012945134532,2.731341769889855
1773062296940278272,0.6616613864898682,2.2898545265197754,-0.3087495267391205,0.8867682218551636,0.17427124083042145,0.12488965690135956,-0.9767456650733948,-0.014755859971046448,0.11667223274707794,0.3771210312843323,0.20574029009781172,-0.09874783954723501,-0.04331312770992251,0.9726478566946248,-0.12521661965778522,0.17656237586259388,2.7357836129864377
1773062296950315520,0.6716985702514648,2.783123731613159,-0.3786977529525757,1.0333762168884277,0.17196987569332123,0.09830975532531738,-0.9801844358444214,-0.008243069052696228,0.12692523002624512,0.4337519407272339,0.20221634168990693,-0.09465017692503644,-0.03080776648133237,0.9742694066256387,-0.0984688039628866,0.1736788108720149,2.7408698198025663
1773062296960353280,0.6817364692687988,3.27341890335083,-0.4516499638557434,1.1546648740768433,0.16879388689994812,0.06656712293624878,-0.9834009408950806,-0.00463983416557312,0.12578517198562622,0.49634039402008057,0.19821020463663247,-0.08970603160505207,-0.015885486018946078,0.9759166079683973,-0.06661638114949898,0.1699865641168279,2.7465182454200394
1773062296970390272,0.6917734146118164,3.694056510925293,-0.5393470525741577,1.275673270225525,0.16451320052146912,0.030064024031162262,-0.9859166145324707,-0.011818498373031616,0.11950263381004333,0.5393681526184082,0.19375959361478595,-0.08390543832656841,0.0012537384477753221,0.9774536639583215,-0.030068555501313154,0.16533989617320238,2.752700278516891
1773062296980428544,0.7018115520477295,4.058506488800049,-0.6407626271247864,1.412165880203247,0.15879076719284058,-0.010535478591918945,-0.9872560501098633,-0.015327632427215576,0.12232136726379395,0.6065797805786133,0.1887680019723168,-0.07720755903380394,0.020272396148118616,0.9787721011070942,0.0105356731423859,0.15947468766483047,2.759705178196593
1773062296990465280,0.7118484973907471,4.408302307128906,-0.7492149472236633,1.5646740198135376,0.15143099427223206,-0.05479845032095909,-0.9869477152824402,-0.014010339975357056,0.1347239911556244,0.6693055033683777,0.18312289954686972,-0.06962033387849613,0.04097747389736674,0.9797651978938166,0.05482591339541379,0.15224633560503165,2.7678640384256767
1773062297000503296,0.721886396408081,4.74080753326416,-0.8583094477653503,1.7403292655944824,0.14217250049114227,-0.10252253711223602,-0.9845182299613953,-0.014517471194267273,0.14805476367473602,0.7056791186332703,0.17671109968605142,-0.06110200304517128,0.06330433998069009,0.9803225314848771,0.10270299237637148,0.14341675632882372,2.7775229722745283
1773062297010540544,0.7319235801696777,5.027027130126953,-0.9605623483657837,1.9295167922973633,0.130835622549057,-0.1532181054353714,-0.9794928431510925,-0.018027395009994507,0.1676376760005951,0.7381903529167175,0.1694140560590873,-0.05168226739399008,0.08707764186676087,0.9803292357987472,0.15382402011239138,0.13278884008138078,2.789097908620972
1773062297020578304,0.7419614791870117,5.261748790740967,-1.0591762065887451,2.144848108291626,0.1172708123922348,-0.2061748057603836,-0.9714625477790833,-0.025367125868797302,0.1972942054271698,0.773067831993103,0.1611112600504232,-0.04142654065183039,0.11203820430574536,0.9796808736426189,0.2076641578798896,0.12013443485749707,2.8030712281606123
1773062297030615296,0.7519984245300293,5.460976600646973,-1.1507755517959595,2.3802311420440674,0.10123173147439957,-0.26064354181289673,-0.9601130485534668,-0.03935734182596207,0.23381859064102173,0.8036952018737793,0.15166016559953888,-0.03035793056090554,0.13791978277936862,0.9782922677783359,0.26368871972464486,0.1050491724031832,2.8200468736590647
1773062297040653568,0.7620365619659424,5.6667633056640625,-1.2360286712646484,2.6325507164001465,0.08256974816322327,-0.31617286801338196,-0.9451015591621399,-0.054081596434116364,0.27749183773994446,0.8318050503730774,0.1409595831874979,-0.018520846111760875,0.16463961270769165,0.9760538484666023,0.32169269336205614,0.08714473625587814,2.840592464696401
1773062297050690304,0.77207350730896,5.871701717376709,-1.352846622467041,2.892359972000122,0.06090221926569939,-0.3723783493041992,-0.926080584526062,-0.07320081442594528,0.3229704201221466,0.8563174605369568,0.12896408574037643,-0.005827583745777089,0.19216071421958025,0.972835272435911,0.38157035381374516,0.06566885187719743,2.8653118863424014
1773062297060728320,0.782111406326294,6.039852142333984,-1.483734369277954,3.141713857650757,0.03574777767062187,-0.4285809397697449,-0.9027959108352661,-0.09135080873966217,0.3690716624259949,0.8930302858352661,0.11569456575282269,0.007863371626708568,0.22031843750848032,0.9685105025961582,0.44292157134050203,0.03957606605859523,2.894895227949988
1773062297070765312,0.7921483516693115,6.095489501953125,-1.6212159395217896,3.4079082012176514,0.00690067745745182,-0.4835653305053711,-0.8752810955047607,-0.10420598089694977,0.4081258773803711,0.9314639568328857,0.10119638013779855,0.022551072024208526,0.24869844082654613,0.963016001508981,0.5047233786210094,0.007883792722608033,2.930162703465962
1773062297080803328,0.8021864891052246,5.974353790283203,-1.7581207752227783,3.7328083515167236,-0.02595365233719349,-0.535417914390564,-0.844188392162323,-0.11155854910612106,0.43817365169525146,0.940135657787323,0.08532626297470348,0.038232975338909084,0.2764851380305121,0.9564589103893352,0.5650024692798497,-0.0307342292164132,2.9725642467032825
1773062297090840320,0.8122234344482422,5.732957363128662,-1.8798906803131104,4.084014892578125,-0.0629885345697403,-0.5823339223861694,-0.8105058073997498,-0.1168973296880722,0.45768487453460693,0.9318131804466248,0.06793042584626553,0.05486618686683085,0.30288083899795665,0.9490196737190715,0.6215966727207142,-0.0775591997422536,3.0236010896631016
1773062297100878592,0.8222615718841553,5.453138828277588,-2.0411529541015625,4.418833255767822,-0.10432642698287964,-0.623285710811615,-0.7750037908554077,-0.13783055543899536,0.44358301162719727,0.9002631902694702,0.0490743227691646,0.07252774097091917,0.3274718751012515,0.9407941361888548,0.6729374470693378,-0.13380969975062534,3.0842256255864817
1773062297110915328,0.8322985172271729,5.176451206207275,-2.17879581451416,4.677147388458252,-0.1497359275817871,-0.6578507423400879,-0.738113522529602,-0.1906571388244629,0.3974595069885254,0.856552243232727,0.02909556952466374,0.09128355581517092,0.35015789770471567,0.9317779910439814,0.7179614893891603,-0.2001469317169163,-3.128704937917565
1773062297120953344,0.8423364162445068,4.847203731536865,-2.265958786010742,4.926464557647705,-0.19821976125240326,-0.6857426166534424,-0.7003328204154968,-0.27179670333862305,0.3434422016143799,0.7945863604545593,0.00827620648058149,0.11082268509944887,0.3708799285171402,0.9220076291132164,0.7556235237321546,-0.2758222411398644,-3.0494890369800896
1773062297130990336,0.8523733615875244,4.32961893081665,-2.1570041179656982,5.175981044769287,-0.24878641963005066,-0.705849826335907,-0.663235604763031,-0.37036943435668945,0.2825404405593872,0.7065248489379883,-0.013536353375901715,0.13064676945740966,0.3889905044675838,0.9118304329011864,0.7836220976889803,-0.3588672556143642,-2.962297583319797
1773062297141028352,0.8624114990234375,3.904036521911621,-2.1140198707580566,5.252666473388672,-0.2998903691768646,-0.7180054187774658,-0.6281194686889648,-0.4809629023075104,0.17599791288375854,0.5755071640014648,-0.0359944868231936,0.15018382324481697,0.40420919801918614,0.9015343739769675,0.8009324071445342,-0.44543856479198546,-2.870613494396542
1773062297151065344,0.8724484443664551,3.80056095123291,-2.13738751411438,5.201202392578125,-0.35090142488479614,-0.7244373559951782,-0.5933453440666199,-0.6301013827323914,0.004237771034240723,0.4132305979728699,-0.058188031571450784,0.1696948852817079,0.417769042826309,0.8906664972280509,0.8102178397707173,-0.5340681982454438,-2.7775566195381804
1773062297161103360,0.8824865818023682,3.8101508617401123,-2.0610909461975098,5.151735305786133,-0.40071287751197815,-0.7268757224082947,-0.5577461123466492,-0.7768383622169495,-0.19493818283081055,0.22690516710281372,-0.08013126113592371,0.18869448465094857,0.4307218657991265,0.8788924366239039,0.813761694448232,-0.6230016982638847,-2.684006735246544
1773062297171141376,0.8925244808197021,3.835218667984009,-2.110640048980713,5.150853157043457,-0.44953396916389465,-0.725619912147522,-0.5209557414054871,-0.9002127647399902,-0.35903578996658325,0.019063711166381836,-0.10190473101674785,0.20736168298622804,0.4433094417999047,0.8660792406227883,0.8119349118080311,-0.7119370408143704,-2.5903867512140386
1773062297181178368,0.9025614261627197,3.7650251388549805,-2.1920220851898193,5.239295482635498,-0.49803999066352844,-0.7201300859451294,-0.48308274149894714,-0.9587165713310242,-0.4526299238204956,-0.08646684885025024,-0.1236019902996245,0.2261679220946847,0.45530946056791377,0.8522112478968702,0.8039897743033925,-0.8006420405155054,-2.497516319965528
1773062297191216384,0.9125995635986328,3.419342041015625,-2.2920284271240234,5.349120616912842,-0.5465133190155029,-0.7091960310935974,-0.44538092613220215,-0.9720261096954346,-0.4520741105079651,-0.12410759925842285,-0.145138525112687,0.24550252974209288,0.4658734281534755,0.8376307332351007,0.7883572212421203,-0.8870058791154434,-2.4082745853727516
1773062297201253376,0.9226365089416504,2.901177406311035,-2.403838634490967,5.374518871307373,-0.5943918824195862,-0.6920290589332581,-0.40962693095207214,-0.9721364378929138,-0.33987706899642944,-0.13216692209243774,-0.1660154378810896,0.2655094679336724,0.47401609315929416,0.8229535049810466,0.7642961324270123,-0.9673873973699851,-2.327331020073386
1773062297211291392,0.9326744079589844,2.4540417194366455,-2.454850912094116,5.217681407928467,-0.640260636806488,-0.6696354150772095,-0.3763705790042877,-0.985136091709137,-0.22109639644622803,-0.11284142732620239,-0.18562696410154345,0.2858026640129448,0.47972027890505936,0.8085344600106066,0.7337177492977764,-1.0393662579880643,-2.2574357456119785
1773062297221328384,0.942711353302002,2.2711222171783447,-2.519721508026123,4.892375946044922,-0.6826500296592712,-0.6445080637931824,-0.34438076615333557,-1.041471004486084,-0.18512743711471558,-0.11121609807014465,-0.20343439975469188,0.3057672091062012,0.4840620109690436,0.7942321498177356,0.7003797452075561,-1.1035740841887574,-2.19778597157034
1773062297231366400,0.952749490737915,2.2892918586730957,-2.454789400100708,4.560378074645996,-0.7208442687988281,-0.6187338829040527,-0.31233301758766174,-1.1305809020996094,-0.23394250869750977,-0.12330538034439087,-0.21958745823844028,0.32475244902568995,0.4882308224016318,0.7797100759038055,0.6671299860800085,-1.1619268273133656,-2.1451699869987304
1773062297241403392,0.9627864360809326,2.2993288040161133,-2.1767537593841553,4.3088274002075195,-0.7547317147254944,-0.5927191972732544,-0.2811835706233978,-1.1913743019104004,-0.3146600127220154,-0.14493340253829956,-0.23490148930456337,0.34205238954364625,0.49234985589849795,0.7651230044259132,0.6344307987831462,-1.2141657226026044,-2.0974391578122287
1773062297251441408,0.9728245735168457,2.496864080429077,-1.8335586786270142,4.077167510986328,-0.7845349907875061,-0.5666092038154602,-0.25191015005111694,-1.2061723470687866,-0.4055739641189575,-0.18746665120124817,-0.25000840200212077,0.3572471486719877,0.49640649355263133,0.750633582846478,0.6023848798818412,-1.260100562025337,-2.0530590563123625
1773062297261478400,0.9828615188598633,2.787919044494629,-1.4406611919403076,3.7980120182037354,-0.8103920221328735,-0.5412961840629578,-0.22419452667236328,-1.1789724826812744,-0.5108736157417297,-0.3192777633666992,-0.26551247262259164,0.36977376572962134,0.5011687314732289,0.7359350552029734,0.5719778933192593,-1.3008972666972531,-2.0088550973844193
1773062297271516416,0.9928994178771973,4.837255001068115,-0.684060275554657,3.5893442630767822,-0.8321608304977417,-0.5185060501098633,-0.19662156701087952,-1.1040575504302979,-0.576174795627594,-0.5600312948226929,-0.2829598384132442,0.3780222035404845,0.5087125212166367,0.7198921016603699,0.5451028631147,-1.3387732837389978,-1.957260440912813
1773062297281553152,1.0029363632202148,11.246581077575684,-0.39513981342315674,3.520604133605957,-0.8513936996459961,-0.5022104978561401,-0.15137097239494324,-1.0406197309494019,-0.5093250274658203,-1.2105979919433594,-0.30853750715802314,0.3779956005879527,0.5305033803430559,0.6931738697204596,0.5261531522543167,-1.394842931752054,-1.8601514025034247
1773062297291591424,1.012974500656128,17.901552200317383,2.0693869590759277,3.001901865005493,-0.8672905564308167,-0.49069270491600037,-0.08383291959762573,-0.8296546339988708,0.08148247003555298,-2.410994291305542,-0.3495417200357701,0.3601800098152397,0.5730217278971359,0.6478712262639483,0.5128845628064643,-1.4744349818849323,-1.6845844771564897
1773062297301628416,1.0230114459991455,17.720422744750977,2.836576223373413,0.7313216924667358,-0.8751919269561768,-0.48339587450027466,-0.019174043089151382,-0.6254489421844482,1.0345127582550049,-2.646444797515869,-0.39491035938025815,0.3233526690503794,0.6211731078882491,0.5946703874047955,0.5045297864347559,-1.548891444001638,-1.4751282079497923
1773062297311666432,1.0330495834350586,14.191485404968262,2.9164199829101562,-0.40366944670677185,-0.8757767677307129,-0.48145821690559387,0.0348297581076622,-0.9586195945739746,0.9900184273719788,-0.7462707757949829,-0.42845699613207616,0.28244362941501455,0.6615440083020131,0.5468178343808466,0.5023177041628961,-1.6105455118071454,-1.2905416329289052
1773062297321703424,1.0430865287780762,9.945563316345215,2.324516773223877,-0.24126963317394257,-0.8752862811088562,-0.47868043184280396,0.06884106993675232,-0.9437139630317688,-0.918078601360321,1.2798222303390503,-0.4527753136845555,0.2470769095608386,0.6880214646615952,0.5104645126681976,0.4991511532510473,-1.649284534121092,-1.1523566555128122
1773062297331741440,1.0531244277954102,4.209849834442139,1.3965431451797485,0.17640604078769684,-0.8768590092658997,-0.47286707162857056,0.08669040352106094,-0.5794704556465149,-3.1888914108276367,1.2398781776428223,-0.4678922538763836,0.22586618119579627,0.7016620768945661,0.48757740383623865,0.49254179470827436,-1.669340796883832,-1.0707091304521885
1773062297341778176,1.0631613731384277,-2.0695858001708984,0.9812405705451965,-0.26570531725883484,-0.8778025507926941,-0.472184956073761,0.08064842224121094,-0.019948303699493408,-3.7185041904449463,1.3817691802978516,-0.4731668946000285,0.22061416414413348,0.701180148441988,0.4855810470274028,0.4917678038104648,-1.6624144699129846,-1.0598174727042582
1773062297351816448,1.0731995105743408,-5.093958377838135,0.9383399486541748,-1.1030364036560059,-0.8751450777053833,-0.48074159026145935,0.054852236062288284,0.1427537202835083,-2.7286548614501953,1.8669464588165283,-0.4702526286138207,0.22510533643765368,0.6904735368166248,0.5014343762199386,0.5015002389322022,-1.6333923176316414,-1.1025053176870863
1773062297361853440,1.0832364559173584,-6.4331955909729,1.1432064771652222,-1.453504204750061,-0.8691501617431641,-0.4943031668663025,0.015573089942336082,0.17028236389160156,-1.5668234825134277,1.2321381568908691,-0.4641720006752002,0.23140255356086703,0.6739728503212556,0.5260778193732253,0.5170330313534244,-1.5887120151755627,-1.1697061811387846
1773062297371891200,1.0932743549346924,-6.331519603729248,0.6571085453033447,-0.8345621228218079,-0.8628948926925659,-0.5048174858093262,-0.023915722966194153,0.31760674715042114,-0.9470563530921936,0.42622900009155273,-0.4560536112136856,0.23978777596245152,0.6561584877893807,0.5513375694079354,0.5291705236351806,-1.5430877361939712,-1.2440578812426168
1773062297381928448,1.103311538696289,-5.107504844665527,-0.4073215126991272,0.5626951456069946,-0.8622855544090271,-0.5033743977546692,-0.055478792637586594,0.5110129714012146,-0.6567971110343933,-0.15156769752502441,-0.4494008711955235,0.25197070528958854,0.6393523034958825,0.5707698889122884,0.5274995735915313,-1.5065456514158029,-1.3115988432906718
1773062297391966464,1.113349437713623,-3.042095899581909,-1.4205002784729004,1.1251916885375977,-0.8675581812858582,-0.49282002449035645,-0.06686671823263168,0.7000930309295654,-0.47863075137138367,-0.5746890902519226,-0.4434891449748501,0.26703021226373386,0.6286982633479405,0.5803022406365392,0.5153277037483074,-1.4938737828675017,-1.357856697122711
1773062297402003200,1.1233863830566406,-1.607842206954956,0.27157509326934814,-0.7273228764533997,-0.869530975818634,-0.4885628819465637,-0.07226331532001495,0.4223417639732361,-0.3483663499355316,-0.8531517386436462,-0.4392152736531471,0.27496178022235757,0.623108628597819,0.5858510712791657,0.5104419264540061,-1.487880781574053,-1.383638249515025
1773062297412041472,1.1334245204925537,-2.0197582244873047,1.6959398984909058,-2.6837353706359863,-0.859902024269104,-0.502556324005127,-0.08947350829839706,-0.21066981554031372,-0.28856605291366577,-0.5955851078033447,-0.43459348482286825,0.2703709889175486,0.6181931534397109,0.5965443465012034,0.5265530845797973,-1.4671185929175563,-1.4057197395630512
1773062297422078464,1.1434614658355713,-1.707578182220459,3.3194751739501953,-3.1964681148529053,-0.8413854837417603,-0.5265300869941711,-0.12180584669113159,-0.45925843715667725,-0.24594610929489136,0.1716715693473816,-0.43080146564360255,0.2572872434505782,0.6106556730661893,0.6126280013956152,0.5545138818434003,-1.427026952769145,-1.432759710529083
1773062297432116224,1.1534993648529053,-0.7915383577346802,2.299649715423584,-2.423691511154175,-0.821906328201294,-0.5486554503440857,-0.15312516689300537,-0.12136149406433105,-0.16592895984649658,0.36693131923675537,-0.42941624171608933,0.2420387999973613,0.6040319802370032,0.6262302594334124,0.5807551361789441,-1.386603142318558,-1.4526989970590176
1773062297442153472,1.163536548614502,-0.16409681737422943,0.9494256377220154,-1.7775839567184448,-0.8080152869224548,-0.5646010637283325,-0.16833652555942535,0.2607892155647278,-0.23119062185287476,0.15556488931179047,-0.4269743390309819,0.2320830516030405,0.601638760067441,0.633925332081592,0.5999498552302938,-1.365400933486401,-1.4633006979054457
1773062297452191232,1.173574447631836,0.6661076545715332,1.3828372955322266,-2.1496615409851074,-0.7951990365982056,-0.5803612470626831,-0.17561128735542297,0.31491339206695557,-0.4846411943435669,0.04524022340774536,-0.4244791586553887,0.22230690858699573,0.6023072257163727,0.6384536908728908,0.6191722130232985,-1.3534455085338335,-1.4651019147201
1773062297462228224,1.1836113929748535,0.9736151695251465,2.1998674869537354,-3.008418321609497,-0.7765899300575256,-0.6023001670837402,-0.18477731943130493,-0.054983556270599365,-0.7766060829162598,-0.16597646474838257,-0.42255514975293945,0.20685389862147094,0.6040056312158177,0.6433007370532386,0.6463794386502324,-1.337205519679146,-1.4619071630696145
1773062297472266496,1.1936495304107666,0.8007699847221375,2.6407060623168945,-3.433990240097046,-0.7517521381378174,-0.6290433406829834,-0.1979224681854248,-0.3643367290496826,-0.9288485646247864,-0.1538383960723877,-0.4203539326075327,0.1870583919756475,0.6050189438462023,0.6498183120763232,0.6803219311892562,-1.3133569597300276,-1.4605992820974314
1773062297482303488,1.2036864757537842,0.0194358192384243,2.549945831298828,-3.5428032875061035,-0.7237837314605713,-0.655841052532196,-0.2144991010427475,-0.266343891620636,-0.9091309309005737,-0.033105283975601196,-0.41723026786925116,0.1669209970271834,0.6040594619942558,0.6581554460650684,0.7152962240564594,-1.2826841544700358,-1.4673696619820167
1773062297492341248,1.2137243747711182,-0.759564995765686,2.3933494091033936,-3.671579360961914,-0.6940740346908569,-0.6805777549743652,-0.23468098044395447,-0.054796814918518066,-0.8263497352600098,0.07197654247283936,-0.41233431014337196,0.14869055107237744,0.6004586842059318,0.6688205491045295,0.7485509379385827,-1.2447431136059093,-1.4872511033473852
1773062297502378496,1.2237615585327148,-1.186815857887268,2.523350715637207,-3.9050822257995605,-0.6616749167442322,-0.703913152217865,-0.2582487463951111,-0.005866527557373047,-0.7842001914978027,0.05895379185676575,-0.4062019109321945,0.1310124439873874,0.5947363793629654,0.6812666975539216,0.7808918504197356,-1.1986837819069276,-1.518084895787192
1773062297512416256,1.2337994575500488,-1.7016221284866333,2.5740749835968018,-4.110123157501221,-0.625922441482544,-0.7259502410888672,-0.2849864959716797,-0.09148478507995605,-0.7678699493408203,-0.11551094055175781,-0.3990298498146305,0.1131917634116077,0.5871067833161118,0.6951750976221047,0.8124150679591144,-1.1435383674059358,-1.5593988447659275
1773062297522453248,1.2438364028930664,-2.3572499752044678,2.5534780025482178,-4.270008087158203,-0.5872095227241516,-0.7453799247741699,-0.31558457016944885,-0.2086735963821411,-0.7765774130821228,-0.16215285658836365,-0.3906694514241434,0.09589933829854055,0.577071086255089,0.710752819629933,0.8411045619312139,-1.0776542757905438,-1.613910181629428
1773062297532491520,1.2538745403289795,-3.1017861366271973,2.712641477584839,-4.401890277862549,-0.5456634759902954,-0.7609030604362488,-0.35110944509506226,-0.3163054585456848,-0.7959969639778137,-0.13576799631118774,-0.38131232204258375,0.07931677071912094,0.5640515223982678,0.7281178563298476,0.8647037130975556,-0.9990365141489795,-1.6833739274341266
1773062297542528512,1.263911485671997,-3.6149680614471436,2.804014205932617,-4.441492557525635,-0.5011181235313416,-0.7716027498245239,-0.3918030858039856,-0.37061643600463867,-0.7862280011177063,-0.09685960412025452,-0.3714832100521537,0.0629843372122832,0.5478425208554115,0.7469281595084731,0.8813569700781125,-0.9072160623623854,-1.7665681770743358
1773062297552566272,1.273949384689331,-3.8589510917663574,2.604135751724243,-4.117850303649902,-0.4566446840763092,-0.7768604159355164,-0.4335474669933319,-0.3241475224494934,-0.7469126582145691,-0.1463170051574707,-0.36132851293235446,0.048081290272872314,0.5300136372929137,0.765647006747484,0.8896643277944025,-0.8113386554897283,-1.855824696512647
1773062297562603520,1.2839865684509277,-4.076817989349365,2.7129311561584473,-3.899167537689209,-0.41338050365448,-0.7760778665542603,-0.4762558937072754,-0.13897237181663513,-0.594222366809845,-0.10620257258415222,-0.3519566232007743,0.034437592144161686,0.510574282495378,0.7837438816241109,0.8884224669593441,-0.714840093276497,-1.9456187752099263
1773062297572641280,1.2940244674682617,-3.865856885910034,2.8201193809509277,-3.888186454772949,-0.36935940384864807,-0.7714660167694092,-0.5180865526199341,-0.09549957513809204,-0.40852659940719604,-0.13947564363479614,-0.34286229204753127,0.020634116299308274,0.49043955242377757,0.8009298466609461,0.8811420431551883,-0.619351166582583,-2.033179255464053
1773062297582678272,1.3040614128112793,-3.8484623432159424,3.1455650329589844,-3.8427531719207764,-0.32339832186698914,-0.7642870545387268,-0.5579235553741455,-0.13827157020568848,-0.2747143507003784,-0.17841976881027222,-0.33405371911930903,0.005699835534984708,0.4701124553299432,0.8169270635432766,0.8699350792906322,-0.525319070268013,-2.1166837559272325
1773062297592716544,1.3140995502471924,-4.169543743133545,3.333216667175293,-3.6770052909851074,-0.2757914066314697,-0.7523646950721741,-0.5982362031936646,-0.12340900301933289,-0.12643474340438843,-0.04882800579071045,-0.3260173180514101,-0.009838901038484811,0.4480905015852374,0.8323646440218805,0.8516444315073042,-0.43197003230927183,-2.1965908400573557
1773062297602754304,1.3241374492645264,-4.384743690490723,3.482388973236084,-3.419381856918335,-0.22817154228687286,-0.7347725629806519,-0.6387856006622314,-0.08571699261665344,-0.019179463386535645,0.13843464851379395,-0.3188518706437999,-0.02500605525623259,0.424242721606976,0.8471873346837409,0.8253313417105261,-0.3430708981322973,-2.270259959639872
1773062297612791296,1.334174394607544,-4.523242473602295,3.5934560298919678,-3.1581718921661377,-0.18084363639354706,-0.7120435237884521,-0.6784464716911316,-0.011859610676765442,0.0017316937446594238,0.2181345820426941,-0.31282178135921535,-0.039936730286412446,0.3989759819692742,0.8610259473864343,0.792404344169517,-0.260498603800143,-2.3351384022877255
1773062297622829312,1.344212532043457,-4.503891944885254,3.6252660751342773,-2.9799373149871826,-0.13402441143989563,-0.6851955056190491,-0.7159221768379211,0.031790509819984436,-0.005524098873138428,0.24004632234573364,-0.3075480344718354,-0.05456634587564008,0.37290940534459144,0.8737134677158861,0.7548720548265356,-0.1850632172044199,-2.3911359460142703
1773062297632866304,1.3542494773864746,-4.4325714111328125,3.6714272499084473,-2.747159957885742,-0.08783325552940369,-0.6555881500244141,-0.7499930262565613,0.032184451818466187,0.023904800415039062,0.21175450086593628,-0.30282878471850305,-0.06902612849238886,0.3467547950137672,0.8850374103189371,0.7149612135260478,-0.11658105329792505,-2.438648036414519
1773062297642904320,1.3642873764038086,-4.479605674743652,3.6716043949127197,-2.351269006729126,-0.0431036502122879,-0.6230254173278809,-0.7810130715370178,-0.013277579098939896,0.12626028060913086,0.13753467798233032,-0.29926500142471063,-0.0830279182043447,0.3203120795494763,0.8949564445859967,0.6726045994736625,-0.05513347664631324,-2.4769111943589546
1773062297652941568,1.3743245601654053,-4.211338996887207,3.564567804336548,-1.8833974599838257,-0.0013320569414645433,-0.5886632800102234,-0.808377206325531,-0.10016941279172897,0.2746984362602234,0.1254395842552185,-0.29724381372352643,-0.09609354265490522,0.2942404165915164,0.9032356671261232,0.6294042860020749,-0.0016478145507843604,-2.5052068269623877
1773062297662979328,1.3843624591827393,-3.919721841812134,3.506781816482544,-1.4082437753677368,0.03717513754963875,-0.5550204515457153,-0.8310056328773499,-0.20117661356925964,0.3374301791191101,0.07960182428359985,-0.296834210225615,-0.10844531217500092,0.26969762707680645,0.9096110238437518,0.5883875219221522,0.044705317611306604,-2.5242693351710446
1773062297673016320,1.3943994045257568,-3.726855754852295,3.434875011444092,-1.0052961111068726,0.07298064231872559,-0.5220835208892822,-0.849766194820404,-0.2953317165374756,0.3608896732330322,0.13484615087509155,-0.2980370546876149,-0.1201940765321951,0.24631337806118017,0.9143614752193691,0.5492919929233361,0.08567297085926816,-2.535562312820581
1773062297683054336,1.40443754196167,-3.5149638652801514,3.293022394180298,-0.6444242596626282,0.10612298548221588,-0.4902104139328003,-0.865119457244873,-0.3633861839771271,0.3824223279953003,0.25180768966674805,-0.3004998129534257,-0.1311992145891008,0.22411391872063657,0.9177469830984537,0.5123311585831111,0.12205880228388387,-2.5407391401499333
1773062297693091328,1.4144744873046875,-3.3223681449890137,3.0653076171875,-0.31964272260665894,0.13630786538124084,-0.4597412049770355,-0.8775295615196228,-0.38887137174606323,0.362130731344223,0.3404201865196228,-0.3040370575375417,-0.14123673772308667,0.20319299109346464,0.9199598980133207,0.4777037648860824,0.1540998781880696,-2.540808186409401
1773062297703129344,1.4245123863220215,-3.239531993865967,2.7810795307159424,-0.032158222049474716,0.16300582885742188,-0.43046632409095764,-0.887765645980835,-0.4058647155761719,0.32765260338783264,0.46297621726989746,-0.30848170012521325,-0.14989250038320792,0.18343778506822092,0.9212609861377064,0.4450093683362043,0.18159089387558675,-2.536560257811142
1773062297713166592,1.4345495700836182,-3.14927339553833,2.4300477504730225,0.2120209038257599,0.18598410487174988,-0.401968389749527,-0.8965663909912109,-0.42412805557250977,0.29851382970809937,0.5661373734474182,-0.31363617532468324,-0.15687939974039775,0.16463794564483225,0.9219085860314343,0.4136655351626076,0.20453945464066323,-2.528814307657759
1773062297723204352,1.4445874691009521,-2.926384449005127,2.1556601524353027,0.41078776121139526,0.20542730391025543,-0.37506920099258423,-0.9039484262466431,-0.43939030170440674,0.31035667657852173,0.5928827524185181,-0.31932916063211975,-0.16238123629473958,0.1471670261452713,0.9219561214232601,0.38447143277203016,0.22346028084567243,-2.518404132931045
1773062297733241344,1.4546244144439697,-2.549604892730713,1.9381811618804932,0.5793715715408325,0.22224780917167664,-0.35110875964164734,-0.9095760583877563,-0.46535083651542664,0.34032076597213745,0.5471340417861938,-0.3253372302986802,-0.16705474820976748,0.1315473073314142,0.9213814105340864,0.35875497472042,0.23964662358292235,-2.506386401427087
1773062297743280128,1.4646632671356201,-1.9637913703918457,1.6878403425216675,0.7406302690505981,0.23658756911754608,-0.331857293844223,-0.9131796360015869,-0.5294800400733948,0.322213739156723,0.4672415256500244,-0.33146690543901125,-0.1712862375617625,0.11862209410219629,0.9201736563748103,0.3382717618387032,0.253507132636824,-2.493605492848857
1773062297753317120,1.4747002124786377,-1.3503161668777466,1.4888830184936523,0.7854126691818237,0.2486623078584671,-0.3185575008392334,-0.9147065877914429,-0.5743916630744934,0.2616117000579834,0.37541520595550537,-0.3373902197694961,-0.17540970161260894,0.10898684081257057,0.9184340914313314,0.32420731362015676,0.2654346362579281,-2.4811505766467272
1773062297763355136,1.4847381114959717,-1.169168472290039,1.6664279699325562,0.9742323756217957,0.2599118947982788,-0.31007254123687744,-0.9144948124885559,-0.5895169973373413,0.21931326389312744,0.3382009267807007,-0.3429736787097941,-0.17994592062021733,0.10184324124918434,0.9163058828325152,0.3152693435878925,0.27691172225601274,-2.469570518254906
1773062297773391872,1.4947750568389893,-1.131963849067688,1.0536468029022217,1.123467206954956,0.2689080834388733,-0.3000686764717102,-0.9152306914329529,-0.6048455834388733,0.2422836422920227,0.21398252248764038,-0.35006636640637145,-0.18315173295495113,0.09402177736244723,0.9138210150837262,0.3047646461813374,0.28577243959455817,-2.4541025774334924
1773062297783430144,1.5048131942749023,0.6497460603713989,0.8832466006278992,0.6581801176071167,0.2753143310546875,-0.30044063925743103,-0.9132017493247986,-0.755859375,0.5300244092941284,0.21204513311386108,-0.3549627989582,-0.18689066431855456,0.0920380672266084,0.9113738246871349,0.30515460098839436,0.2928163239453017,-2.4441253975481714
1773062297793467136,1.51485013961792,1.8186278343200684,0.6942682862281799,0.26240605115890503,0.2811509668827057,-0.3135004937648773,-0.9070124626159668,-0.8297959566116333,0.2921992242336273,0.2071681022644043,-0.3560483221319584,-0.19258283537910892,0.09698260159303468,0.9092501668879092,0.31887711907530714,0.3005826406000834,-2.4438236255432777
1773062297803505152,1.524888277053833,2.005618095397949,0.2644519507884979,0.19730161130428314,0.2849028408527374,-0.331862211227417,-0.8992763161659241,-0.99941086769104,0.07697939872741699,0.4080958962440491,-0.35540632987202514,-0.19821173697826336,0.10523287821084078,0.9073723627961287,0.338276990466173,0.3068097355555764,-2.447749522876785
1773062297813542144,1.5349252223968506,1.6583908796310425,0.26361435651779175,-0.02344968356192112,0.2866246700286865,-0.3488897383213043,-0.8922568559646606,-0.9617650508880615,0.05939999222755432,0.6173087358474731,-0.3541422985226226,-0.20251948192513722,0.11339064927029208,0.9059314458026391,0.35638613906172895,0.31082339224395994,-2.452712924561574
1773062297823579904,1.5449631214141846,1.2052619457244873,0.011032992973923683,-0.4613596498966217,0.28909948468208313,-0.3609311878681183,-0.8866510987281799,-0.6897189617156982,-0.010025233030319214,0.8899164795875549,-0.35169433062506233,-0.20601060477206684,0.11930664986338316,0.905337895860834,0.3692661928489659,0.3151883050665362,-2.4598817042333283
1773062297833616896,1.5550000667572021,0.7073240280151367,-0.4713834524154663,-0.94815593957901,0.28984150290489197,-0.36737945675849915,-0.8837557435035706,-0.5519570112228394,-0.33119842410087585,0.7129335999488831,-0.34737398459325336,-0.20717875889655268,0.12328459058949716,0.9062059116447109,0.3761898903957085,0.31691187153674943,-2.4703029685163744
1773062297843655168,1.5650382041931152,-0.15786825120449066,-1.0812113285064697,-1.3178964853286743,0.28614649176597595,-0.36739715933799744,-0.8849517107009888,-0.49154502153396606,-0.8050576448440552,0.5242491960525513,-0.34122841693232836,-0.204480244762755,0.12534740465748911,0.9088669690343271,0.376208921600342,0.3127360969092078,-2.483276260076973
1773062297853692160,1.5750751495361328,-0.7653132081031799,-1.205366849899292,-1.2633490562438965,0.2813900113105774,-0.3589518368244171,-0.8899288177490234,-0.3822811245918274,-1.1428487300872803,0.8443050384521484,-0.33493003616509515,-0.19948486053587677,0.12345604659412772,0.9125712610855415,0.3671446315696514,0.30624655131826145,-2.4953752773859916
1773062297863730176,1.585113286972046,-2.679847002029419,-1.216327428817749,-0.17739370465278625,0.27313312888145447,-0.34267598390579224,-0.8988723158836365,-0.39344871044158936,-1.2794095277786255,0.5700302124023438,-0.3322837098527461,-0.19171945840848306,0.11750525762063395,0.9159823695183456,0.34976388125653923,0.2949961150448787,-2.498086543504259
1773062297873767168,1.5951502323150635,-4.278077125549316,-2.018796443939209,0.5939654111862183,0.2569151818752289,-0.31112536787986755,-0.9149839282035828,-0.4565611779689789,-0.8646253347396851,-0.009393513202667236,-0.33586593465760867,-0.17787038249296233,0.10426004494190111,0.9190680698253991,0.31637693408398276,0.27373792110746287,-2.484797976183615
1773062297883804928,1.6051881313323975,-4.602877140045166,-1.4068406820297241,0.08468011766672134,0.23957136273384094,-0.2702636420726776,-0.9325037002563477,-0.614159345626831,-0.119415283203125,-0.15708065032958984,-0.3407863968287625,-0.16196149350268513,0.08669850697760609,0.922017651191379,0.27366686687481767,0.25147340133739154,-2.4683265366871026
1773062297893841920,1.615225076675415,-3.2180309295654297,-0.8442097306251526,-0.5750691890716553,0.2296454757452011,-0.23174148797988892,-0.9452823996543884,-0.6376349925994873,0.6143098473548889,0.0811772346496582,-0.3420313745086702,-0.14994672372727139,0.06981956298199528,0.9250166594572307,0.2338675225422277,0.23832156296908652,-2.4613873505309485
1773062297903880192,1.6252632141113281,-0.5706741213798523,-0.4630860984325409,-0.03960548713803291,0.22470517456531525,-0.21220973134040833,-0.9510387182235718,-0.536167562007904,1.088582992553711,-0.15864145755767822,-0.34160001802908757,-0.14388844199839854,0.06145540094287583,0.9267301260231766,0.21383563998012747,0.23201840310147998,-2.460295759783346
1773062297913917184,1.6353001594543457,2.161682367324829,0.008493402972817421,0.5620515942573547,0.22119809687137604,-0.2210768163204193,-0.9498401880264282,-0.19469358026981354,1.1444014310836792,-0.8546947240829468,-0.342250619916565,-0.143873319902688,0.06618428318527013,0.9261665980482072,0.22291846340758184,0.22880127772599199,-2.459370626170222
1773062297923954944,1.6453380584716797,3.142672538757324,0.6113201379776001,0.7229944467544556,0.22323773801326752,-0.24902009963989258,-0.942419171333313,-0.09112714231014252,0.8786435127258301,-0.890527606010437,-0.3434146724275973,-0.15018818300131762,0.07895518245802861,0.9237293754344159,0.2516683446947815,0.2325902934844072,-2.4592757455007894
1773062297933992192,1.6553752422332764,2.5645511150360107,0.5813106298446655,0.6020024418830872,0.22693735361099243,-0.2778884172439575,-0.9334224462509155,-0.11438854038715363,0.657633900642395,-0.3710514307022095,-0.3445523740841266,-0.1576096964281247,0.09191281602413151,0.9208662987608717,0.28159524958753995,0.23849669831540746,-2.459483853533505
1773062297944029952,1.6654131412506104,1.4539666175842285,0.5525274276733398,0.5055853724479675,0.23084716498851776,-0.2981078326702118,-0.9261972308158875,-0.02053527534008026,0.3565947711467743,0.02818697690963745,-0.3457108744031635,-0.16357865064797328,0.10071450294343413,0.9184675600372946,0.3027097528029045,0.24426504395443932,-2.459035888220429
1773062297954066944,1.675450086593628,0.4237813949584961,0.2323496788740158,0.6300793886184692,0.23287656903266907,-0.3077835738658905,-0.9225170612335205,0.17332763969898224,-0.073365718126297,0.432450532913208,-0.347723332397593,-0.16670984720005724,0.10463883977857064,0.9167044204881809,0.31286265074680264,0.24727010662191307,-2.455683505814614
1773062297964105216,1.685488224029541,0.2010447233915329,-0.1616319864988327,0.7793498635292053,0.23090243339538574,-0.31188738346099854,-0.9216346144676208,0.39844632148742676,-0.47294843196868896,0.5531043410301208,-0.3508259923242374,-0.16691971813569048,0.1063978896706914,0.9152804810350375,0.31717884780567396,0.2454828503924241,-2.4489935650164267
1773062297974141952,1.6955251693725586,0.4458285868167877,-0.30099186301231384,0.5656875371932983,0.22641770541667938,-0.31644129753112793,-0.921194851398468,0.4880750775337219,-0.7740890979766846,0.3793399930000305,-0.35363454527564714,-0.16597389889648181,0.10888179969864377,0.9140787569768137,0.32197563559637893,0.24100955604793586,-2.44263425272886
1773062297984179968,1.7055630683898926,0.4001425802707672,-0.396881103515625,0.09122136980295181,0.22212369740009308,-0.32148465514183044,-0.9204937219619751,0.3681015372276306,-0.8975552320480347,0.1752849817276001,-0.3545627937824948,-0.16501098264460218,0.11191299942255203,0.9135272720362958,0.3272969671210782,0.23678260488286512,-2.4404148798649845
1773062297994217216,1.7156002521514893,-0.22936761379241943,-0.4394797086715698,-0.20953793823719025,0.21845997869968414,-0.32228490710258484,-0.9210904836654663,0.21313486993312836,-0.7626302242279053,0.1551603078842163,-0.3538836422464635,-0.16329980970698746,0.11308375598242779,0.9139537814091575,0.3281422030961034,0.23287248233576582,-2.4414688988761544
1773062298004254976,1.7256381511688232,-1.0086960792541504,-0.39660894870758057,-0.20621031522750854,0.21528878808021545,-0.31606993079185486,-0.9239861965179443,0.16814932227134705,-0.40100157260894775,0.1881616711616516,-0.3531098867169891,-0.16039940337379419,0.11081029231085389,0.9150445736207344,0.32158419964798446,0.22891578599754936,-2.4423059429998624
1773062298014291968,1.7356750965118408,-1.3571115732192993,-0.3061770498752594,0.04276835173368454,0.21224643290042877,-0.30449870228767395,-0.9285644888877869,0.19423244893550873,0.00936320424079895,0.17227786779403687,-0.353459429452657,-0.15663442050544818,0.1057516834851599,0.9161597234036085,0.3094120843988091,0.22471436745675016,-2.4403616420766703
1773062298024330240,1.745713233947754,-0.989154577255249,-0.18588633835315704,0.3117803931236267,0.20943079888820648,-0.2934640347957611,-0.9327473044395447,0.23762118816375732,0.3418954312801361,0.12632036209106445,-0.35513207948559156,-0.15325031512864412,0.10070092120091843,0.9166541048615358,0.29784840997073975,0.22086811379528867,-2.4356296821088934
1773062298034366976,1.7557501792907715,-0.0844317227602005,-0.1394498646259308,0.42850354313850403,0.20681463181972504,-0.2890991270542145,-0.9346921443939209,0.25902092456817627,0.4905151426792145,0.0329892635345459,-0.3572157860955948,-0.15133699727641353,0.09874735162346489,0.9163749330491866,0.29328564417887765,0.21775656205666236,-2.4304916470336657
1773062298044404992,1.7657880783081055,0.7913216352462769,-0.07782350480556488,0.4496924579143524,0.204525887966156,-0.29348137974739075,-0.933829665184021,0.2353850156068802,0.44394832849502563,-0.078072190284729,-0.3589117782508256,-0.1512917873899644,0.10097505533961139,0.9154765224520739,0.2978665718610159,0.2156138346340425,-2.426800512192825
1773062298054442240,1.7758252620697021,1.0574592351913452,-0.009051768109202385,0.44331830739974976,0.20271539688110352,-0.3035350739955902,-0.9310064315795898,0.17886114120483398,0.3184123933315277,-0.10096073150634766,-0.3601879891021079,-0.152590262165219,0.10589148464988023,0.9142034265222311,0.3084005905392519,0.21439163371783632,-2.4244104955420727
1773062298064480000,1.7858631610870361,0.8072057366371155,-0.01034659706056118,0.5014971494674683,0.20124471187591553,-0.3134056627750397,-0.9280503392219543,0.10977517068386078,0.22582021355628967,0.0028336644172668457,-0.3615925191181844,-0.15405680378904635,0.1106405206625633,0.9128395509103088,0.31877726451742894,0.21354065983879353,-2.421736082225996
1773062298074516992,1.7959001064300537,0.26581838726997375,-0.055683985352516174,0.6554127335548401,0.1991242617368698,-0.3196699321269989,-0.9263696074485779,0.07120044529438019,0.1956007182598114,0.09093564748764038,-0.3637863855568864,-0.1545885262022813,0.11365553012859593,0.9115066112086763,0.32538112560801374,0.21172951326563275,-2.4170048055977804
1773062298084555264,1.8059382438659668,-0.3198091387748718,-0.06240633502602577,0.8144024014472961,0.19613151252269745,-0.32077303528785706,-0.9266267418861389,0.05199165642261505,0.24029818177223206,0.15924698114395142,-0.3671354589682374,-0.15378827035553277,0.11417442999136136,0.9102335344677692,0.3265455488088599,0.20858330787416166,-2.4093080665033915
1773062298094592000,1.8159751892089844,-0.6464765071868896,-0.11122380942106247,1.0353063344955444,0.19245794415473938,-0.317963570356369,-0.9283636808395386,0.00203058123588562,0.3419046103954315,0.11336123943328857,-0.37168504487263204,-0.15199426875971433,0.11276482973481572,0.9088630187326815,0.3235808015767138,0.2044132521550799,-2.3986634596872722
1773062298104630016,1.8260130882263184,-0.7713066339492798,-0.16297009587287903,1.2091915607452393,0.18754872679710388,-0.3133487403392792,-0.930933952331543,-0.04657277464866638,0.4488315284252167,0.04947948455810547,-0.3773067937218206,-0.14934876633836391,0.11058013513013581,0.9072522074918469,0.31871733564721055,0.19880186837979585,-2.3854083802741757
1773062298114667264,1.836050271987915,-0.645844578742981,-0.15333130955696106,1.1857494115829468,0.18229661881923676,-0.30881255865097046,-0.9334895610809326,-0.11007677018642426,0.5130972266197205,0.008593320846557617,-0.383274786297749,-0.14658528502997803,0.10848032570990966,0.9054529846990373,0.3139443146643598,0.19285794059304714,-2.3713563888672393
1773062298124705024,1.846088171005249,-0.4014177620410919,-0.17755383253097534,1.0331372022628784,0.17734278738498688,-0.30592530965805054,-0.9353925585746765,-0.21889247000217438,0.47085756063461304,-0.07672291994094849,-0.38859718823837147,-0.14423319607589977,0.10724041060976543,0.9037081628936425,0.3109101725201519,0.18736797088407098,-2.358839801975356
1773062298134742016,1.8561251163482666,-0.33894822001457214,-0.22828052937984467,0.9133244156837463,0.1725192368030548,-0.3042820394039154,-0.9368295073509216,-0.2907748520374298,0.3221958577632904,-0.1087636947631836,-0.39315265504672864,-0.1421212989866547,0.1067088031524691,0.9021340888349219,0.3091846289239855,0.18211191704139346,-2.348078866307689
1773062298144780032,1.8661632537841797,-0.44849973917007446,-0.3327225148677826,0.77707439661026,0.16729836165905,-0.30210059881210327,-0.9384809732437134,-0.3094492554664612,0.14632362127304077,-0.07058274745941162,-0.39711303587539126,-0.13963501479108908,0.10612062688345504,0.9008561563518355,0.3068954557352965,0.1764119329559844,-2.338563583123372
1773062298154817024,1.8762001991271973,-0.6573594212532043,-0.4249569773674011,0.6378250122070312,0.16160699725151062,-0.2981247007846832,-0.9407469630241394,-0.3113262355327606,0.012617498636245728,-0.030490219593048096,-0.40046177652633735,-0.13645991704185273,0.1049057090389432,0.9000021883538188,0.3027274083713951,0.17012530870380876,-2.330299698999655
1773062298164855040,1.8862380981445312,-0.9541037082672119,-0.5296037793159485,0.6127529740333557,0.1552686095237732,-0.29151713848114014,-0.9438799619674683,-0.2786359190940857,-0.038515180349349976,-0.03820616006851196,-0.4035262790698967,-0.13236387783641104,0.10266360452142542,0.8995034675811104,0.29581248633035695,0.16304019606825615,-2.3225425848109897
1773062298174893056,1.8962762355804443,-1.2471916675567627,-0.46768617630004883,0.7138350009918213,0.14854496717453003,-0.28204795718193054,-0.947830855846405,-0.19387882947921753,0.011326521635055542,-0.0828087329864502,-0.40696417687439296,-0.12749214015019442,0.09914795834366681,0.8990526775139352,0.2859280484356612,0.15545644594214544,-2.313888617830973
1773062298184930048,1.906313180923462,-1.448661208152771,-0.3434782028198242,0.8863832950592041,0.14241932332515717,-0.2703021168708801,-0.9521835446357727,-0.08797596395015717,0.13855770230293274,-0.1283523440361023,-0.4112158999041869,-0.12247403821945081,0.09438398736103126,0.8983280080460178,0.2737068004394176,0.14847064880526673,-2.303504340129234
1773062298194968064,1.916351079940796,-1.3973963260650635,-0.21876783668994904,1.0548491477966309,0.13715839385986328,-0.25779828429222107,-0.9564139246940613,-0.011853232979774475,0.27151596546173096,-0.17392659187316895,-0.41636269323390546,-0.11775985225789261,0.08902610318134911,0.8971338402819686,0.26074276146457387,0.14243786763765082,-2.2912594083012663
1773062298205005056,1.9263882637023926,-1.0509617328643799,-0.08040250837802887,1.1680771112442017,0.1328597366809845,-0.24742324650287628,-0.9597551822662354,0.019773930311203003,0.3588123917579651,-0.22627997398376465,-0.4220121057461818,-0.113984313380924,0.084439217293201,0.8954235490170793,0.2500199071326841,0.13755663163689608,-2.278057150122676
1773062298215043072,1.9364261627197266,-0.6838228106498718,0.07309316843748093,1.2934682369232178,0.12980784475803375,-0.24077829718589783,-0.9618605375289917,0.0046220868825912476,0.3799690008163452,-0.260353147983551,-0.428022137940983,-0.1116272326308068,0.08129625235232629,0.8931558495082254,0.24316766311124627,0.1341444801904159,-2.2642286316664086
1773062298225080064,1.9464631080627441,-0.6223543882369995,0.216594398021698,1.4024890661239624,0.1279417723417282,-0.236355721950531,-0.9632065296173096,-0.044674575328826904,0.338986337184906,-0.25447529554367065,-0.4344885408521298,-0.1103368306520813,0.07888285640623499,0.8904060368414659,0.2386135843092483,0.13205597762911048,-2.24949616185495
1773062298235118080,1.9565012454986572,-0.7663264870643616,0.3260374367237091,1.297509789466858,0.1274983286857605,-0.23134978115558624,-0.9644798636436462,-0.10229082405567169,0.21442779898643494,-0.19567632675170898,-0.4410966318052446,-0.10954739006358341,0.07589088995918482,0.8875097614295426,0.23346487518934664,0.1314318011989661,-2.234529701770242
1773062298245155072,1.9665381908416748,-0.5275277495384216,0.1856246441602707,0.9777333736419678,0.1273987740278244,-0.22618243098258972,-0.9657179117202759,-0.1229126900434494,0.011262387037277222,-0.11326158046722412,-0.4466517935000956,-0.10875543660675739,0.07289242768375846,0.8850768916751652,0.2281567516266188,0.13116392777767433,-2.2219248514325685
1773062298255193088,1.9765760898590088,0.06445544958114624,0.13239191472530365,0.7914786338806152,0.12680737674236298,-0.22510427236557007,-0.9660475850105286,-0.10068432986736298,-0.29363352060317993,-0.19020241498947144,-0.4506908428086985,-0.10856227209766496,0.07204466499471343,0.8831204229244195,0.2270500554301431,0.1305179035958342,-2.212725461100663
1773062298265230080,1.9866132736206055,0.07709720730781555,0.19570696353912354,0.7744203209877014,0.12670184671878815,-0.22731274366378784,-0.9655441641807556,-0.027992740273475647,-0.5332158207893372,-0.23689419031143188,-0.4541224760492453,-0.109323285613901,0.07263834973030876,0.8812178283186893,0.22931729126994777,0.13047773301499205,-2.204959447595069
1773062298275268096,1.9966511726379395,-0.257196307182312,0.009483433328568935,0.6985470056533813,0.12612633407115936,-0.22722312808036804,-0.9656406044960022,0.04982276260852814,-0.6034195423126221,-0.011486470699310303,-0.4575143846482624,-0.10932037649984203,0.07231007988709444,0.8794890066566754,0.2292252736991293,0.12987890714398964,-2.1972037863378033
1773062298285305088,2.006688117980957,-0.4473228454589844,-0.15779264271259308,0.7489936947822571,0.12379606813192368,-0.22468963265419006,-0.9665345549583435,0.10442962497472763,-0.597072422504425,0.13531208038330078,-0.46077041465315194,-0.10792005063900245,0.0713160076143767,0.8780420432690536,0.22662451947631232,0.12738881491447399,-2.189574896623702
1773062298295343104,2.01672625541687,-0.6790508031845093,-0.24703943729400635,1.0125758647918701,0.11971160024404526,-0.22029560804367065,-0.9680593609809875,0.13593414425849915,-0.47779399156570435,0.14612948894500732,-0.4648910425828907,-0.10534084197196547,0.06981127169735295,0.8763024305590433,0.22211750687219117,0.12303679528090236,-2.1798103469956582
1773062298305380096,2.0267632007598877,-0.436652272939682,-0.1486758440732956,0.9595010876655579,0.1155276671051979,-0.21560797095298767,-0.9696218967437744,0.11718413233757019,-0.15431085228919983,0.21672272682189941,-0.4695620788111502,-0.10268061578600038,0.06815978493507056,0.8742554074189103,0.21731439881522577,0.11858808203323402,-2.1687745190740797
1773062298315418112,2.0368010997772217,0.2379748672246933,-0.09561622142791748,0.9553632140159607,0.11230354756116867,-0.21571949124336243,-0.9699757695198059,-0.004164502024650574,0.09876087307929993,0.1371510624885559,-0.4736743544224975,-0.10158738767989367,0.06849898038100728,0.8721356643844045,0.2174286065689762,0.11526652401577461,-2.1590957568224574
1773062298325455104,2.0468382835388184,0.6515520811080933,0.06515215337276459,1.1184165477752686,0.10979822278022766,-0.22135959565639496,-0.9689913988113403,-0.05515650659799576,0.23286473751068115,-0.04031646251678467,-0.47799778407120797,-0.10222386882719937,0.07109567507562528,0.8694905477936853,0.22320843754603795,0.1128306139879992,-2.1489565394149337
1773062298335493120,2.0568761825561523,0.9060364365577698,0.2905290722846985,1.0158803462982178,0.10906119644641876,-0.23020386695861816,-0.9670118093490601,-0.06648917496204376,0.36069703102111816,-0.05470144748687744,-0.4823892394934241,-0.10449779990608801,0.07466128002575452,0.866490919830914,0.23228717512853325,0.11230709003848417,-2.1387395289970965
1773062298345530112,2.06691312789917,1.0748175382614136,0.38055485486984253,0.8007464408874512,0.11026080697774887,-0.24087542295455933,-0.9642725586891174,-0.11369404196739197,0.3788759112358093,-0.011633753776550293,-0.4859218331820873,-0.10807123204343394,0.07864048418045223,0.8637222992543991,0.2432677300830329,0.1138516162697336,-2.1306081677883597
1773062298355568128,2.076951265335083,0.9896290898323059,0.43759670853614807,0.5475287437438965,0.11252660304307938,-0.25176554918289185,-0.9612241387367249,-0.08620519191026688,0.22159892320632935,-0.0051760077476501465,-0.4884583450038895,-0.11212797425728148,0.08255447857589145,0.8614061349605592,0.254504146173494,0.11653551345248388,-2.124844513972714
1773062298365605120,2.0869882106781006,0.7284582257270813,0.46536362171173096,0.2721315026283264,0.11582095921039581,-0.2606174945831299,-0.9584696292877197,-0.02281864732503891,-0.04199481010437012,0.03500771522521973,-0.4899128193279321,-0.1160397435757297,0.08543984146580472,0.8597791517257616,0.2636617559343418,0.12025639291491759,-2.1217036678226435
1773062298375643136,2.0970261096954346,0.2992379665374756,0.3782956898212433,0.04779786244034767,0.11962217092514038,-0.26573723554611206,-0.9565951228141785,0.01244264841079712,-0.37481147050857544,0.10959500074386597,-0.4904909949964319,-0.11912821558124646,0.0866654407946144,0.8589040180604609,0.2689685615642078,0.12440417078735011,-2.1207002687806455
1773062298385679872,2.107063055038452,0.11513256281614304,0.032543081790208817,-0.07237861305475235,0.12170590460300446,-0.2675800025463104,-0.9558182954788208,0.08062564581632614,-0.6898784637451172,0.2130051851272583,-0.4903503634294004,-0.12052442898022439,0.08697535586132822,0.8587582696446244,0.27088057664471665,0.1266500942202598,-2.1212297139662817
1773062298395718144,2.1171011924743652,-0.27584657073020935,-0.2683837115764618,0.09661787003278732,0.12050330638885498,-0.2670395076274872,-0.9561218023300171,0.16179955005645752,-0.8351180553436279,0.2210296392440796,-0.49032048848119664,-0.11984471401296605,0.08704227398358791,0.8588636085469886,0.27031967912671695,0.12537239565980468,-2.121177069548722
1773062298405755136,2.127138137817383,-0.7517238259315491,-0.31979870796203613,0.3392044007778168,0.11689392477273941,-0.26228266954421997,-0.9578849673271179,0.18352110683918,-0.58860844373703,0.2653953433036804,-0.4914368180195793,-0.11710429218350472,0.08569774778157888,0.8587387330241248,0.265386930398365,0.12143294241074354,-2.1182491226325664
1773062298415793152,2.137176275253296,-0.9356326460838318,-0.19035498797893524,0.4721081256866455,0.11336198449134827,-0.2543550729751587,-0.960443913936615,0.12017378211021423,-0.06542333960533142,0.27767419815063477,-0.49364148706127453,-0.11367304879032859,0.08280379997385354,0.8582191004114621,0.25718078333604566,0.11748724564855227,-2.1128429992891
1773062298425830144,2.1472132205963135,-0.5508937835693359,0.022783393040299416,0.4741760790348053,0.11120963096618652,-0.24741578102111816,-0.9625059962272644,0.051906831562519073,0.41294312477111816,0.13258051872253418,-0.4960718055717461,-0.11112788248117542,0.07998487950887734,0.8574181017194153,0.2500122059504664,0.11503167098901453,-2.1070452487691673
1773062298435867904,2.1572511196136475,-0.10437684506177902,0.33884215354919434,0.5592114925384521,0.1117582842707634,-0.2449987381696701,-0.9630606174468994,-0.022433340549468994,0.6452825665473938,-0.10532927513122559,-0.4985290032306617,-0.11096002241302536,0.07847023742582789,0.8561536802826716,0.2475183969213317,0.11552818073063392,-2.1013894915294586
1773062298445904896,2.167288064956665,0.0027368231676518917,0.5382663011550903,0.5343388915061951,0.11467406153678894,-0.2453259527683258,-0.9626344442367554,-0.10057494789361954,0.6011608839035034,-0.19204390048980713,-0.5011244417818043,-0.11256771076453956,0.07753257863625859,0.8545123676968401,0.24785591040043378,0.11856650032003693,-2.095593187823638
1773062298455943168,2.177326202392578,-0.09462355077266693,0.6315754652023315,0.45033690333366394,0.11921826750040054,-0.2454429566860199,-0.9620523452758789,-0.17350903153419495,0.3729911744594574,-0.1490926742553711,-0.5034518682677662,-0.11480766610384419,0.07611187256018463,0.8529726295637907,0.24797659937698782,0.12329222213478372,-2.090564782637643
1773062298465980160,2.1873631477355957,-0.1144060418009758,0.5682319402694702,0.6588890552520752,0.12377838790416718,-0.24498817324638367,-0.9615922570228577,-0.16799837350845337,0.11171792447566986,-0.10353219509124756,-0.5060593402810056,-0.11692045257482218,0.07438729795183577,0.8512931449045663,0.2475074884279714,0.12801835044494173,-2.084866808889227
1773062298476018176,2.197401285171509,0.34094732999801636,0.5226499438285828,0.8250981569290161,0.12695962190628052,-0.24686051905155182,-0.9606982469558716,-0.08902627229690552,0.017795592546463013,-0.18204772472381592,-0.5094012494352104,-0.11911273496863965,0.07391228992211323,0.8490345406196022,0.24943917108574928,0.13139211779886348,-2.077283554633488
1773062298486055168,2.2074382305145264,0.6507368683815002,0.6935535073280334,0.9676235914230347,0.13043120503425598,-0.252973735332489,-0.9586406946182251,-0.07125762104988098,0.1408368945121765,-0.2047504186630249,-0.5131764616569314,-0.12262819221528443,0.07511309622561183,0.8461502599404445,0.255752739361077,0.13522812771301262,-2.0686593183933004
1773062298496092928,2.2174761295318604,0.9667716026306152,0.8521522879600525,0.7767147421836853,0.13595366477966309,-0.2618516683578491,-0.9554843306541443,-0.07314848899841309,0.3716081380844116,-0.05444914102554321,-0.5167225147702851,-0.12780513439440003,0.07696547429240236,0.8430539771494762,0.26494032863922246,0.1413389557647267,-2.0607299195890394
1773062298506129920,2.227513074874878,1.0531375408172607,0.7680070996284485,0.4681446850299835,0.1419251412153244,-0.27253982424736023,-0.9516193270683289,-0.0389740914106369,0.43106338381767273,0.07634466886520386,-0.5190296586218183,-0.13360312590474566,0.07962759160615027,0.8404867173249047,0.2760318137822326,0.14804942300639184,-2.055767644356205
1773062298516168192,2.237551212310791,0.9485024213790894,0.7386109828948975,0.0854879841208458,0.14860057830810547,-0.28262123465538025,-0.9476513862609863,-0.012461662292480469,0.18633827567100525,0.11261415481567383,-0.5197778917517268,-0.1394257351782716,0.08206570314374777,0.8388424500644919,0.286525638575153,0.15554269310201327,-2.0546071950136136
1773062298526205184,2.2475881576538086,0.6739555597305298,0.5888691544532776,-0.1366766393184662,0.15490366518497467,-0.2902555763721466,-0.9443286061286926,0.02225087583065033,-0.1972016990184784,0.12535887956619263,-0.5193413500389787,-0.14430170257034225,0.08374190268286208,0.8381222232319226,0.2944939062852169,0.16258778762745668,-2.0562759539840165
1773062298536242944,2.2576260566711426,0.40674129128456116,0.2839333713054657,-0.26880311965942383,0.15974776446819305,-0.2950493395328522,-0.9420331716537476,0.10248976945877075,-0.5786994099617004,0.11290115118026733,-0.5182809441844154,-0.14768135707920607,0.0846972385780711,0.8380938992122049,0.2995071615492037,0.16797962591339569,-2.0593116149302655
1773062298546280192,2.2676632404327393,0.4791845977306366,0.12229254096746445,-0.43186554312705994,0.1625509113073349,-0.2982909381389618,-0.9405316114425659,0.1703958660364151,-0.7535126209259033,0.07789123058319092,-0.5165512886561374,-0.1496580699673473,0.08565425899645572,0.83871367888706,0.3029015707211678,0.17113816218282688,-2.063738279361767
1773062298556317952,2.2777011394500732,0.9566370844841003,0.038194041699171066,-0.38967880606651306,0.1645759642124176,-0.3043310046195984,-0.9382416605949402,0.1380668580532074,-0.6927850842475891,0.025735557079315186,-0.5142768999338286,-0.15202446566090486,0.08813476295715966,0.839428414901043,0.3092360272169028,0.17364242072513117,-2.069383390401483
1773062298566354944,2.287738084793091,1.3309001922607422,0.046608030796051025,-0.30190980434417725,0.16592662036418915,-0.31464993953704834,-0.9345928430557251,0.09913380444049835,-0.48588716983795166,-0.025978446006774902,-0.511948939258996,-0.15529055788613552,0.09267374054035876,0.8397647146895347,0.32008784748003144,0.17570808853576314,-2.075081459854472
1773062298576393216,2.297776222229004,1.4767972230911255,0.07027328014373779,-0.26174893975257874,0.1674632877111435,-0.3274625837802887,-0.9299055337905884,0.038713470101356506,-0.2195497453212738,0.08768141269683838,-0.5096834581155243,-0.15934929415679744,0.09826001818169726,0.8397473697857004,0.3336168368220916,0.17817657137182957,-2.0806440587195647
1773062298586429952,2.3078131675720215,1.560507893562317,0.047237999737262726,-0.33187609910964966,0.16890645027160645,-0.3410615622997284,-0.9247419238090515,-0.036597490310668945,0.053662270307540894,0.2388288974761963,-0.5072743080431733,-0.16357373852379453,0.10427208403587696,0.8396688410715784,0.3480459257834797,0.1806610210831695,-2.086526585328345
1773062298596467968,2.3178510665893555,1.644385576248169,0.14092907309532166,-0.484948992729187,0.17105057835578918,-0.35528242588043213,-0.9189755916595459,-0.10162308812141418,0.24572432041168213,0.2479550838470459,-0.5042613473331521,-0.1682136008268963,0.11052782154653677,0.839766784417941,0.36321618188159627,0.18402588592288735,-2.0939364405594016
1773062298606505216,2.327888250350952,1.6589477062225342,0.34096816182136536,-0.6394091844558716,0.17531730234622955,-0.3695143461227417,-0.9125365614891052,-0.19010308384895325,0.2853621542453766,0.045822083950042725,-0.5005844403976726,-0.17372133466487963,0.11641571471813657,0.8400496674009845,0.3784863362741966,0.18980811201126688,-2.1032563813793255
1773062298616542976,2.337926149368286,1.234979271888733,0.599702775478363,-0.594486653804779,0.18199238181114197,-0.38199546933174133,-0.906067430973053,-0.2830207943916321,0.17763450741767883,-0.25398194789886475,-0.496903280813839,-0.17981777286663006,0.1209621378139561,0.8403099916984438,0.39195454983958883,0.19822199194124898,-2.113023895888567
1773062298626579968,2.3479630947113037,0.6761218905448914,0.6695849299430847,-0.5715811252593994,0.19003847241401672,-0.38949549198150635,-0.9012095332145691,-0.2999170124530792,0.007690072059631348,-0.3903401494026184,-0.49398923920221277,-0.18522400361155605,0.12283035430314117,0.8405827811713085,0.40008376206889895,0.20782574039207222,-2.1212611320153485
1773062298636618240,2.358001232147217,0.30071014165878296,0.6671791076660156,-0.6327341198921204,0.19839051365852356,-0.39260873198509216,-0.8980532288551331,-0.22019533812999725,-0.12193292379379272,-0.31863683462142944,-0.4914174963480105,-0.18956858283908115,0.12262604408022863,0.8411512052694701,0.40346636101582256,0.21741980776368922,-2.128755039745407
1773062298646654976,2.3680381774902344,0.08167900145053864,0.6187474131584167,-0.6744418740272522,0.20680181682109833,-0.39291298389434814,-0.8960202932357788,-0.10203497111797333,-0.14500510692596436,-0.08670675754547119,-0.48888972556621285,-0.1931531505214337,0.12116808042964335,0.8420196114922966,0.4037972024614724,0.22682841524511152,-2.136124626538927
1773062298656692992,2.3780760765075684,0.1534440815448761,0.5752292275428772,-0.8042421936988831,0.21498019993305206,-0.3922002613544464,-0.8944061994552612,-0.005004003643989563,-0.012813776731491089,0.07716071605682373,-0.48604511613576173,-0.19631238920473734,0.11940830448117083,0.8431863466301556,0.4030222759343954,0.2358861184343846,-2.1441661313891967
1773062298666730240,2.388113260269165,0.36856064200401306,0.5705828070640564,-0.8585429787635803,0.22351014614105225,-0.3928176164627075,-0.8920412063598633,-0.001723647117614746,0.09842979907989502,-0.05816936492919922,-0.48254110755566104,-0.19994501878511012,0.11832741688081293,0.8444967483553727,0.40369350225851636,0.24550597081539985,-2.1538331584687516
1773062298676768000,2.398151159286499,0.3271833062171936,0.4739319384098053,-0.8041202425956726,0.23150603473186493,-0.39417022466659546,-0.889401376247406,-0.04792754352092743,0.10291045904159546,-0.205020010471344,-0.478979911513784,-0.20355331546975441,0.11775127943729853,0.8457416417193815,0.40516479536606,0.2546436291926637,-2.163560752018093
1773062298686804992,2.4081881046295166,0.1886800229549408,0.35863757133483887,-0.9609724283218384,0.23856809735298157,-0.3943929672241211,-0.887434184551239,-0.07505491375923157,0.1028280258178711,-0.10255604982376099,-0.47527157325110153,-0.20640232432225544,0.11696574500115524,0.8472508294879934,0.4054071755853858,0.26262012899837783,-2.1734333566846433
1773062298696843264,2.4182262420654297,0.06167253479361534,0.2893724739551544,-1.1034024953842163,0.24561449885368347,-0.3930526375770569,-0.8861055970191956,-0.11631152033805847,0.050538599491119385,-0.10698217153549194,-0.4708775248831642,-0.20872766854428676,0.1156717391908762,0.8493098890306414,0.4039490799523302,0.2703957339347179,-2.1848198281307183
1773062298706880000,2.4282631874084473,-0.25857046246528625,0.14297930896282196,-1.1092249155044556,0.25193846225738525,-0.3894393742084503,-0.8859254717826843,-0.04715028405189514,-0.021357744932174683,-0.1164090633392334,-0.4503074826175844,-0.20791933494881187,0.11750236783951724,0.8603405326597592,0.40002282354939045,0.2770645763969349,-2.2337133394407913
1773062298716918016,2.4383010864257812,-0.4012061357498169,-0.028475932776927948,-1.188330054283142,0.2568373382091522,-0.3834365904331207,-0.8871363997459412,0.10590985417366028,-0.020066827535629272,0.024267137050628662,-0.4457527444096038,-0.2080315886861246,0.11469381066015523,0.8630600243369568,0.3935144305568825,0.28180795643102746,-2.244638673754459
1773062298726956032,2.4483392238616943,-0.338209331035614,-0.16475893557071686,-1.3121976852416992,0.26069703698158264,-0.3768630027770996,-0.8888258337974548,0.17317137122154236,-0.0017686188220977783,0.11515945196151733,-0.44065982910405327,-0.2074693934829772,0.11199796760924334,0.8661591892367848,0.3864072403403038,0.28530330860040864,-2.256528800854677
1773062298736993024,2.458376169204712,-0.25683966279029846,-0.1300271898508072,-1.33622145652771,0.26431038975715637,-0.37076717615127563,-0.8903211355209351,0.11119315028190613,0.0028167366981506348,0.06239449977874756,-0.435072520469896,-0.2068984595531505,0.10969259806791748,0.869409207494404,0.37983493902082394,0.28858354058187335,-2.2694697537380293
1773062298747031808,2.4684150218963623,-0.2991762161254883,-0.0919109582901001,-1.297127604484558,0.26818525791168213,-0.36476007103919983,-0.891642689704895,0.0011781156063079834,-0.007584869861602783,-0.003910839557647705,-0.42956845051803905,-0.20653299080511434,0.10734414525432727,0.8725206143142783,0.373375109043844,0.29216912233681347,-2.2821749113004364
1773062298757068800,2.47845196723938,-0.42504191398620605,-0.01521485485136509,-1.320112943649292,0.2724190354347229,-0.3579886257648468,-0.8931024670600891,-0.0480690598487854,-0.0562417209148407,-0.03170222043991089,-0.4241819724190309,-0.20620857861359262,0.10453130012641162,0.8755688402909798,0.36611285942776683,0.29606094599343763,-2.2945077045267572
1773062298767106816,2.488489866256714,-0.41646066308021545,0.06477371603250504,-1.2945551872253418,0.27733373641967773,-0.350493460893631,-0.8945615291595459,-0.051915645599365234,-0.13203522562980652,-0.1056826114654541,-0.4188558956695518,-0.2060932244816404,0.10121668660813081,0.8785445334602653,0.358097931982158,0.30062572566814316,-2.3066332572526815
1773062298777143808,2.4985268115997314,-0.29092031717300415,0.11639510095119476,-1.2233573198318481,0.2824702262878418,-0.3437935709953308,-0.8955537676811218,-0.026229381561279297,-0.2063162922859192,-0.14828473329544067,-0.41369803731609,-0.20635569114912128,0.09818577677041448,0.8812666024661162,0.3509537527227866,0.3055374459712645,-2.318379190922544
1773062298787181824,2.5085649490356445,-0.158755362033844,0.1861288994550705,-1.1736774444580078,0.2879622280597687,-0.3381965756416321,-0.8959357142448425,-0.03314045071601868,-0.22479170560836792,-0.08663874864578247,-0.40877169252259254,-0.20713196926443486,0.09554307695806481,0.8836705319977407,0.34499989091650496,0.3109809621948062,-2.329664287075962
1773062298797218816,2.518601894378662,0.2034103125333786,0.34828001260757446,-1.1593363285064697,0.2943035662174225,-0.3351062834262848,-0.8950358629226685,-0.05527466535568237,-0.1849132478237152,-0.03427016735076904,-0.40365577935743946,-0.20894141405527894,0.09394446665334676,0.885765120628194,0.3417180325035116,0.317680945196522,-2.341665853290826
1773062298807256832,2.528640031814575,0.30096137523651123,0.441524475812912,-1.0799051523208618,0.30156612396240234,-0.33404430747032166,-0.893013060092926,-0.05043700337409973,-0.17840686440467834,-0.06778711080551147,-0.3985723181337375,-0.2117149263710178,0.0931143054373216,0.8874945672997097,0.3405911024087046,0.3256709938784861,-2.353872975852768
1773062298817293824,2.5386769771575928,0.22423329949378967,0.6062178015708923,-1.0106531381607056,0.309739887714386,-0.3332872688770294,-0.890494704246521,0.010587841272354126,-0.12302681803703308,-0.055184006690979004,-0.3938791143707414,-0.21507403958362262,0.09217276342431488,0.8888793639416741,0.33978806200753553,0.3347394606874734,-2.365308937092008
1773062298827331840,2.5487148761749268,0.16462643444538116,0.7544128894805908,-0.9347221851348877,0.31908106803894043,-0.3319207727909088,-0.8877025842666626,0.09182286262512207,-0.06694397330284119,-0.1113055944442749,-0.3896368791279296,-0.21894282909784374,0.0906241845111506,0.8899632029078876,0.33833906674592723,0.3450649841146777,-2.375759639110539
1773062298837368832,2.5587518215179443,0.14434325695037842,0.8742905259132385,-0.8751919865608215,0.32929104566574097,-0.3302707374095917,-0.8845838904380798,0.14923983812332153,-0.035467177629470825,-0.14423996210098267,-0.38582466220889994,-0.22325447976305457,0.08868761520542723,0.8907476030921065,0.33659038539159897,0.356362195581984,-2.3852674262611013
1773062298847406848,2.5687899589538574,0.20322202146053314,0.9803147315979004,-0.865825355052948,0.34039485454559326,-0.3289215564727783,-0.8808756470680237,0.11826905608177185,-0.019039839506149292,-0.12863051891326904,-0.38215051835086306,-0.22813218249268372,0.0867056837488181,0.8912905131919617,0.33516137553835595,0.36875174223533114,-2.394565359077929
1773062298857443840,2.578826904296875,0.2087494134902954,1.0246502161026,-0.8661468029022217,0.35211214423179626,-0.327730655670166,-0.8767038583755493,0.038863807916641235,-0.025647670030593872,-0.16711938381195068,-0.37846763211638884,-0.233393760322735,0.08470790992722109,0.8916916866062875,0.33390055669185575,0.38191231309229573,-2.403934166116798
1773062298867481856,2.588865041732788,0.21567097306251526,1.0694162845611572,-0.8653476238250732,0.36412763595581055,-0.32655829191207886,-0.8722217082977295,0.012199878692626953,-0.03840142488479614,-0.214493989944458,-0.37476451969599406,-0.2388520427179067,0.08269725011255118,0.8919991203195482,0.3326599356515659,0.3954766191009904,-2.413345400722492
1773062298877518848,2.5989019870758057,0.10983948409557343,1.0357387065887451,-0.8391156196594238,0.3760937750339508,-0.3248560130596161,-0.867768406867981,0.023137181997299194,-0.05130362510681152,-0.21369826793670654,-0.37119439870941373,-0.244223022047024,0.08044190901078928,0.8922437989106599,0.3308594921937105,0.4089668114014349,-2.422326212252939
1773062298887556864,2.6089398860931396,0.042804792523384094,1.0686734914779663,-0.8787320256233215,0.38796842098236084,-0.32215821743011475,-0.8635361194610596,0.04809725284576416,-0.034729570150375366,-0.14951014518737793,-0.3676921850430333,-0.2493753427961087,0.07774243759451667,0.8925080252962144,0.3280083780706549,0.4222539671694441,-2.430923204442889
1773062298897593856,2.6189768314361572,-0.04150272160768509,1.0815069675445557,-0.9111034870147705,0.4000864624977112,-0.3187369704246521,-0.8592656850814819,0.05604448914527893,0.008113831281661987,-0.1822381615638733,-0.3640803736757903,-0.2545306145691733,0.07470816116044968,0.8927924454544606,0.32439665381656735,0.4357627041688699,-2.4395935741949075
1773062298907631872,2.6290149688720703,-0.14401258528232574,1.0798696279525757,-0.9554073214530945,0.4122021198272705,-0.31416040658950806,-0.8552150130271912,0.06062197685241699,0.06277185678482056,-0.12630659341812134,-0.3604480747688799,-0.2594790208005062,0.07115576013326387,0.8931319873233663,0.31957214624200553,0.44913327064916114,-2.4480101377356926
1773062298917668864,2.639051914215088,-0.06630975753068924,1.21759831905365,-1.0126235485076904,0.42505180835723877,-0.309055894613266,-0.8507733941078186,0.06684577465057373,0.12080821394920349,-0.17766892910003662,-0.3565772270577003,-0.26473344529030624,0.0673015227391564,0.8934424419779936,0.314200183217174,0.4633326487565656,-2.4568251756804163
1773062298927706624,2.649089813232422,0.03483523800969124,1.2624694108963013,-0.9279590845108032,0.4386577606201172,-0.30472391843795776,-0.8454127311706543,0.04826545715332031,0.12360209226608276,-0.3666844367980957,-0.3526474736510766,-0.27061793860609673,0.06371471254815564,0.8935021472058865,0.3096485601966998,0.478627951183445,-2.465892791890609
1773062298937743872,2.6591269969940186,0.12296811491250992,1.2513810396194458,-0.9406114816665649,0.45207005739212036,-0.30129215121269226,-0.839556872844696,0.02896326780319214,0.09511539340019226,-0.24728089570999146,-0.34880598469952917,-0.27667479871839207,0.060602160914384647,0.8933716437137834,0.30604749001010784,0.4939422590392242,-2.474849697018739
1773062298947781888,2.6691648960113525,0.19070401787757874,1.1985375881195068,-1.0279921293258667,0.4653332233428955,-0.298135906457901,-0.8334146738052368,-0.023774385452270508,0.048288494348526,-0.08835351467132568,-0.34450555664116256,-0.2827519884660078,0.05782724742839453,0.8933214821869763,0.3027391525399832,0.5092278428222884,-2.4848079152335343
1773062298957818624,2.67920184135437,0.0861908346414566,1.1019819974899292,-1.0739048719406128,0.478048175573349,-0.2943229079246521,-0.8275530338287354,-0.05490666627883911,0.0302543044090271,-0.01648688316345215,-0.33993068593870457,-0.2884478014481586,0.054966798935316544,0.8934336955619158,0.2987469584082515,0.5238345594998637,-2.49510978778013
1773062298967856896,2.689239978790283,-0.0153126185759902,1.099671483039856,-1.1898831129074097,0.49035000801086426,-0.28917351365089417,-0.8221529722213745,0.0026156604290008545,0.09074822068214417,0.05883210897445679,-0.33507920111291917,-0.29369046110456737,0.05166648390793657,0.8937551628298452,0.29336334209573595,0.5377843584936478,-2.5055869978778835
1773062298977893888,2.699276924133301,-0.1559431403875351,1.1907541751861572,-1.0992788076400757,0.5030673742294312,-0.2825702428817749,-0.8167479634284973,0.022811532020568848,0.1637805998325348,-0.15499275922775269,-0.3303013117118573,-0.29893334172185676,0.04759061833625229,0.894021862523624,0.28647250886112613,0.5520574023459328,-2.5154510438696627
1773062298987931648,2.7093148231506348,-0.028193706646561623,1.2640111446380615,-0.9476264715194702,0.515962541103363,-0.27647870779037476,-0.8107663989067078,0.030561506748199463,0.23328107595443726,-0.31656813621520996,-0.3261869632441107,-0.3045019415190204,0.0435356711226457,0.8938597916505286,0.2801280391814738,0.5667470176768598,-2.523852613917301
1773062298997968896,2.7193520069122314,0.26411670446395874,1.2894794940948486,-0.8858094811439514,0.5287989974021912,-0.27267560362815857,-0.8037534952163696,0.0007725358009338379,0.17895612120628357,-0.20321977138519287,-0.3060861939640218,-0.3098254193306258,0.04616779358431456,0.8989927676745572,0.27617291395605786,0.5819170871078974,-2.568444555206726
1773062299008006912,2.7293899059295654,0.34561529755592346,1.2713044881820679,-0.8709170818328857,0.5414852499961853,-0.2705708146095276,-0.7959806323051453,-0.1252865195274353,0.029359877109527588,-0.09803181886672974,-0.28724618054107687,-0.31553952281554454,0.04944180063683645,0.9030392837016787,0.273985920608533,0.5973642564193413,-2.6104961340603405
1773062299018043648,2.739426851272583,0.3304697275161743,1.2273309230804443,-0.9427204132080078,0.5538637638092041,-0.2682929039001465,-0.7881966233253479,-0.1866915225982666,-0.08662652969360352,-0.016338348388671875,-0.2829046491246495,-0.32190385678804634,0.04774523262179592,0.9022545793172718,0.2716205294168092,0.6125340577803037,-2.6202739712251364
1773062299028081920,2.749464988708496,0.1862928569316864,1.1858583688735962,-0.9236239194869995,0.5658934712409973,-0.2651163637638092,-0.7806906700134277,-0.19521170854568481,-0.1511586606502533,-0.029520511627197266,-0.2784753145557462,-0.3279688108092948,0.04572885329893549,0.9015524655839101,0.2683245948740979,0.6272181276405564,-2.629908703779184
1773062299038118912,2.7595019340515137,0.07119835168123245,1.170362114906311,-0.8380903005599976,0.5773223042488098,-0.26101934909820557,-0.7736716866493225,-0.16646414995193481,-0.10220086574554443,0.0007072091102600098,-0.2745568753585329,-0.3336135879582294,0.04319875913092354,0.9008076553511898,0.2640780132184225,0.641071731532763,-2.63802803479731
1773062299048156672,2.7695398330688477,0.007480889558792114,1.2553954124450684,-0.7225047945976257,0.5887259244918823,-0.25674980878829956,-0.7664733529090881,-0.13674533367156982,0.012899130582809448,-0.06661075353622437,-0.2712095165569437,-0.33931011822048057,0.04039767194705731,0.8998234264610449,0.25965777024235626,0.654982978706584,-2.644758683791385
1773062299058193920,2.7795770168304443,2.532568760216236e-05,1.3135986328125,-0.586074948310852,0.6002036929130554,-0.25281664729118347,-0.7588407397270203,-0.12863081693649292,0.10775133967399597,-0.13820821046829224,-0.26852786176954063,-0.34521317478612235,0.03751668991707079,0.8985060503605667,0.25559038353705094,0.669197125491668,-2.6500597030766433
1773062299068231936,2.7896149158477783,0.10346569120883942,1.3690168857574463,-0.5197443962097168,0.6117647290229797,-0.24988344311714172,-0.7505345940589905,-0.09180623292922974,0.12813356518745422,-0.05624336004257202,-0.26621117944384387,-0.3514372719310042,0.0349936362172091,0.8968828517750419,0.25255988036418253,0.6838838797848109,-2.654833672887877
1773062299078268672,2.799651861190796,0.10402615368366241,1.361876368522644,-0.5552024245262146,0.6233147978782654,-0.24742217361927032,-0.7417957782745361,-0.06227964162826538,0.035248711705207825,0.03995251655578613,-0.26386160336144804,-0.35781404253204874,0.032729752767386065,0.8951396109344372,0.250018795342718,0.6988229115259134,-2.659797353079808
1773062299088306944,2.809689998626709,-0.01886753737926483,1.3841198682785034,-0.6139450669288635,0.6348998546600342,-0.2440897524356842,-0.7330228090286255,-0.07851862907409668,-0.0809376984834671,0.06748020648956299,-0.2613493061483214,-0.36411980392720944,0.03008917409467933,0.8934249387622052,0.2465809434392671,0.7137894473896905,-2.664766030619712
1773062299098343936,2.8197269439697266,-0.22871308028697968,1.3367797136306763,-0.6322614550590515,0.6463631987571716,-0.23914508521556854,-0.7245855927467346,-0.14260953664779663,-0.13477154076099396,-0.01137632131576538,-0.2589971749646818,-0.37013559961643727,0.026586532133247763,0.8917473269274659,0.24148529510007935,0.7284028323955499,-2.6687101674314984
1773062299108381696,2.8297648429870605,-0.2335698902606964,1.3339877128601074,-0.6794023513793945,0.6575108170509338,-0.23311857879161835,-0.7164742350578308,-0.22185713052749634,-0.11040253937244415,-0.039705634117126465,-0.25668066258146716,-0.3758371420048219,0.022568499021849982,0.8901416957380546,0.23528339025304063,0.7425103400054917,-2.672063677786183
1773062299118418944,2.8398020267486572,-0.2275349497795105,1.3386911153793335,-0.646219789981842,0.6686339378356934,-0.22702719271183014,-0.7080870270729065,-0.28022152185440063,-0.07347939908504486,-0.13639533519744873,-0.25425678274540253,-0.38159135335933253,0.018561364963192436,0.8884801296558074,0.2290240727535114,0.7567487343803783,-2.67553001013496
1773062299128456704,2.849839925765991,-0.17468026280403137,1.301817536354065,-0.6145793199539185,0.6793442964553833,-0.22135628759860992,-0.6996375322341919,-0.2553178071975708,-0.010775670409202576,-0.1241081953048706,-0.2520006591346768,-0.3872509415766118,0.014762607686850485,0.8867437206107275,0.22320503708581615,0.770683122179279,-2.6786708833193416
1773062299138493696,2.859876871109009,-0.06726782768964767,1.210304617881775,-0.6674982905387878,0.6895102858543396,-0.21611565351486206,-0.6912811398506165,-0.1782340407371521,0.02649468183517456,0.00532221794128418,-0.24947955158568014,-0.3927208794101247,0.011390815645604698,0.8850991308662141,0.21783434915357158,0.7841156724179938,-2.6824784594561857
1773062299148531968,2.869915008544922,-0.08072744309902191,1.098610281944275,-0.7066941857337952,0.6988857388496399,-0.21092233061790466,-0.6834255456924438,-0.12193566560745239,-0.013046175241470337,0.07005274295806885,-0.24660218301291623,-0.3977658117128925,0.008341481008615502,0.8836855645041851,0.2125184188884907,0.7965820079315399,-2.687018569633398
1773062299158568960,2.8799519538879395,-0.2281540483236313,0.9897361397743225,-0.7271974086761475,0.7073922157287598,-0.20481079816818237,-0.6764973998069763,-0.07476282119750977,-0.04433470964431763,0.011946618556976318,-0.24380481536905738,-0.4021528397248266,0.004938921401569687,0.8825008830680445,0.2062704084800437,0.8077190728378232,-2.6909132936952647
1773062299168606720,2.8899898529052734,-0.21944524347782135,0.9159274101257324,-0.7451905608177185,0.7152612805366516,-0.1979941576719284,-0.670223593711853,-0.11649113893508911,-0.0673409104347229,-0.08928263187408447,-0.241012159798207,-0.4060622528110376,0.001283210794861304,0.8814902575117772,0.1993111417389046,0.8178935350143925,-2.6944199203879244
1773062299178643968,2.90002703666687,-0.2460271567106247,0.8058549761772156,-0.714604914188385,0.7224005460739136,-0.1911909580230713,-0.6645175218582153,-0.2691534757614136,-0.11738751828670502,-0.18315398693084717,-0.238272774685615,-0.4095560207497249,-0.0022604268525657912,0.8806162005382611,0.19237534811367507,0.8271089521415877,-2.6977345296916218
1773062299188681728,2.910064935684204,-0.22411812841892242,0.674756646156311,-0.7386159896850586,0.7285698056221008,-0.18441946804523468,-0.6596782803535461,-0.3748558759689331,-0.14163032174110413,-0.11319458484649658,-0.23557517992733715,-0.41246711690251364,-0.005633477624639095,0.8799678491081412,0.18548117053792484,0.8349822886612098,-2.700905574697135
1773062299198718720,2.9201018810272217,-0.3217034935951233,0.5660201907157898,-0.782392144203186,0.7339917421340942,-0.17708992958068848,-0.6556640267372131,-0.37399113178253174,-0.16281484067440033,-0.07193607091903687,-0.23274303312856892,-0.41483150203218433,-0.009099989876548762,0.8795809760093639,0.17802885477835426,0.841703397602231,-2.7040896258645306
1773062299208756992,2.9301400184631348,-0.414410263299942,0.4598836302757263,-0.7367756366729736,0.7386069297790527,-0.16896846890449524,-0.6526173949241638,-0.29253149032592773,-0.12064334750175476,-0.04963785409927368,-0.23014510329045904,-0.4165617426776901,-0.01294681461086564,0.8793986377331666,0.16978299506536887,0.8471281856604782,-2.7063535443728814
1773062299218793984,2.9401769638061523,-0.28516077995300293,0.38279005885124207,-0.6895403861999512,0.7425040602684021,-0.16136813163757324,-0.6501138806343079,-0.1734885573387146,-0.037057146430015564,0.02728062868118286,-0.2277526672370711,-0.41793666762518317,-0.01649261905561502,0.8793097833125912,0.1620768038650646,0.8516439098691537,-2.7083478431858214
1773062299228831744,2.9502148628234863,-0.16447298228740692,0.31489887833595276,-0.6635926365852356,0.7458781003952026,-0.15494143962860107,-0.6478108763694763,-0.14976298809051514,-0.04757322371006012,0.031935691833496094,-0.22516914164509394,-0.41919486719391635,-0.01924102983025797,0.8793203294252527,0.1555681767053864,0.8556475837506692,-2.711273459277146
1773062299238868736,2.960251808166504,-0.18740560114383698,0.19064922630786896,-0.6259670853614807,0.7484679222106934,-0.14894962310791016,-0.6462274193763733,-0.21962881088256836,-0.10420893132686615,0.01623779535293579,-0.22271057098199476,-0.420019337741573,-0.02168051490836494,0.8794963738794805,0.14950596281063683,0.8585739663042847,-2.714107705419452
1773062299248906752,2.970289945602417,-0.06473907083272934,0.10681664198637009,-0.6433649659156799,0.7503412961959839,-0.1433580219745636,-0.6453187465667725,-0.26332664489746094,-0.1364423930644989,0.046487629413604736,-0.22014741506463878,-0.4204490462717433,-0.02373242597206359,0.8798831461073197,0.14385365325806634,0.860506010163747,-2.717365804541392
1773062299258943744,2.9803268909454346,-0.09376148879528046,-0.013709502294659615,-0.570937991142273,0.7514925599098206,-0.13833940029144287,-0.6450746059417725,-0.29966455698013306,-0.18597088754177094,0.02846693992614746,-0.21758591682834716,-0.4204994140753615,-0.02535638680507808,0.8804509192578716,0.1387844885071351,0.8614508822200945,-2.720893422726928
1773062299268982016,2.9903650283813477,-0.23205997049808502,-0.0879746824502945,-0.4952879250049591,0.7518607378005981,-0.1332617551088333,-0.6457142233848572,-0.30157387256622314,-0.1614159643650055,0.0648730993270874,-0.2155908226015294,-0.4200071515030235,-0.027145825683026054,0.8811230278180993,0.13365936186787825,0.8612031414775881,-2.7231355359884057
1773062299279018752,3.0004019737243652,-0.2763133645057678,-0.1771106868982315,-0.46856069564819336,0.7516436576843262,-0.12796854972839355,-0.6470361948013306,-0.27975034713745117,-0.09705281257629395,0.09457647800445557,-0.21402575719090364,-0.4190846151224991,-0.029154360400925172,0.8818793172889708,0.12832041620430157,0.8600493176550104,-2.72433166215502
1773062299289056768,3.010439872741699,-0.2988807260990143,-0.281398206949234,-0.4605773389339447,0.750704288482666,-0.1225631833076477,-0.6491697430610657,-0.253206729888916,-0.09833831340074539,0.09252911806106567,-0.21262721056044548,-0.4176637785629967,-0.031178535131485628,0.8828218923645424,0.12287212650237114,0.8578025658789288,-2.7251409168277534
1773062299299093760,3.020476818084717,-0.21977050602436066,-0.3711665868759155,-0.4475618302822113,0.749097466468811,-0.11743753403425217,-0.6519674062728882,-0.25527727603912354,-0.14902669191360474,0.053883910179138184,-0.21119235548049514,-0.4158510960736751,-0.03292668623834201,0.8839579367524668,0.11770916436413244,0.8546133208422773,-2.726201508029576
1773062299309131776,3.03051495552063,-0.2850869297981262,-0.5044607520103455,-0.3421507179737091,0.7467644214630127,-0.11277569830417633,-0.6554575562477112,-0.2918694019317627,-0.19838152825832367,-0.040160179138183594,-0.2099857773858517,-0.413626211317036,-0.03441786084049562,0.885231483936749,0.11301612722276481,0.8504222161012126,-2.7270033790460007
1773062299319168768,3.0405519008636475,-0.16638633608818054,-0.6397405862808228,-0.2248322069644928,0.7431893348693848,-0.10908231884241104,-0.6601293087005615,-0.30582666397094727,-0.13074006140232086,0.04439139366149902,-0.20937511954905355,-0.4107034409467653,-0.03546873294697538,0.8866942803210566,0.10929981298049372,0.8445174734699729,-2.726973322684001
1773062299329207040,3.0505900382995605,0.20799897611141205,-0.6509099006652832,-0.19974203407764435,0.7391483783721924,-0.10764286667108536,-0.6648855209350586,-0.24578595161437988,-0.05376458913087845,0.1915884017944336,-0.20848659748027715,-0.40782720863443733,-0.035131223477297295,0.8882433032869514,0.10785183370253612,0.8382413934708287,-2.728590797370069
1773062299339243776,3.060626983642578,0.3121851980686188,-0.7548696398735046,-0.11543912440538406,0.7346341609954834,-0.10838649421930313,-0.6697499752044678,-0.1858365535736084,-0.09084750711917877,0.12964987754821777,-0.2073220892673594,-0.4049766020032229,-0.0334508372146132,0.8898834828078795,0.10859983929803804,0.8315664990557172,-2.7317928020708515
1773062299349281792,3.070664882659912,0.1216949075460434,-0.8716588616371155,-0.09785081446170807,0.7292306423187256,-0.10920505970716476,-0.6754975914955139,-0.14808440208435059,-0.13356226682662964,0.15785843133926392,-0.20653301801277135,-0.4015491674990573,-0.03177219945201173,0.8916798461620491,0.10942329488634425,0.8236310722666123,-2.7342090066682676
1773062299359318784,3.0807018280029297,-0.06596873700618744,-0.9657954573631287,-0.09878291934728622,0.7230579257011414,-0.10861257463693619,-0.6821954250335693,-0.20422857999801636,-0.16926521062850952,0.14073729515075684,-0.20620075750751607,-0.3974234962298449,-0.0309330038205007,0.8936324899716171,0.10882726397850506,0.8144683490388582,-2.7350220289680967
1773062299369356800,3.0907399654388428,-0.20348185300827026,-1.0685406923294067,-0.06285394728183746,0.7161726951599121,-0.10708457976579666,-0.689659059047699,-0.2972426414489746,-0.23404091596603394,-0.0105210542678833,-0.2062287678118058,-0.3927230656243604,-0.030644356323901428,0.895711571082886,0.10729030046467007,0.8042556883651907,-2.7346665768956155
1773062299379393792,3.1007769107818604,-0.3253043591976166,-1.2073765993118286,0.031424082815647125,0.7082485556602478,-0.10507148504257202,-0.6981002688407898,-0.3604092001914978,-0.23091179132461548,-0.052204906940460205,-0.2068620089980914,-0.387306354542772,-0.030719067080678227,0.8979188674048453,0.10526577999788522,0.7926141204812179,-2.732817001604261
1773062299389431808,3.1108148097991943,-0.12305296957492828,-1.3186336755752563,0.07694496214389801,0.6992449164390564,-0.10369477421045303,-0.7073217034339905,-0.3390916585922241,-0.10567107796669006,0.12336784601211548,-0.207815599751656,-0.38133041254734573,-0.03043446105102474,0.9002630753232216,0.10388151025594586,0.7796559967089065,-2.73057502776482
1773062299399468800,3.120851993560791,0.2028193175792694,-1.3732292652130127,0.13851244747638702,0.6895535588264465,-0.10481013357639313,-0.7166104912757874,-0.2285703420639038,-0.032580018043518066,0.13785994052886963,-0.20837240582459365,-0.3753366468230913,-0.02858583944100924,0.9027103912918252,0.1050029791499935,0.766158885719586,-2.730227528618428
1773062299409506816,3.130889892578125,0.3513430058956146,-1.5248746871948242,0.2838539481163025,0.6788437366485596,-0.10831055790185928,-0.7262506484985352,-0.09792637825012207,-0.021221309900283813,0.09798526763916016,-0.2090058291305157,-0.36909324893713524,-0.02539393970752566,0.9052302495840594,0.10852345046041569,0.7516716339282299,-2.7306294750574045
1773062299419544832,3.140928030014038,0.3855825662612915,-1.6582391262054443,0.36760902404785156,0.6667833924293518,-0.11330994218587875,-0.7365872263908386,-0.006550848484039307,0.007017217576503754,0.1542050838470459,-0.20997529383776056,-0.3622830481016363,-0.021386103519990596,0.9078568031937349,0.11355381856449535,0.7356989563261178,-2.7308149825500614
1773062299429581824,3.1509649753570557,0.3078845739364624,-1.7913857698440552,0.4673667848110199,0.6534332633018494,-0.11866682767868042,-0.7476249933242798,-0.027258336544036865,0.02007979154586792,0.19309008121490479,-0.21142853108095389,-0.35481096069251117,-0.01722438226669513,0.9105550450467401,0.11894711128652768,0.7182701850956096,-2.7299837542457355
1773062299439618816,3.1610019207000732,0.3706194758415222,-1.917085886001587,0.47221240401268005,0.6388351321220398,-0.12420151382684708,-0.7592520713806152,-0.0869705080986023,-0.005421899259090424,0.20755529403686523,-0.21317006172262767,-0.3467085986663675,-0.012927470068400126,0.9133370646841199,0.12452307124209971,0.6994804289333668,-2.7284769428395133
1773062299449656832,3.1710398197174072,0.41209423542022705,-2.067534923553467,0.39939090609550476,0.6230223178863525,-0.13017244637012482,-0.771296501159668,-0.17233878374099731,-0.12249782681465149,0.09881120920181274,-0.21458763050302934,-0.3380613959501135,-0.008138813104483535,0.9162970758964765,0.13054290413923045,0.6794546531331164,-2.727699377264221
1773062299459694848,3.1810779571533203,0.1231871172785759,-2.241434097290039,0.2734917104244232,0.605697751045227,-0.1344098448753357,-0.7842602729797363,-0.27114880084991455,-0.187474325299263,0.07898378372192383,-0.2157384411262449,-0.32841154714170623,-0.003965028044516015,0.9195579932142525,0.1348178781504483,0.657631834344603,-2.726767827279429
1773062299469731840,3.191114902496338,0.034721165895462036,-2.4876275062561035,0.18158762156963348,0.5866478681564331,-0.13616850972175598,-0.7983121871948242,-0.3199242949485779,-0.13710112869739532,0.1067686676979065,-0.2167265282906705,-0.31755827172167694,-0.0008005791335952853,0.9231390054283873,0.13659286522591868,0.6337410169909781,-2.7252559796242357
1773062299479769856,3.201153039932251,0.16561079025268555,-2.614370822906494,0.18768346309661865,0.5656751394271851,-0.13801249861717224,-0.812997043132782,-0.24139535427093506,-0.04550497233867645,0.08162802457809448,-0.21734530209595657,-0.30576775179585697,0.002749909842240458,0.9269625049137039,0.13845442490613907,0.6078947960612922,-2.724463725911063
1773062299489806848,3.2111899852752686,0.1978781819343567,-2.6736791133880615,0.3938102424144745,0.5435693264007568,-0.14114156365394592,-0.8274125456809998,-0.09169554710388184,0.13622824847698212,0.20540320873260498,-0.21831667242743372,-0.29367602158300943,0.0069377879818102416,0.9306149592825333,0.1416144256148555,0.5812460464406592,-2.723158594193659
1773062299499844864,3.2212278842926025,0.33751019835472107,-2.838338613510132,0.5984715223312378,0.519734263420105,-0.14592158794403076,-0.8417738080024719,0.10386186838150024,0.30171382427215576,0.3686598539352417,-0.2201920988829572,-0.28102011095246604,0.011865190724103176,0.9340248461276139,0.1464444618431883,0.5531353619803094,-2.7201916284090473
1773062299509881856,3.23126482963562,0.5682643055915833,-3.0181453227996826,0.6143604516983032,0.49389004707336426,-0.15308745205402374,-0.8559420704841614,0.27619048953056335,0.27581387758255005,0.34213292598724365,-0.222215161354213,-0.2677655669589338,0.01818155666611975,0.9373320403588181,0.1536917976463235,0.5233460996588931,-2.717279584113927
1773062299519919872,3.241302967071533,0.3784085810184479,-3.1015989780426025,0.5874611139297485,0.4663692116737366,-0.1602177619934082,-0.8699597716331482,0.27294960618019104,0.1298375278711319,0.18494701385498047,-0.22406280684646077,-0.25379020589139556,0.02471115503256912,0.9406251779511705,0.16091125988716698,0.49209434400422186,-2.7143885868779956
1773062299529956864,3.251339912414551,0.3054395616054535,-3.2457499504089355,0.5910677909851074,0.43752187490463257,-0.16571947932243347,-0.8838052153587341,0.11545664072036743,-0.011526599526405334,0.1347055435180664,-0.22598961774778623,-0.23909099414882687,0.0305429896525834,0.9438386980941161,0.16648753031156102,0.4596743952758408,-2.7106067690209774
1773062299539994624,3.2613778114318848,0.2749924957752228,-3.371558666229248,0.628792405128479,0.4068334400653839,-0.1709204763174057,-0.897369921207428,-0.05319574475288391,-0.1197441965341568,0.15361076593399048,-0.2279775915189947,-0.22358122950353707,0.036420920515127436,0.9469483475123923,0.17176382232881673,0.4256462766151596,-2.7062897188714774
1773062299550031872,3.2714149951934814,0.5079618096351624,-3.473830461502075,0.6308491826057434,0.37463971972465515,-0.17675712704658508,-0.9101659059524536,-0.12027570605278015,-0.09249944984912872,0.2010594606399536,-0.2299102351441774,-0.2075691953710684,0.0428026258265073,0.9498549179402178,0.1776907269054214,0.39048069674484087,-2.7018612568181783
1773062299560069888,3.2814528942108154,0.6216443181037903,-3.5273942947387695,0.6326158046722412,0.3413771688938141,-0.18452118337154388,-0.9216363430023193,-0.05014792084693909,0.035381779074668884,0.23973631858825684,-0.23149965295788993,-0.19143731963984983,0.05033460495778278,0.9524842270393413,0.18558465506332625,0.35473462667616795,-2.6981011538501174
1773062299570106624,3.291489839553833,0.4053035080432892,-3.617711067199707,0.703308641910553,0.3068397343158722,-0.1914772242307663,-0.93230140209198,0.09605333209037781,0.2396339774131775,0.4462937116622925,-0.23323324424057687,-0.17473831100898396,0.05758327790628054,0.9548576161901264,0.19266700385788296,0.3179544658368242,-2.6934389127983893
1773062299580144896,3.301527976989746,0.4936661124229431,-3.747027635574341,0.8290390372276306,0.2707449495792389,-0.19773264229297638,-0.9421247243881226,0.2807382047176361,0.3823639750480652,0.5344556570053101,-0.23542223204610438,-0.15736571052346776,0.06460400456957187,0.9568901011660338,0.19904434896055506,0.2798361801302816,-2.6872421798919484
1773062299590181888,3.3115649223327637,0.6457610726356506,-3.7715489864349365,0.8976879119873047,0.23308652639389038,-0.20540639758110046,-0.95051509141922,0.4244909882545471,0.33606740832328796,0.42748957872390747,-0.23787706988115667,-0.1395881465208827,0.07250941420015897,0.9584738673484197,0.2068789395237091,0.2404760174059337,-2.6801402731020727
1773062299600219648,3.3216028213500977,0.8218066096305847,-3.6260921955108643,0.9183777570724487,0.1957939863204956,-0.21429741382598877,-0.9569437503814697,0.3945227861404419,0.18805229663848877,0.20242714881896973,-0.24034782590366938,-0.12232177549158317,0.08102783550063034,0.9595336269988752,0.21597247395971503,0.20181800376445527,-2.672676715222039
1773062299610256896,3.3316400051116943,1.1594904661178589,-3.619570255279541,0.9177044630050659,0.1588962972164154,-0.22547177970409393,-0.9612047076225281,0.2234126478433609,0.016289055347442627,0.08315294981002808,-0.24267574329413122,-0.10568308183635987,0.09071243673943641,0.9600576794118176,0.22742726263677804,0.163827928885676,-2.6651723348845016
1773062299620294912,3.3416779041290283,1.117411732673645,-3.5953550338745117,0.8208757042884827,0.12204587459564209,-0.23798221349716187,-0.9635711312294006,0.04923403263092041,-0.056146204471588135,0.16158443689346313,-0.2445601462918518,-0.08932138679810026,0.10117379957205203,0.9601957557130403,0.24028784228840602,0.12598907835555656,-2.658031383155297
1773062299630331648,3.351714849472046,0.9488834142684937,-3.6202056407928467,0.7904213666915894,0.08513879776000977,-0.24878987669944763,-0.9648082852363586,-0.014811031520366669,0.05733785033226013,0.25849419832229614,-0.2460648914747242,-0.07276182842856475,0.11091249742238017,0.9601334993734773,0.2514306409460456,0.08801627314523203,-2.650958848328994
1773062299640369920,3.361752986907959,0.6039698123931885,-3.7331418991088867,0.919337272644043,0.04745582118630409,-0.2570529282093048,-0.9652314186096191,0.1349019706249237,0.2669253945350647,0.5033784508705139,-0.2477501830199798,-0.055583012100039596,0.11956089222903708,0.9598102206362321,0.25997142328976164,0.04912566720004179,-2.642795468512578
1773062299650406912,3.3717899322509766,0.41750964522361755,-3.7667462825775146,1.1196930408477783,0.008241906762123108,-0.261811226606369,-0.9650838971138,0.3601815700531006,0.439057320356369,0.5904653668403625,-0.2502170156897117,-0.03735956960217266,0.1267371548746516,0.9591316612514573,0.2648984232315519,0.00853988581442453,-2.632348617615087
