time,seconds_elapsed,rotationRateX,rotationRateY,rotationRateZ,gravityX,gravityY,gravityZ,accelerationX,accelerationY,accelerationZ,quaternionW,quaternionX,quaternionY,quaternionZ,pitch,roll,yaw
1773063091555243264,0.029619216918945312,0.02247203141450882,-0.0248615313321352,-0.08316664397716522,-0.23248191177845,-0.5622154474258423,-0.7936409711837769,0.0757283866405487,-0.041971564292907715,0.037445902824401855,-0.34926652512048306,0.004615353891736648,0.3211825353249649,0.8802462630719317,0.597062328709581,-0.28495877564528677,-2.2979025361466636
1773063091565279232,0.039655208587646484,0.05284538120031357,-0.021832451224327087,-0.10305140167474747,-0.23212754726409912,-0.5627803206443787,-0.793344259262085,-0.01703321933746338,-0.03403669595718384,-0.007513284683227539,-0.34878057387946454,0.00449869346824465,0.32141506594344077,0.8803545682843668,0.597745510409088,-0.2846482827252746,-2.2989310804473986
1773063091575316480,0.049692392349243164,0.026890147477388382,-0.020978543907403946,-0.08383230119943619,-0.23176944255828857,-0.5633155107498169,-0.793069064617157,-0.07479488849639893,0.047171711921691895,-0.04471474885940552,-0.34832252096425875,0.00437670115573692,0.3216307206541171,0.8804577441003477,0.5983930965433313,-0.2843258377695034,-2.2999106935096756
1773063091585352448,0.059728384017944336,-0.014365678653120995,-0.0015140315517783165,-0.0740896612405777,-0.23142722249031067,-0.5635704398155212,-0.7929878830909729,-0.02557656168937683,-0.017789363861083984,-0.0217246413230896,-0.34796495742204964,0.004286981769586249,0.3216950338224007,0.8805760445140373,0.5987016726378296,-0.2839557621247275,-2.300772944239213
1773063091595388416,0.06976437568664551,-0.04995249956846237,-0.019533012062311172,-0.10302183777093887,-0.23102408647537231,-0.5634782910346985,-0.7931709289550781,0.0064299702644348145,-0.0014173388481140137,-0.007350921630859375,-0.34755678465469686,0.004262189219336907,0.32155306614372964,0.8807892777226181,0.5985901100482706,-0.28342523322897184,-2.301924596651834
1773063091605424384,0.07980036735534668,-0.08455708622932434,0.003947279881685972,-0.10991782695055008,-0.23045042157173157,-0.5632074475288391,-0.7935300469398499,-0.008578494191169739,0.025258898735046387,-0.002704024314880371,-0.34704314481079485,0.004232503838989334,0.32127411699928493,0.8810936371758774,0.5982623021152871,-0.2826371559399596,-2.3034681174702265
1773063091615461376,0.08983731269836426,-0.13085633516311646,0.010626387782394886,-0.06171226501464844,-0.22987546026706696,-0.5625193119049072,-0.794184684753418,-0.028593167662620544,-0.0014455318450927734,0.01763439178466797,-0.346676108138014,0.0042390923177205555,0.3207642295698201,0.8814238567916886,0.5974297655323006,-0.28174851367953263,-2.3048529335411305
1773063091625497344,0.09987330436706543,-0.13911665976047516,0.014647228643298149,-0.02370043285191059,-0.22954167425632477,-0.5615153908729553,-0.7949912548065186,-0.022991299629211426,0.00040394067764282227,0.018593549728393555,-0.34651892089738207,0.004353488934543443,0.32013345706633406,0.881714356823068,0.5962160355165034,-0.2810900143849909,-2.305780222959257
1773063091635533312,0.1099092960357666,-0.11173263937234879,0.008196553215384483,-0.012983561493456364,-0.22933638095855713,-0.5605292916297913,-0.7957460284233093,0.002331376075744629,0.01360851526260376,0.027969539165496826,-0.3464618221192586,0.004489169350512389,0.31954160333405457,0.8819507655175454,0.5950247750707676,-0.280599023326656,-2.306412216653475
1773063091645569280,0.11994528770446777,-0.07370882481336594,0.002053705509752035,-0.007079333066940308,-0.22925329208374023,-0.5598211288452148,-0.7962683439254761,0.012959957122802734,0.005011558532714844,0.025531649589538574,-0.346427515280351,0.0046149595153079865,0.3191309210886925,0.8821123118507881,0.5941699191381974,-0.2803281070123102,-2.3068205739588414
1773063091655606272,0.12998223304748535,-0.023875227198004723,9.614904411137104e-05,-0.03410828858613968,-0.2291433960199356,-0.5594609975814819,-0.7965530157089233,0.004350930452346802,0.004407286643981934,0.00802457332611084,-0.34633369952958654,0.004673927951754632,0.318906933053962,0.8822298827838524,0.5937353334224558,-0.2801056531350649,-2.3072318293067196
1773063091665642240,0.14001822471618652,-0.006539646070450544,0.03956872597336769,-0.02670416794717312,-0.22879132628440857,-0.5594603419303894,-0.7966547012329102,0.0018015950918197632,0.005932509899139404,-0.0026006698608398438,-0.3462133549378425,0.004548069538921427,0.3188290467429058,0.8823059469608299,0.5937345472391565,-0.27966353555892765,-2.3076647062687896
1773063091675678208,0.1500542163848877,-0.04763009026646614,0.01952444203197956,0.000343074556440115,-0.22847022116184235,-0.5592986941337585,-0.7968603372573853,-0.007735833525657654,-0.005520641803741455,-0.012694716453552246,-0.3462151729654197,0.004427769341747008,0.31866947430485937,0.8823634464580808,0.5935395279304704,-0.2792227600131537,-2.3078725272551894
1773063091685715456,0.16009140014648438,-0.08519371598958969,0.016295358538627625,-0.01417062059044838,-0.2283279150724411,-0.5587525963783264,-0.7972841262817383,-0.004841625690460205,0.000372469425201416,-0.01962566375732422,-0.34621521324619603,0.004477302282674006,0.3183361270628664,0.8824835811800026,0.5928809273797592,-0.2789169735310799,-2.308161260395205
1773063091695751424,0.17012739181518555,-0.10799236595630646,0.009991190396249294,-0.03812149167060852,-0.22802600264549255,-0.5580481290817261,-0.7978636622428894,0.01739366352558136,-0.0014306306838989258,0.009945571422576904,-0.34611202690932186,0.0045212862469159905,0.3178800661950781,0.8826880810085347,0.5920317632583171,-0.2783749279665678,-2.308819512575388
1773063091705787392,0.18016338348388672,-0.10868479311466217,-0.00802695844322443,-0.01771768555045128,-0.22788351774215698,-0.557218611240387,-0.7984839081764221,0.0032436251640319824,-0.021852433681488037,0.01927858591079712,-0.34597428065499525,0.00468122234114291,0.3173895642405443,0.8829177457183096,0.5910324032088752,-0.27800468617420593,-2.3095342802858556
1773063091715823360,0.1901993751525879,-0.08618873357772827,-0.012315412983298302,-0.01006025355309248,-0.22788019478321075,-0.5564449429512024,-0.7990241646766663,-0.006525307893753052,-0.024136662483215332,0.006147027015686035,-0.34589552205923885,0.0048746130866201,0.31696079672983596,0.8831016100629236,0.5901010253675616,-0.27782238766024764,-2.3100289461387815
1773063091725860352,0.20023632049560547,-0.02951240725815296,-0.01500840112566948,-0.026382502168416977,-0.2279108166694641,-0.5559935569763184,-0.7993296384811401,0.017553165555000305,-0.01015329360961914,0.0004404783248901367,-0.34578600950954413,0.00502581325967454,0.31671742578734996,0.8832309159848423,0.5895578069647754,-0.2777570272211634,-2.3104463189419056
1773063091735896320,0.21027231216430664,0.011414453387260437,-0.011754984967410564,-0.03231029957532883,-0.22783656418323517,-0.5559925436973572,-0.7993514537811279,0.01711268723011017,0.0022663474082946777,-0.01464390754699707,-0.3456400455956136,0.005042607416775468,0.31669991825519805,0.8832941655813171,0.5895565961722434,-0.2776639076124623,-2.3108103683724717
1773063091745932288,0.2203083038330078,0.04710214585065842,-0.020522642880678177,-0.022423312067985535,-0.22780297696590424,-0.5562925934791565,-0.7991523146629333,-0.0002396106719970703,-0.007061898708343506,-0.02314382791519165,-0.3454995327644007,0.005012315836464667,0.316857581127495,0.8832928672428177,0.5899176308214399,-0.2776907412702476,-2.311022188090761
1773063091755968256,0.23034429550170898,0.05534755811095238,-0.016520444303750992,-0.0097830630838871,-0.22783146798610687,-0.5567693114280701,-0.7988120913505554,-0.0008062124252319336,-0.0027856826782226562,-0.02000504732131958,-0.34539145833909635,0.004962288738006689,0.3171266939802198,0.8832387703350465,0.5904914459900977,-0.27783601393845214,-2.3110603547872874
1773063091766005248,0.24038124084472656,0.045393459498882294,-0.002436583861708641,0.0138980308547616,-0.2278851419687271,-0.5572106242179871,-0.798488974571228,0.005122080445289612,0.0033776164054870605,-0.005588173866271973,-0.34537112218402144,0.00490051195989923,0.3173822398873237,0.8831553227950537,0.5910228247159582,-0.2780048851258287,-2.310902950734124
1773063091776041216,0.25041723251342773,-0.0011155195534229279,0.005546208471059799,0.02884133718907833,-0.22799229621887207,-0.557333767414093,-0.7983724474906921,0.0018875598907470703,0.0032261013984680176,0.0016805529594421387,-0.34546976382993844,0.004890154560455225,0.31747417917693266,0.8830837070101633,0.5911710917750904,-0.27816749284356906,-2.310581074705207
1773063091786077184,0.2604532241821289,-0.017881184816360474,0.01805800572037697,0.020400982350111008,-0.22806455194950104,-0.5572028756141663,-0.7984431982040405,0.004248633980751038,0.006299495697021484,0.006664633750915527,-0.3456033212067959,0.004905128372060286,0.31741822466862746,0.8830515419410915,0.5910134430983266,-0.2782277663351769,-2.3102995521319163
1773063091796113152,0.2704892158508301,-0.015887076035141945,0.010966373607516289,0.001680424902588129,-0.22800403833389282,-0.5570141077041626,-0.7985921502113342,0.004996851086616516,0.0028759241104125977,0.02137047052383423,-0.34566372318010863,0.004894920794078646,0.3173010570569243,0.8830700314747791,0.590786175112251,-0.2781084631887323,-2.310266725852247
1773063091806150400,0.28052639961242676,0.015602140687406063,0.0220941249281168,-0.003217128338292241,-0.22785139083862305,-0.5570041537284851,-0.7986426949501038,-0.008568286895751953,-0.0031002163887023926,0.01449352502822876,-0.3456885829130614,0.004814635352741695,0.3172624707394087,0.8830745962491289,0.5907741484375227,-0.2779150157954193,-2.3102831389329865
1773063091816186368,0.29056239128112793,0.03998677432537079,0.0014583225129172206,-0.028121812269091606,-0.2276686578989029,-0.5572754740715027,-0.7985055446624756,-0.013160809874534607,0.0010926127433776855,0.004926443099975586,-0.34562325646579445,0.004691689377714486,0.31737238305709264,0.883061348460022,0.5911008843416229,-0.2777487017153939,-2.310402974572159
1773063091826222336,0.3005983829498291,0.0543271005153656,0.02298571914434433,-0.03668760508298874,-0.22740110754966736,-0.5577322244644165,-0.7982627749443054,-0.008377701044082642,0.001427292823791504,-0.010285139083862305,-0.34549694572367484,0.004509885671625378,0.31756615078158124,0.8830420379961071,0.5916510860617852,-0.27751889964774024,-2.310623559349393
1773063091836259328,0.3106353282928467,0.05155761167407036,0.017872417345643044,-0.03984358534216881,-0.22702710330486298,-0.558241605758667,-0.7980131506919861,-0.00869065523147583,0.002974271774291992,-0.01302194595336914,-0.3453651843773519,0.004267446913869837,0.3177659514352749,0.8830229289249895,0.5922648943010645,-0.27716778995950975,-2.310883226113237
1773063091846295296,0.32067131996154785,0.0019983146339654922,0.022459179162979126,-0.0528336837887764,-0.2266000658273697,-0.5585619807243347,-0.7979103326797485,-0.007362931966781616,0.003477811813354492,-0.00972205400466919,-0.34522004479887575,0.0040449774198872,0.3178497729837133,0.8830505296941389,0.5926511412286012,-0.2767065375430739,-2.311274014826937
1773063091856331264,0.330707311630249,-0.03719162940979004,0.016967905685305595,-0.07132263481616974,-0.2261013239622116,-0.5585582256317139,-0.7980544567108154,-0.004031732678413391,0.008280515670776367,-0.0015518665313720703,-0.34497466989539805,0.003893856582525354,0.3177382678770137,0.8831873110765085,0.5926466116359523,-0.2760806488625871,-2.312056414858141
1773063091866367232,0.3407433032989502,-0.07665488868951797,-0.0046907830983400345,-0.07376741617918015,-0.2256019413471222,-0.5582618117332458,-0.7984031438827515,-0.005416125059127808,0.0018348097801208496,0.011034369468688965,-0.34465084477141106,0.003833482922134733,0.31746454667812685,0.8834123714540322,0.5922892445296152,-0.27538698466479583,-2.3131347401912685
1773063091876404224,0.3507802486419678,-0.05590919405221939,-0.007883147336542606,-0.07660035043954849,-0.2252539098262787,-0.5578849911689758,-0.7987646460533142,-0.0066033899784088135,-0.00931471586227417,0.015408933162689209,-0.34431055865619425,0.0038689342589823756,0.3171793019437192,0.8836472565029895,0.5918351790837234,-0.27486498437251555,-2.3142137294404908
1773063091886440192,0.36081624031066895,-0.02478935569524765,-0.012598806992173195,-0.09368825703859329,-0.2248619943857193,-0.5577298402786255,-0.7989834547042847,0.0019921213388442993,-0.007165789604187012,0.011278986930847168,-0.3439200884174575,0.003853462675217847,0.31700699330823834,0.8838612689401356,0.5916482207987956,-0.27433899356015556,-2.3153362488748965
1773063091896476160,0.3708522319793701,-0.003444254631176591,-0.007590665947645903,-0.08876754343509674,-0.22443649172782898,-0.5578321218490601,-0.7990317344665527,0.004938840866088867,-0.0030962228775024414,-0.006479740142822266,-0.3434963322992998,0.0037784227344761787,0.3169698199820329,0.8840397659144744,0.5917714296933949,-0.2738297201353586,-2.3164450194454878
1773063091906512384,0.3808882236480713,-0.00015232106670737267,0.009043704718351364,-0.07077336311340332,-0.22397474944591522,-0.5579954981803894,-0.7990471720695496,-0.004739239811897278,-0.004626572132110596,-0.014429450035095215,-0.34314486335891864,0.003646830376188288,0.3169591910400142,0.8841804746344071,0.5919682868135421,-0.2732890001139242,-2.317381183757648
1773063091916549120,0.39092516899108887,-0.0018678626511245966,0.015580066479742527,-0.06320247799158096,-0.2235115021467209,-0.5581405162811279,-0.7990756034851074,-0.00326460599899292,-0.0023300647735595703,-0.005062580108642578,-0.34286244789758513,0.003493677154537228,0.31693847624224536,0.8842981299823458,0.5921430631788166,-0.27274217289495023,-2.318169687413846
1773063091926585344,0.40096139907836914,-0.026387853547930717,0.019325271248817444,-0.05296262353658676,-0.22303278744220734,-0.55815190076828,-0.7992013692855835,0.0009869039058685303,0.007675826549530029,0.009711623191833496,-0.34263358284844536,0.0033423786026229464,0.31684085985575233,0.8844224518014245,0.5921568211549237,-0.2721457043658628,-2.3188975113757526
1773063091936621312,0.4109973907470703,-0.036386556923389435,0.017383093014359474,-0.04358314722776413,-0.22261758148670197,-0.558014452457428,-0.7994130849838257,-0.0022969841957092285,0.0053716301918029785,0.021520018577575684,-0.3424387601504763,0.0032412170463813803,0.3166748530071067,0.8845575897495946,0.591991157556051,-0.27159519751097,-2.3195787013171105
1773063091946657536,0.4210333824157715,-0.06242721155285835,0.024238603189587593,-0.043316300958395004,-0.2221762090921402,-0.5577120184898376,-0.7997468709945679,-0.005225524306297302,0.0040315985679626465,0.02698075771331787,-0.3422835024899491,0.003148414448822157,0.31641217211405465,0.8847120688184676,0.5916267683341828,-0.27097507077173816,-2.3202481626139595
1773063091956694272,0.43107032775878906,-0.12423505634069443,0.03753570094704628,-0.0208946131169796,-0.22173568606376648,-0.5570473670959473,-0.8003320693969727,-0.0038960129022598267,0.001230776309967041,0.02196604013442993,-0.3421953272620991,0.003109118827224557,0.31594981639542785,0.8849114669465442,0.5908262277078397,-0.27027535486102655,-2.320908611537436
1773063091966730240,0.44110631942749023,-0.20258739590644836,0.03755407780408859,-0.012879831716418266,-0.22134174406528473,-0.5557473301887512,-0.8013443350791931,-0.004854544997215271,-0.002541184425354004,0.022184789180755615,-0.3421782108580667,0.003202036834245429,0.31514693422731804,0.8852040178422712,0.58926163080507,-0.2694936039971679,-2.3216378221817657
1773063091976766464,0.4511423110961914,-0.27094340324401855,0.034870076924562454,-0.019171016290783882,-0.22096069157123566,-0.5538907647132874,-0.8027337193489075,0.0016919076442718506,-0.005786299705505371,0.03623896837234497,-0.3421483383570028,0.003423544571053663,0.3140404875866965,0.8856078734603678,0.5870300692878271,-0.2686081683403311,-2.3226050643388456
1773063091986802432,0.4611783027648926,-0.34047427773475647,0.02479720115661621,-0.024610523134469986,-0.22059109807014465,-0.5514933466911316,-0.8044840693473816,0.005945712327957153,-0.018101990222930908,0.04833477735519409,-0.34207927465015037,0.0037781508760917526,0.31263987229584517,0.8861285227221437,0.5841533979230007,-0.26762411288747523,-2.323859877417574
1773063091996839168,0.47121524810791016,-0.4183588922023773,0.015689756721258163,0.004984076600521803,-0.22034084796905518,-0.5484479069709778,-0.8066317439079285,0.0010567903518676758,-0.024305999279022217,0.030737578868865967,-0.3420442710661873,0.004313710484174759,0.31091078123254057,0.8867477740076352,0.5805069683405462,-0.26665629569332383,-2.325225863431678
1773063092006875392,0.48125123977661133,-0.46432051062583923,0.023354066535830498,0.05319661274552345,-0.2203633338212967,-0.5447918772697449,-0.8090993762016296,0.005061820149421692,-0.020836174488067627,0.02369898557662964,-0.3421838998924438,0.0050461907568451645,0.30890913353242666,0.8873893594829153,0.5761409414874745,-0.2659067568630618,-2.3262995841981993
1773063092016911360,0.4912872314453125,-0.47420844435691833,0.034206513315439224,0.10777889937162399,-0.22057534754276276,-0.5407835841178894,-0.8117263317108154,0.01769450306892395,-0.034381210803985596,0.03694605827331543,-0.3425688535005763,0.005856872788991992,0.3067613578781376,0.8879806991916424,0.5713683587248949,-0.265329270358237,-2.3268570163301416
1773063092026948096,0.5013241767883301,-0.47430911660194397,0.060881003737449646,0.20038101077079773,-0.22101418673992157,-0.5366100072860718,-0.8143724203109741,0.025915294885635376,-0.03658640384674072,0.02833116054534912,-0.34331056985951597,0.00668757250637597,0.304580162893472,0.8884390925986309,0.5664145804397399,-0.26500882677540877,-2.326561636544736
1773063092036984320,0.5113601684570312,-0.49076536297798157,0.052221037447452545,0.3168896436691284,-0.22191330790519714,-0.5320999622344971,-0.8170827031135559,0.025792092084884644,-0.028660476207733154,0.011388123035430908,-0.344512003354814,0.007653838258287798,0.3023244616763219,0.8887365888263392,0.5610788423026645,-0.26519527960362393,-2.3251501830173704
1773063092047020544,0.5213963985443115,-0.5528292655944824,0.05485543608665466,0.5022714734077454,-0.22361445426940918,-0.5269414186477661,-0.81995689868927,0.04055476188659668,-0.03975474834442139,0.01917564868927002,-0.34637688167800634,0.008919294495026353,0.2999033102079658,0.8888203296858647,0.5549978151274984,-0.2662405136186128,-2.3221420095895455
1773063092057056512,0.5314323902130127,-0.6382315754890442,0.037468321621418,0.7192201614379883,-0.2264319211244583,-0.5206472277641296,-0.8231980204582214,0.07140260934829712,-0.04957371950149536,0.04710555076599121,-0.34913720330569464,0.010663587103299633,0.2971317276080398,0.8886519119813944,0.547608877098959,-0.26842544691328835,-2.3170695636280763
1773063092067093248,0.5414693355560303,-0.7503945827484131,0.030833322554826736,0.9544826745986938,-0.23055525124073029,-0.5129765272140503,-0.8268611431121826,0.10694383084774017,-0.03983414173126221,0.06117510795593262,-0.3528690883687039,0.013010042399866105,0.293939039299408,0.8882083657167358,0.5386487500636487,-0.27192518533681304,-2.3097809793316264
1773063092077129472,0.5515053272247314,-0.8209839463233948,0.03569415584206581,1.136603593826294,-0.2355787307024002,-0.5040028095245361,-0.8309535980224609,0.1297437697649002,-0.05089831352233887,0.07959556579589844,-0.35752929753119356,0.01577291567095542,0.2903005690055791,0.8874963032429011,0.5282270164786784,-0.27625506240245645,-2.3005169775577508
1773063092087165440,0.5615413188934326,-0.7651669979095459,0.026256179437041283,1.3315709829330444,-0.2414744794368744,-0.49434682726860046,-0.8350517153739929,0.1379588544368744,-0.07169321179389954,0.07852089405059814,-0.36298998025196844,0.018859472006017845,0.2865632138144276,0.8864334489757186,0.517083274094884,-0.28149449924007797,-2.2893586491885682
1773063092097201408,0.5715773105621338,-0.7833371162414551,0.2043846994638443,1.80012047290802,-0.24830645322799683,-0.48420822620391846,-0.8389793038368225,0.14105243980884552,-0.07629287242889404,0.07181316614151001,-0.3699362937175576,0.022046192301561712,0.28288566595170855,0.8846676478980045,0.5054580007146964,-0.2877486012991635,-2.274666425052097
1773063092107238400,0.5816142559051514,-0.8507630228996277,0.2152373492717743,2.128511428833008,-0.25614166259765625,-0.4723365604877472,-0.8433798551559448,0.14261627197265625,-0.05131456255912781,0.020442843437194824,-0.3787662731604894,0.025526820007815792,0.27867264446349055,0.8821712059759212,0.4919398201739938,-0.29485561846949626,-2.2559512958965056
1773063092117274368,0.5916502475738525,-1.2378411293029785,0.7402995228767395,2.8352537155151367,-0.2635692358016968,-0.4575280249118805,-0.8492345809936523,0.1796306073665619,-0.006812185049057007,-0.030877113342285156,-0.39002526961595035,0.028773174624721096,0.2730472810954981,0.878918376040845,0.4752131790737015,-0.3009349120704056,-2.2328911368321913
1773063092127310336,0.6016862392425537,-2.3914740085601807,0.6838586330413818,3.4800796508789062,-0.27033451199531555,-0.4330497980117798,-0.8598762154579163,0.19384220242500305,-0.033380866050720215,0.03033214807510376,-0.4053719857054251,0.03279486332139491,0.2626525919537934,0.8749923741518831,0.4478735454380765,-0.30460370576022194,-2.204008682191157
1773063092137346560,0.611722469329834,-2.544381856918335,0.41702598333358765,3.1913986206054688,-0.2802671492099762,-0.4018532931804657,-0.871759295463562,0.2139219343662262,-0.0592367947101593,0.08913600444793701,-0.42028663592693855,0.040237696110329214,0.25000257188810504,0.8713430746172509,0.413539842873323,-0.3110594279905015,-2.1769890307567437
1773063092147383552,0.6217594146728516,-2.9340174198150635,1.0236133337020874,2.3236799240112305,-0.28493890166282654,-0.36992472410202026,-0.8842881321907043,0.35696038603782654,-0.12211018800735474,0.38079386949539185,-0.4332234561719489,0.046297136042052586,0.2360349645745449,0.868597448258685,0.3789279970918518,-0.3117191107422096,-2.156032054173211
1773063092157419520,0.6317954063415527,-4.060070514678955,0.8683791160583496,-0.5877672433853149,-0.27731531858444214,-0.3364607095718384,-0.8999391198158264,0.21873682737350464,-0.39474043250083923,0.3477998375892639,-0.4363583052986296,0.04993351063163814,0.21803002600969854,0.8715279607972548,0.3431559614125627,-0.2989160640568826,-2.161032634911858
1773063092167455488,0.6418313980102539,-5.11607027053833,0.5243093371391296,-0.7923640608787537,-0.2677190899848938,-0.29683730006217957,-0.9166319370269775,0.1805608868598938,-0.34401658177375793,0.08870530128479004,-0.4320092236893377,0.05579728229841007,0.196394217320799,0.8784555331811217,0.3013789563164618,-0.2841641685623296,-2.184054898861122
1773063092177492736,0.6518685817718506,-5.947547435760498,-0.03634012117981911,1.038045883178711,-0.2649246156215668,-0.24525994062423706,-0.9325569868087769,0.6241775751113892,-0.40008002519607544,0.11593711376190186,-0.4306786045496249,0.06647462315431758,0.17118011529383165,0.883625828973655,0.2477878197193831,-0.27679186051768206,-2.1998725017003116
1773063092187528704,0.6619045734405518,-6.455867767333984,-0.8481011986732483,2.619849920272827,-0.27261218428611755,-0.18155719339847565,-0.9448384046554565,1.16970694065094,-0.43363142013549805,0.15939223766326904,-0.4363234038209301,0.08322631032891671,0.14371563302738533,0.8843309349854841,0.1825697239490603,-0.28089894015845807,-2.1990131010048457
1773063092197564672,0.6719405651092529,-6.662124156951904,-0.41411271691322327,3.000565767288208,-0.2849135100841522,-0.11084213107824326,-0.9521230459213257,1.130448818206787,-0.31368789076805115,0.22382104396820068,-0.4464732184484633,0.10327813828635699,0.11520457865949227,0.8813190504125035,0.11107036557877532,-0.29075958836096166,-2.187492343452263
1773063092207600640,0.6819765567779541,-7.218534469604492,-0.21629683673381805,2.145585060119629,-0.2926509976387024,-0.036847904324531555,-0.9555091261863708,0.6733883023262024,-0.31044214963912964,0.23471444845199585,-0.45376067932525593,0.12292928505883288,0.08446206968880975,0.8785532735924264,0.03685624742758818,-0.2972060158983191,-2.182575570826982
1773063092217637632,0.6920135021209717,-7.210574626922607,-0.44389045238494873,0.654861330986023,-0.2952953577041626,0.036381326615810394,-0.9547130465507507,0.2115093469619751,-0.3056226670742035,0.20416373014450073,-0.4547917799081521,0.14107145533989926,0.05236708912370427,0.8777931927574795,-0.03638935833303193,-0.29996941926958426,-2.191034450962054
1773063092227673600,0.7020494937896729,-7.267116546630859,-0.6454190015792847,0.530832827091217,-0.29998311400413513,0.10716342180967331,-0.9479061961174011,0.04841145873069763,-0.3866434097290039,0.23152130842208862,-0.45148062922573473,0.15998540266433417,0.02125041770127561,0.8775638220497906,-0.1073696030309082,-0.30649683542898976,-2.207878786238057
1773063092237709568,0.712085485458374,-7.1566667556762695,-1.49359929561615,1.1414061784744263,-0.30867651104927063,0.17764712870121002,-0.9344304800033569,0.28543737530708313,-0.5675244331359863,0.30544793605804443,-0.4489235044455457,0.1808553621559151,-0.008723484705245296,0.8750331051922521,-0.17859502538904937,-0.3190509937091678,-2.222357999246568
1773063092247745536,0.7221214771270752,-7.136070728302002,-2.171452045440674,1.9011410474777222,-0.322774201631546,0.24878042936325073,-0.913195013999939,0.7340595722198486,-0.5764324069023132,0.35215985774993896,-0.44889865605187235,0.20497353312616598,-0.037260586637021795,0.8689577233075462,-0.2514208994395176,-0.33975030170233667,-2.2312707203692996
1773063092257782528,0.7321584224700928,-6.899803638458252,-2.2724289894104004,2.3969643115997314,-0.336820513010025,0.31964585185050964,-0.8856514096260071,0.9613627195358276,-0.41002365946769714,0.40802085399627686,-0.45127574958635785,0.2300695641767985,-0.06513276209792626,0.8597534373901234,-0.32535571820423287,-0.3634163145605763,-2.2351654570725437
1773063092267818496,0.742194414138794,-6.182374477386475,-2.032823085784912,2.307985305786133,-0.34731948375701904,0.38526788353919983,-0.8549489974975586,0.8916767835617065,-0.17323175072669983,0.5242147445678711,-0.45437022327377496,0.2533621089466578,-0.09128605990913313,0.8491301859862219,-0.3954981091436499,-0.3858791210857896,-2.237179507096888
1773063092277854464,0.7522304058074951,-5.028536319732666,-1.7730247974395752,1.9788944721221924,-0.3544495701789856,0.4402481019496918,-0.8249527812004089,0.7100709080696106,0.08289948105812073,0.45158547163009644,-0.45700347100382566,0.27316618331515635,-0.11359505687341437,0.8388231365133396,-0.45587498640810964,-0.40581142607960635,-2.2392619559820495
1773063092287891712,0.7622675895690918,-3.7763514518737793,-1.5726571083068848,1.81829035282135,-0.35932257771492004,0.48282742500305176,-0.7986019253730774,0.5149774551391602,0.22524139285087585,0.3128841519355774,-0.459701475098025,0.2891100932856301,-0.13082198563602787,0.8294429999153966,-0.5038805612168731,-0.4228036300161086,-2.2397964616389316
1773063092297927680,0.772303581237793,-2.67087721824646,-1.359415888786316,1.9486984014511108,-0.36157187819480896,0.5149786472320557,-0.777214765548706,0.39775046706199646,0.30740904808044434,0.17435526847839355,-0.4636941921097614,0.3013394523030148,-0.14348227031096605,0.8207283485099743,-0.5409827323029454,-0.4354343433872182,-2.235582988422142
1773063092307963648,0.7823395729064941,-1.7851179838180542,-1.1036351919174194,2.2134220600128174,-0.3600642681121826,0.5396072864532471,-0.761037290096283,0.37126424908638,0.39845728874206543,0.08078521490097046,-0.46973182326810403,0.310021626068063,-0.15286581817422143,0.8123242099329494,-0.5699705532817987,-0.44191579307446455,-2.2244590202837613
1773063092317999616,0.7923755645751953,-1.147684931755066,-0.8317569494247437,2.4135074615478516,-0.3545946776866913,0.5589097738265991,-0.7495882511138916,0.3687700629234314,0.4716078042984009,0.0536348819732666,-0.47763368268631107,0.3155611246492788,-0.16008451151338032,0.8041519288610127,-0.5930704782965834,-0.4418582266689204,-2.206693089243221
1773063092328036608,0.8024125099182129,-0.8505397439002991,-0.6305292844772339,2.4469006061553955,-0.3461248576641083,0.5748205780982971,-0.7414708137512207,0.3451940715312958,0.4677514433860779,0.0529179573059082,-0.48645794608346316,0.318836975902051,-0.1661552919474093,0.7963003398326336,-0.612384880578623,-0.4367436078881801,-2.1848824519662378
1773063092338072576,0.8124485015869141,-0.8844985365867615,-0.5024847984313965,2.377655029296875,-0.3361660838127136,0.5893768072128296,-0.7345933318138123,0.298324316740036,0.3693176507949829,0.053090035915374756,-0.49518513370127787,0.3211089801662992,-0.17202430495893922,0.7887257703795971,-0.6302871904886315,-0.42917431292697433,-2.1621939818900353
1773063092348108544,0.8224844932556152,-1.0676742792129517,-0.43388843536376953,2.2876157760620117,-0.3255999982357025,0.604268491268158,-0.7272167205810547,0.2544788122177124,0.22577911615371704,0.06037712097167969,-0.5031957281467637,0.32332419703218696,-0.1784743510717529,0.7812824939716657,-0.6488474551906007,-0.4209683206912566,-2.1406672233475725
1773063092358144512,0.8325204849243164,-1.2561559677124023,-0.4034559726715088,2.212322950363159,-0.31482383608818054,0.6198827028274536,-0.7187708020210266,0.24260398745536804,0.08228099346160889,0.045797109603881836,-0.5104739755139901,0.32584438943728644,-0.18558028703996673,0.7738228197683341,-0.6685931887636822,-0.41283264237345524,-2.1205015857713567
1773063092368181504,0.842557430267334,-1.3871790170669556,-0.3742429316043854,2.143496036529541,-0.303892582654953,0.6362138390541077,-0.7091412544250488,0.249174565076828,-0.048155367374420166,0.030811786651611328,-0.5170621589850395,0.32872373246086944,-0.1933134442631008,0.7663011089195789,-0.6895807988002606,-0.4048618993188364,-2.1015895299642255
1773063092378217472,0.8525934219360352,-1.3610118627548218,-0.29171475768089294,2.1186375617980957,-0.2925018072128296,0.652332603931427,-0.6992173194885254,0.2527221739292145,-0.126758873462677,0.04218912124633789,-0.5232386647501983,0.3314974284545709,-0.20124812117022955,0.7588345663406834,-0.7106579646220731,-0.3962054259026153,-2.082967579333024
1773063092388253440,0.8626294136047363,-1.1962623596191406,-0.20273083448410034,2.2057583332061768,-0.2799255847930908,0.6674946546554565,-0.6899946331977844,0.2474091351032257,-0.09460347890853882,0.052863895893096924,-0.5295206416000685,0.3336039435448508,-0.20907200053781044,0.7514021788339665,-0.7308390810953451,-0.3854039770757369,-2.0628655441186203
1773063092398290688,0.872666597366333,-0.9979487657546997,-0.1241706982254982,2.3600127696990967,-0.2655996084213257,0.6812956929206848,-0.6821239590644836,0.23550927639007568,0.0059601664543151855,0.05555230379104614,-0.5364072405834769,0.3347084536225382,-0.2165831754733159,0.7438610834985693,-0.7495311969596188,-0.37131041960109934,-2.0395732551151817
1773063092408326656,0.8827025890350342,-0.841221272945404,-0.08145466446876526,2.5122995376586914,-0.24944810569286346,0.6938625574111938,-0.6755223870277405,0.23455551266670227,0.13423192501068115,0.05098015069961548,-0.5440325222698672,0.33487670587751933,-0.2238222440777395,0.7360638418932217,-0.7668391537706455,-0.35373500764592514,-2.0125505843242406
1773063092418362624,0.8927385807037354,-0.7040223479270935,-0.07664234191179276,2.5083608627319336,-0.2322302907705307,0.705147385597229,-0.6699524521827698,0.2331153154373169,0.23197108507156372,0.012741148471832275,-0.5521402414325296,0.33439585299082475,-0.23065819070619878,0.7280916016769453,-0.7826310008114804,-0.33367567561098943,-1.982700398824347
1773063092428398592,0.9027745723724365,-0.6682140231132507,-0.1778448522090912,2.478670835494995,-0.21542726457118988,0.7152762413024902,-0.6648089289665222,0.22111882269382477,0.23989337682724,-0.06239438056945801,-0.5601656227168963,0.3338602851713507,-0.23692370860622353,0.720151985154862,-0.7970193481734973,-0.31336687120509205,-1.952258187261171
1773063092438435584,0.9128115177154541,-0.39290276169776917,-0.30635347962379456,2.4363508224487305,-0.19883306324481964,0.7240071296691895,-0.660514235496521,0.20952950417995453,0.16236060857772827,-0.11226707696914673,-0.5684710248692122,0.3331303748597565,-0.242419132399781,0.7121079417133946,-0.8095939010046257,-0.2923993505322011,-1.920208172754647
1773063092448471552,0.9228475093841553,-1.2766213417053223,-0.5744744539260864,1.9005547761917114,-0.18553946912288666,0.7332758903503418,-0.6541266441345215,0.20652028918266296,0.0925297737121582,-0.10644769668579102,-0.5755331574871864,0.334117001670056,-0.2475934381531001,0.7041484439907852,-0.8231274955927177,-0.2763851017242459,-1.8923999188837053
1773063092458507520,0.9328835010528564,-1.944359302520752,-1.1111608743667603,1.2384092807769775,-0.1797037571668625,0.7469905018806458,-0.640087366104126,0.1630411446094513,0.06865280866622925,-0.331439733505249,-0.5791921388174461,0.3400708738000163,-0.253590431040322,0.6961180223481537,-0.8435237920895864,-0.2737029211291564,-1.8770763993332407
1773063092468543488,0.9429194927215576,-0.9243484139442444,-1.2237786054611206,1.5969955921173096,-0.17698921263217926,0.7593461275100708,-0.6261537075042725,0.014834031462669373,0.3470534086227417,-0.24918198585510254,-0.5827221142062285,0.3470015422525687,-0.25790131737376043,0.688122025015137,-0.8623075841707643,-0.27547451023451386,-1.863649958503374
1773063092478580480,0.9529564380645752,1.0002113580703735,-1.141555666923523,2.420994758605957,-0.16907396912574768,0.7625134587287903,-0.6244895458221436,0.058768197894096375,0.7181078791618347,-0.07717061042785645,-0.5913275962557203,0.3483478681151079,-0.2576993892522108,0.680129745274545,-0.8671892206157841,-0.26440092594583464,-1.8332304718230552
1773063092488616448,0.9629924297332764,2.120507001876831,-0.8606217503547668,2.687116861343384,-0.155485138297081,0.7565235495567322,-0.6352137923240662,0.2731456458568573,0.7518077492713928,-0.44544416666030884,-0.604265031953723,0.34352034837594964,-0.2537456921768291,0.6726594669234065,-0.8579807013932799,-0.2400560071181153,-1.7880380099569724
1773063092498652416,0.9730284214019775,2.6739580631256104,-0.8473563194274902,2.225693941116333,-0.1421869546175003,0.7445321679115295,-0.6522689461708069,0.3467157781124115,0.595967710018158,-0.6166825294494629,-0.6178015714004575,0.33575988672342905,-0.24724651419242732,0.6666751286165533,-0.8398337957984847,-0.2146306221375447,-1.7429807167955327
1773063092508689664,0.9830656051635742,2.796184539794922,-0.8040879368782043,1.9527531862258911,-0.13268782198429108,0.7290501594543457,-0.6714758276939392,0.16271714866161346,0.4444116950035095,-0.3631311058998108,-0.6302486747140513,0.327465322610798,-0.23880652399713687,0.6622118271281926,-0.8169332316329013,-0.19509283736459748,-1.704903423529216
1773063092518725632,0.9931015968322754,2.6617496013641357,-0.5511263012886047,2.322868824005127,-0.12192317843437195,0.7129581570625305,-0.6905255317687988,-0.039743706583976746,0.314614474773407,0.010029315948486328,-0.6425124241748382,0.31839883262975366,-0.2309966013608817,0.657602213051656,-0.7937078897382132,-0.17476452353487532,-1.6674044923132716
1773063092528761600,1.0031375885009766,1.7092982530593872,-0.6691738963127136,2.583115816116333,-0.10839790105819702,0.7001132965087891,-0.7057558298110962,-0.09062247723340988,0.11615562438964844,0.2131716012954712,-0.6548437033161507,0.31015762177243844,-0.22566421414310156,0.651197083623484,-0.7755561432644422,-0.15240027953093807,-1.6275620753030389
1773063092538797568,1.0131735801696777,0.04984726384282112,-1.0713552236557007,2.5423388481140137,-0.09652680903673172,0.6963078379631042,-0.7112228870391846,0.03236359357833862,-0.11099594831466675,0.11150670051574707,-0.6655671515569468,0.3070581894630556,-0.2238388641867342,0.6423642324833345,-0.7702404629720072,-0.13489527486746067,-1.5900705365818792
1773063092548834560,1.0232105255126953,-1.1532552242279053,-1.5556423664093018,2.4473209381103516,-0.08835561573505402,0.7028550505638123,-0.7058243751525879,0.14354664087295532,-0.18748944997787476,0.006071627140045166,-0.6741195424804736,0.3104555755969875,-0.2251780096427948,0.6312487839514543,-0.7794032139184278,-0.12453294281291998,-1.5563375942303534
1773063092558870528,1.0332465171813965,-1.9882402420043945,-1.8974990844726562,2.3622984886169434,-0.08354628831148148,0.7159403562545776,-0.6931446194648743,0.17865429818630219,-0.22234904766082764,-0.09478873014450073,-0.681125371778332,0.31853457555295595,-0.2279548347033458,0.618579528299263,-0.7979700737209279,-0.1199536008146554,-1.5252464433067987
1773063092568906496,1.0432825088500977,-2.447052001953125,-2.0767877101898193,2.560422658920288,-0.07937052100896835,0.7335347533226013,-0.6750016212463379,0.19472694396972656,-0.3308247923851013,-0.2193770408630371,-0.68724135367672,0.3295999056178689,-0.23208424715585213,0.6043179903629979,-0.823508271072392,-0.11704819978196325,-1.4937287036221614
1773063092578942464,1.0533185005187988,-2.1516001224517822,-2.2891042232513428,2.7908902168273926,-0.07395193725824356,0.7511831521987915,-0.6559382677078247,0.18880483508110046,-0.280556321144104,-0.2081211805343628,-0.6939063924003642,0.3410632537144372,-0.23602271937211197,0.5886111774093896,-0.8498526756818188,-0.11226815316013618,-1.4578062290984684
1773063092588979456,1.0633554458618164,-1.4442481994628906,-2.4376180171966553,2.9472641944885254,-0.06748981028795242,0.7649872899055481,-0.6404994130134583,0.1874849498271942,-0.04475724697113037,-0.20061081647872925,-0.7019520622458373,0.3508736573547689,-0.23798733027086438,0.5722874797858715,-0.8710216322956492,-0.10498320226290188,-1.4168622669325959
1773063092599015424,1.0733914375305176,-1.0129858255386353,-2.445880889892578,3.064600944519043,-0.05982363224029541,0.774543821811676,-0.6296848058700562,0.1770874559879303,0.1353834867477417,-0.20793110132217407,-0.7112709526600923,0.35845076876167103,-0.23805599030109714,0.555820060026036,-0.8859935806174881,-0.09472137918118553,-1.3716159486864254
1773063092609051392,1.0834274291992188,-0.9432669281959534,-2.3853976726531982,3.0850207805633545,-0.05091027170419693,0.7822880148887634,-0.6208329796791077,0.09958581626415253,0.2068781852722168,-0.21528762578964233,-0.7208762780224303,0.36486455446220806,-0.23760758524378525,0.5392160054361462,-0.8983304828989302,-0.08182009586353123,-1.3238970659186704
1773063092619088640,1.0934646129608154,-1.1067951917648315,-2.3209362030029297,3.036808729171753,-0.04128572717308998,0.7899308800697327,-0.6118044853210449,-0.010533131659030914,0.21095412969589233,-0.18107271194458008,-0.7299798449318413,0.371140803444698,-0.23738632133938647,0.5225243136072448,-0.91069623818666,-0.06737974340125923,-1.275514735641188
1773063092629124608,1.1035006046295166,-1.545440435409546,-2.3488409519195557,2.9346542358398438,-0.03158222511410713,0.7990031838417053,-0.6004968881607056,-0.11339154839515686,0.14310497045516968,-0.10806024074554443,-0.7379953091696174,0.3783999286458376,-0.23783408701020772,0.5055803079631488,-0.9256357307897232,-0.05254507282892678,-1.2274969359491357
1773063092639160576,1.1135365962982178,-2.087124824523926,-2.494910478591919,2.778214931488037,-0.022891510277986526,0.8105906844139099,-0.5851655602455139,-0.17359592020511627,-0.027173936367034912,-0.01960122585296631,-0.7445191162549912,0.38776663187526034,-0.23886030724690746,0.4881333375284875,-0.9451600953517184,-0.039099777214955944,-1.1806441777878094
1773063092649196544,1.123572587966919,-2.490894317626953,-2.6605312824249268,2.657646417617798,-0.015525992028415203,0.824423611164093,-0.5657603144645691,-0.17284376919269562,-0.16022372245788574,0.07752484083175659,-0.7495958733329943,0.3993479064645606,-0.2400855862803286,0.4700917610110256,-0.969183016156172,-0.027435815803979267,-1.1346993224860251
1773063092659233536,1.1336095333099365,-2.3429250717163086,-2.813819408416748,2.5838732719421387,-0.008927363902330399,0.8384625315666199,-0.5448862314224243,-0.11956692487001419,-0.17497986555099487,0.15928137302398682,-0.7539472909468037,0.41180292822137904,-0.2407804789291999,0.4516710762938931,-0.9944558677098607,-0.016382439205397867,-1.0883696521686925
1773063092669269504,1.1436455249786377,-1.7232600450515747,-2.917088747024536,2.5016467571258545,-0.0027754465118050575,0.8496407270431519,-0.5273547172546387,-0.04542706906795502,-0.059998393058776855,0.18674802780151367,-0.7587686462839514,0.4228775146532508,-0.23978586118975231,0.4335291193727608,-1.0153036135132019,-0.0052629110282889574,-1.041114652416564
1773063092679305472,1.1536815166473389,-0.9746789336204529,-2.9184534549713135,2.3875279426574707,0.002869277261197567,0.8566669225692749,-0.515861988067627,0.0023339514154940844,0.1208416223526001,0.13292741775512695,-0.7646120440401426,0.43132116769582957,-0.2367088051970673,0.41629249439985866,-1.0287734962159745,0.005562045072798876,-0.9940000543279145
1773063092689341440,1.16371750831604,-0.42096778750419617,-2.7971630096435547,2.264611005783081,0.008203062228858471,0.860024094581604,-0.5101873874664307,-0.00048209913074970245,0.2775490880012512,0.04696112871170044,-0.7712702051816894,0.4370500034813025,-0.2321499635265604,0.4002947436719863,-1.0353169255632368,0.016077142159070135,-0.948319384561554
1773063092699378432,1.1737544536590576,-0.30411192774772644,-2.6406126022338867,2.160231590270996,0.013437570072710514,0.8614665865898132,-0.507636547088623,-0.05929026007652283,0.38740426301956177,-0.002525806427001953,-0.7780351108364848,0.4411363035005918,-0.22711335868717358,0.38533074904317033,-1.0381506740740205,0.02646466675325463,-0.9045785192779211
1773063092709414400,1.1837904453277588,-0.6329641342163086,-2.630840301513672,2.0102896690368652,0.018209733068943024,0.8633185625076294,-0.5043307542800903,-0.13997487723827362,0.3723381757736206,-0.027865290641784668,-0.7840030980702217,0.44544189461050315,-0.2222974393074974,0.370816074104296,-1.0418090200844914,0.03609105029143189,-0.8628850957490602
1773063092719450368,1.19382643699646,-1.4821500778198242,-2.723874807357788,1.7945730686187744,0.021361755207180977,0.8682328462600708,-0.4956968426704407,-0.19052068889141083,0.2231825590133667,-0.043014705181121826,-0.7880471353656736,0.45236493466517824,-0.21798518582066054,0.3561322085600137,-1.0516295150928954,0.04306774771039444,-0.8238994467734567
1773063092729487360,1.2038633823394775,-1.9513381719589233,-2.92560076713562,1.6210824251174927,0.022348256781697273,0.8763067126274109,-0.48123490810394287,-0.19149193167686462,0.050588369369506836,0.02179279923439026,-0.7901315111618609,0.46230067529854113,-0.21368347718287928,0.34104194189927484,-1.0681415818176112,0.046406052275101944,-0.7874926523264061
1773063092739523584,1.2138996124267578,-2.0774331092834473,-3.0489885807037354,1.687510371208191,0.02272319421172142,0.8856606483459473,-0.4637768566608429,-0.1503019481897354,-0.022440433502197266,0.133317232131958,-0.7912257412057311,0.4736818504701163,-0.2091341215457527,0.32534643913858213,-1.0879148362960542,0.04895681431142535,-0.7506223254617315
1773063092749559552,1.223935604095459,-1.638244390487671,-3.2337472438812256,1.7757885456085205,0.02390534244477749,0.8938562273979187,-0.4477159380912781,-0.062281206250190735,-0.006771266460418701,0.17662829160690308,-0.7927324514770657,0.484351889287142,-0.20382659946869144,0.30892268947507223,-1.1058736663046094,0.05334334335316622,-0.710254184423933
1773063092759595520,1.2339715957641602,-0.9703083038330078,-3.341843843460083,1.6770092248916626,0.02493772841989994,0.8992491364479065,-0.43672531843185425,0.04534425586462021,0.11694037914276123,0.14259693026542664,-0.795461376069068,0.49280243700995574,-0.1969342579065245,0.2925812061638797,-1.118049963756034,0.05703969287138943,-0.669220559755763
1773063092769632512,1.2440085411071777,-0.26452672481536865,-3.257056474685669,1.4008194208145142,0.024478696286678314,0.9015017747879028,-0.43208274245262146,0.0869257003068924,0.3180875778198242,0.07701069116592407,-0.7993695549169255,0.49846156201011116,-0.1884003745813877,0.27757842563049995,-1.1232271208014262,0.05659230399661701,-0.6328262965454565
1773063092779668480,1.254044532775879,-0.012757396325469017,-3.062690258026123,1.1391406059265137,0.022230245172977448,0.9016120433807373,-0.43197396397590637,0.04649534076452255,0.4716637134552002,0.01730114221572876,-0.8037702097066111,0.5019713142781433,-0.1789911045269475,0.2644625119107068,-1.1234820519577495,0.051416645990546316,-0.603375835043168
1773063092789704448,1.26408052444458,-0.518526017665863,-2.9288058280944824,0.9257595539093018,0.018612315878272057,0.9023551344871521,-0.4305911362171173,-0.043072156608104706,0.5013618469238281,0.006427347660064697,-0.8071675009129057,0.5058408887179764,-0.1697923216222587,0.25253926435135593,-1.1252030084954003,0.04319814344115035,-0.5792029954973565
1773063092799741440,1.2741174697875977,-1.279685616493225,-3.0325980186462402,0.6786930561065674,0.013213761150836945,0.9061669707298279,-0.4227135181427002,-0.10784875601530075,0.45796871185302734,0.06281974911689758,-0.8082796930167507,0.5125789751770893,-0.16095351843305006,0.24091620181363307,-1.13413094086648,0.03124920139887453,-0.5594511752993127
1773063092809777408,1.2841534614562988,-1.8701417446136475,-3.2677628993988037,0.40848448872566223,0.004917662590742111,0.912607729434967,-0.40880686044692993,-0.0981793999671936,0.39700841903686523,0.15210825204849243,-0.8073501886988388,0.5221909675459915,-0.15137094686079094,0.22932325278706486,-1.1496176984819608,0.012028725099348618,-0.5457182529340315
1773063092819813376,1.294189453125,-2.282870292663574,-3.3691673278808594,0.3590129017829895,-0.004982181824743748,0.9210346937179565,-0.3894489109516144,-0.04050428047776222,0.26620596647262573,0.181166410446167,-0.8046309255554551,0.5341515898564878,-0.1412714695772054,0.21747100715898732,-1.1707287437184772,-0.012792204608035306,-0.5364145188304353
1773063092829849600,1.3042254447937012,-2.255092144012451,-3.447181224822998,0.415465772151947,-0.014320088550448418,0.9297584295272827,-0.36789175868034363,0.04099244624376297,0.13899767398834229,0.21890491247177124,-0.8011743030351897,0.5467066148601867,-0.13101908845120702,0.2050993497533317,-1.1937561955301874,-0.03890509341646157,-0.527672858669943
1773063092839886336,1.3142623901367188,-2.0048651695251465,-3.4943530559539795,0.3230632245540619,-0.023174600675702095,0.9374966621398926,-0.3472214639186859,0.11332355439662933,0.14296281337738037,0.2340013086795807,-0.7978267089140906,0.5584996829921711,-0.12028037355197838,0.19256984044340653,-1.2153655636426277,-0.06664415278223998,-0.5200342171574728
1773063092849922304,1.32429838180542,-1.5842387676239014,-3.488792896270752,-0.0009787853341549635,-0.033449701964855194,0.9436371326446533,-0.32928743958473206,0.1472344696521759,0.22361445426940918,0.20946019887924194,-0.7949168673650858,0.5688509482788119,-0.10846600586787561,0.18097237826604798,-1.2334524740573565,-0.10123481826371188,-0.5194973668708002
1773063092859958528,1.3343346118927002,-1.296583652496338,-3.3752453327178955,-0.309072881937027,-0.04613354057073593,0.9481395483016968,-0.3144889175891876,0.11575938016176224,0.3226276636123657,0.16428136825561523,-0.7924631470820336,0.5776048195320218,-0.09554171320579383,0.17101667620083225,-1.2473306025773887,-0.14565483819362568,-0.5299707996570083
1773063092869994752,1.3443706035614014,-1.34475576877594,-3.237330198287964,-0.4697864055633545,-0.06010548397898674,0.9519251585006714,-0.30037620663642883,0.03187673166394234,0.3473912477493286,0.10707786679267883,-0.7898231208570328,0.5856862529292788,-0.08236207336295133,0.16238081720715045,-1.259460222534473,-0.1974923734495364,-0.5496646200428441
1773063092880031488,1.354407548904419,-1.7702076435089111,-3.1907122135162354,-0.5745670199394226,-0.07453408092260361,0.9560598134994507,-0.2835388481616974,-0.031834930181503296,0.2924906015396118,0.07920843362808228,-0.7860908313433485,0.5944937521119981,-0.06933793601448075,0.15437160537976394,-1.2732536498532678,-0.25705516799494876,-0.5783419962735489
1773063092890067456,1.3644435405731201,-2.1820614337921143,-3.246093273162842,-0.7216430306434631,-0.08957090228796005,0.9609621167182922,-0.261780321598053,-0.029218778014183044,0.22037333250045776,0.06626945734024048,-0.7806344623613672,0.6049339588828672,-0.056256090455048445,0.14662905387936975,-1.2904589446351435,-0.3296739198522199,-0.6204622358606905
1773063092900103680,1.3744795322418213,-2.2918431758880615,-3.2538042068481445,-0.8274993300437927,-0.10535535216331482,0.9657424092292786,-0.23715397715568542,0.017663083970546722,0.1276261806488037,0.08497804403305054,-0.7740854960799557,0.6161153396326653,-0.04271887183053924,0.13917156383239887,-1.3082891729475523,-0.4180608907935361,-0.6782580124650525
1773063092910140416,1.3845164775848389,-2.2821848392486572,-3.163356065750122,-0.7610997557640076,-0.12040558457374573,0.9699573516845703,-0.21138863265514374,0.07278291881084442,0.020765304565429688,0.11213023960590363,-0.7670088293178848,0.6272509940626917,-0.02935768728246363,0.13187766869133588,-1.3250554237737129,-0.5177616426140556,-0.7480233157903469
1773063092920176384,1.39455246925354,-2.0972936153411865,-3.0467989444732666,-0.7393138408660889,-0.1338842213153839,0.9733638167381287,-0.1861134022474289,0.12263844907283783,-0.03786259889602661,0.1600513905286789,-0.7599519874608773,0.6377080189991137,-0.01648569258700033,0.1246188544912506,-1.3394728053738498,-0.6236073565002499,-0.8248410439220834
1773063092930212608,1.4045884609222412,-1.708184838294983,-2.95121693611145,-0.9015772938728333,-0.14707717299461365,0.9755368232727051,-0.1633903831243515,0.15200573205947876,0.03155863285064697,0.1969597190618515,-0.7535135207187141,0.6467545993011258,-0.0036461721285062417,0.11795204563894875,-1.3491498524283791,-0.7329024272022645,-0.9061463598176387
1773063092940248576,1.4146244525909424,-1.5635604858398438,-2.7674033641815186,-1.0478489398956299,-0.16118279099464417,0.9764695763587952,-0.14327360689640045,0.13693657517433167,0.11844009160995483,0.19356656074523926,-0.7476739399292421,0.6544262480571346,0.009459337559501006,0.11234099493474636,-1.3534334782926023,-0.8441539144273426,-0.9906450317668206
1773063092950285312,1.42466139793396,-1.6593338251113892,-2.5182347297668457,-1.0801376104354858,-0.175211101770401,0.9767873883247375,-0.12323695421218872,0.08696955442428589,0.12800991535186768,0.17359095811843872,-0.7416253795418376,0.6617388416487325,0.021982483232224525,0.10775064152898436,-1.3549121983070804,-0.9578170943092588,-1.0798974412785838
1773063092960321536,1.4346973896026611,-1.8020062446594238,-2.322549343109131,-1.1279001235961914,-0.18877875804901123,0.9767190217971802,-0.10189454257488251,0.04761973023414612,0.08950406312942505,0.2377130389213562,-0.7349311860285672,0.6692664096633031,0.033692772604423014,0.10403557035174628,-1.3545932729474535,-1.075851710788585,-1.1759573400249717
1773063092970357504,1.4447333812713623,-1.849505066871643,-2.19368314743042,-1.2088074684143066,-0.20237191021442413,0.9760624766349792,-0.07967155426740646,0.05199657380580902,0.022091150283813477,0.24608391523361206,-0.7277464614955441,0.6768590757553937,0.045011271062327635,0.10109809651659898,-1.351553866822479,-1.1957424610277028,-1.2755613706552078
1773063092980394496,1.454770565032959,-1.705736517906189,-2.1283538341522217,-1.2719374895095825,-0.21608351171016693,0.9746631979942322,-0.0577884167432785,0.09305189549922943,-0.06729936599731445,0.2100253701210022,-0.7205205615921071,0.6840642314365348,0.056230934581533026,0.098713263382135,-1.3452103755717524,-1.309476213803063,-1.3699487193842614
1773063092990430720,1.4648065567016602,-1.44398832321167,-2.036905527114868,-1.3309571743011475,-0.22981509566307068,0.9725037813186646,-0.037699680775403976,0.14776863157749176,-0.0887606143951416,0.16826915740966797,-0.7137901491281032,0.6903633385771311,0.06744346342848767,0.09671293931720797,-1.3357510142211124,-1.4082009686941181,-1.4498847827473438
1773063093000466688,1.4748425483703613,-1.0665247440338135,-1.9801220893859863,-1.4504915475845337,-0.24392950534820557,0.9695714116096497,-0.02072269842028618,0.18850962817668915,-0.007810056209564209,0.14683657884597778,-0.7080280913795847,0.6952905944932364,0.07880126816284488,0.09517062376435384,-1.323473996335224,-1.486046181612946,-1.509374614113121
1773063093010502656,1.4848785400390625,-0.7913869023323059,-1.9390915632247925,-1.5845966339111328,-0.25902292132377625,0.9658465385437012,-0.0068831490352749825,0.19417309761047363,0.07707631587982178,0.06315755844116211,-0.7032688549240222,0.6988133634585698,0.09065488658639193,0.09409765280138536,-1.3086907125513616,-1.5442290642508378,-1.549139987748728
1773063093020539648,1.49491548538208,-0.693949818611145,-1.8099772930145264,-1.6030192375183105,-0.27452266216278076,0.9615663886070251,0.00523735536262393,0.17355522513389587,0.09928566217422485,-0.015460729598999023,-0.6990267146541409,0.7015035509409068,0.10252534222961976,0.09350397553064878,-1.2926512053159187,-1.5898720581559116,-1.576989449124709
1773063093030575616,1.5049514770507812,-0.7390571236610413,-1.7337889671325684,-1.630953311920166,-0.28987812995910645,0.9569151401519775,0.016850566491484642,0.13509300351142883,0.08281868696212769,0.005701897665858269,-0.6948910402627382,0.7038519040804456,0.11409548864804446,0.09327974514266643,-1.2761853257650726,-1.6288608179165516,-1.5990995136273387
1773063093040611584,1.5149874687194824,-1.0919619798660278,-1.631118893623352,-1.6380640268325806,-0.30514219403266907,0.9518141746520996,0.03062944859266281,0.10230711102485657,0.03938150405883789,0.06743884086608887,-0.6898752035317214,0.7068387009062842,0.12527479994762816,0.09358163038312876,-1.259098123222318,-1.6708388535351144,-1.625464161867605
1773063093050648576,1.5250244140625,-1.2588002681732178,-1.6707136631011963,-1.6585743427276611,-0.32023885846138,0.946171224117279,0.04697803407907486,0.07879909873008728,-0.002186298370361328,0.17821121215820312,-0.6838384441732989,0.7105803339241978,0.1362519921875797,0.09421184764831358,-1.241194198392324,-1.7164542511419791,-1.6561747769652904
1773063093060684544,1.5350604057312012,-1.6121904850006104,-1.7168086767196655,-1.6016491651535034,-0.3347567021846771,0.9399877786636353,0.06603603065013885,0.08419215679168701,0.0032799243927001953,0.22122597694396973,-0.6767618840708873,0.7150834320689528,0.14721990978760105,0.09473793344551767,-1.2225945527848692,-1.7655614281334824,-1.6901836179549241
1773063093070720512,1.5450963973999023,-1.6654465198516846,-1.8147318363189697,-1.642385482788086,-0.34856706857681274,0.9331701993942261,0.08771755546331406,0.11275774240493774,0.008541226387023926,0.15575170516967773,-0.6686484084004771,0.7203070019722648,0.15816637007531303,0.09513422648312522,-1.2031341508489874,-1.8173290787444143,-1.7266293678464457
1773063093080756480,1.5551323890686035,-1.6774123907089233,-1.9223195314407349,-1.6814366579055786,-0.36224690079689026,0.9255831837654114,0.10987676680088043,0.15237754583358765,0.07791107892990112,0.10293757915496826,-0.6602924414575135,0.7253660768201549,0.16965387281507582,0.09526539411529907,-1.182573314919174,-1.8652962815048026,-1.7580301140135335
1773063093090793728,1.5651695728302002,-1.7326862812042236,-1.9884082078933716,-1.738250494003296,-0.3757045269012451,0.917172908782959,0.13281524181365967,0.17463946342468262,0.10817188024520874,-0.09829986095428467,-0.6515524360167563,0.730375606334864,0.18154639467610525,0.09524588785141212,-1.1609270336026662,-1.9105944969415865,-1.7858577827116262
1773063093100829696,1.5752055644989014,-1.7323288917541504,-1.9835333824157715,-1.7482136487960815,-0.3887651562690735,0.9079568386077881,0.15644767880439758,0.16113457083702087,0.07356470823287964,-0.1753533035516739,-0.6424181793431949,0.7353697799271568,0.19353327348858781,0.09526266039956612,-1.138382482446877,-1.9533889633370012,-1.810980283015703
1773063093110865664,1.5852415561676025,-1.6228537559509277,-2.0517964363098145,-1.794726014137268,-0.40143367648124695,0.8981359004974365,0.17945165932178497,0.13214659690856934,0.07026314735412598,-0.15139080584049225,-0.633425369332027,0.7398510760893623,0.20578196199139087,0.0951128264649809,-1.1155116206740125,-1.991175083657419,-1.8303473181937862
1773063093120902656,1.5952785015106201,-1.599015235900879,-2.040574073791504,-1.8113662004470825,-0.4136803150177002,0.8876514434814453,0.20234470069408417,0.13285762071609497,0.006223618984222412,-0.18331696093082428,-0.6243548023701992,0.7440226193267436,0.2181804065883189,0.09491402189798513,-1.092219967047143,-2.025712595713513,-1.8460332535652832
1773063093130938624,1.6053144931793213,-1.3521865606307983,-2.0650811195373535,-1.7752050161361694,-0.42522791028022766,0.8769015073776245,0.22410956025123596,0.15941977500915527,-0.03653895854949951,-0.20050418376922607,-0.6156416633444418,0.7475821991375267,0.23059843496490234,0.09450190778491588,-1.069377616615453,-2.055836517411017,-1.8568273051282511
1773063093140975872,1.615351915359497,-1.1152880191802979,-2.03497314453125,-1.6143367290496826,-0.4352448284626007,0.8666934370994568,0.24373075366020203,0.1976197063922882,-0.0024813413619995117,-0.16122651100158691,-0.6077850906569081,0.7503077981146369,0.2427006106743745,0.09344511504079801,-1.048535119874694,-2.081273552912792,-1.8623505429539189
1773063093151011840,1.6253879070281982,-0.8234087228775024,-1.9621269702911377,-1.5841041803359985,-0.44394651055336,0.85721755027771,0.26093968749046326,0.23802918195724487,-0.027658283710479736,-0.19302287697792053,-0.6008950943735113,0.7521980893031659,0.25429878803608363,0.09195232153551575,-1.0298418422403859,-2.1021767157012263,-1.8633548739180295
1773063093161048832,1.6354248523712158,-0.6293550133705139,-1.8752714395523071,-1.599014163017273,-0.4524246156215668,0.8481045961380005,0.2757367491722107,0.2476668655872345,-0.04485136270523071,-0.11937984824180603,-0.5949409815310404,0.7531560203156984,0.26575247344232206,0.09042651445961668,-1.0123976481624077,-2.1181459536933813,-1.8594889552060514
1773063093171084800,1.645460844039917,-0.4141089916229248,-1.819892406463623,-1.5544734001159668,-0.46058690547943115,0.8393917679786682,0.2885851263999939,0.21717867255210876,-0.06122404336929321,-0.05819261074066162,-0.5897565255578578,0.7533732030296818,0.27698624552663564,0.0888523866160084,-0.9961631687811566,-2.1305163335639734,-1.852184707302647
1773063093181120768,1.6554968357086182,-0.26827046275138855,-1.7444047927856445,-1.5134645700454712,-0.46815550327301025,0.8312768340110779,0.29968151450157166,0.17761299014091492,-0.051415443420410156,-0.006758630275726318,-0.5852976247143092,0.7529706938106,0.2878817396718035,0.08709668206784271,-0.9814007924880328,-2.1402034742896014,-1.8423580650403186
1773063093191158016,1.6655340194702148,-0.23705127835273743,-1.6406198740005493,-1.5115060806274414,-0.47551655769348145,0.8233532905578613,0.30979546904563904,0.17774131894111633,-0.031727373600006104,0.025653690099716187,-0.5811997027018752,0.7522209273258774,0.2984315861825473,0.08549340053783153,-0.9672945317877306,-2.1482200490101024,-1.831507857882476
1773063093201193984,1.675570011138916,-0.17517726123332977,-1.544561743736267,-1.5031781196594238,-0.48288843035697937,0.8154309391975403,0.31920352578163147,0.18798190355300903,-0.033799588680267334,0.04772454500198364,-0.5773305270660101,0.7512181376274419,0.30866336507857683,0.08418784143160812,-0.9534732441060125,-2.1548861547973157,-1.8201219703434668
1773063093211229952,1.6856060028076172,-0.05396481975913048,-1.443762183189392,-1.44972562789917,-0.4900990426540375,0.8078315854072571,0.3274303078651428,0.18910431861877441,-0.011750221252441406,0.08895137906074524,-0.573927801991167,0.7498449900330277,0.31850846981922165,0.08301535645243803,-0.9404638481715089,-2.1597837350644937,-1.8076763761685641
1773063093221265920,1.6956419944763184,0.13789403438568115,-1.3092728853225708,-1.3877313137054443,-0.4969576299190521,0.8009474873542786,0.33394038677215576,0.216028094291687,-0.00407254695892334,0.10221680998802185,-0.5712546099376906,0.7480058939001986,0.3278069257261612,0.08184106065177839,-0.9288760468750495,-2.1624611818805635,-1.7938093686362966
1773063093231302912,1.705678939819336,0.2907634675502777,-1.150639295578003,-1.326423168182373,-0.5036914348602295,0.7948887348175049,0.33830028772354126,0.2593371868133545,-0.002515077590942383,0.12039422988891602,-0.5695011599278532,0.7455892256394857,0.3365216865710805,0.08073646664524729,-0.9188241454768286,-2.162235401569224,-1.7780321212702035
1773063093241338880,1.715714931488037,0.392174631357193,-0.9811880588531494,-1.2485164403915405,-0.5102554559707642,0.7895124554634094,0.34104225039482117,0.2767958641052246,-0.016212165355682373,0.08422020077705383,-0.5684236561016748,0.7428600225603205,0.3444998089201611,0.07983452603904184,-0.9100142118286676,-2.1599810762935707,-1.7616589605688
1773063093251374848,1.7257509231567383,0.4819663166999817,-0.8071131706237793,-1.225371241569519,-0.5169602632522583,0.7846648693084717,0.34213030338287354,0.2495805025100708,-0.04702448844909668,0.09324872493743896,-0.5680268200264292,0.7397805720719168,0.3518378235586669,0.07924891770461734,-0.9021553534574254,-2.1554301961669107,-1.7444503052912406
1773063093261411840,1.7357878684997559,0.5833459496498108,-0.6275795102119446,-1.191732406616211,-0.523987889289856,0.7801389694213867,0.34178900718688965,0.21481436491012573,-0.074740469455719,0.14786550402641296,-0.5681951602392706,0.7364329903688183,0.35855397787070775,0.07911826285280883,-0.8948879488982259,-2.1487756384577614,-1.7267757807420607
1773063093271447808,1.745823860168457,0.7120168209075928,-0.4637003242969513,-1.2037253379821777,-0.531424343585968,0.7760595083236694,0.3395880162715912,0.17915987968444824,-0.08475995063781738,0.1855737268924713,-0.5691340482668097,0.7326293630316486,0.3647577566783563,0.0793253996835016,-0.8883933827558523,-2.139410261633847,-1.7077102621993316
1773063093281483776,1.7558598518371582,0.7666060924530029,-0.3177109658718109,-1.2079566717147827,-0.5395166277885437,0.7720723152160645,0.33589625358581543,0.15485775470733643,-0.0423969030380249,0.22486427426338196,-0.5706607638703506,0.7284202078443133,0.3706104746230436,0.07998879127811015,-0.8820954381816422,-2.127658855072664,-1.687480063353702
1773063093291520000,1.7658958435058594,0.8583940863609314,-0.25135964155197144,-1.1630967855453491,-0.5477612018585205,0.7683293223381042,0.3311007618904114,0.1335461139678955,0.022915184497833252,0.22399866580963135,-0.5726389269024125,0.7239557596587468,0.376083027613372,0.08083478914777058,-0.8762268231229716,-2.1144901846952835,-1.6667044959903037
1773063093301556992,1.775933027267456,0.7885602116584778,-0.19265036284923553,-1.0855662822723389,-0.5556492805480957,0.7648578882217407,0.32595470547676086,0.1124272346496582,0.04475826025009155,0.23681998252868652,-0.5747600300014342,0.719538911489623,0.3811051222732092,0.08169209828308387,-0.8708206531091524,-2.101319152703907,-1.6466525865608381
1773063093311592960,1.7859690189361572,0.724503755569458,-0.12626947462558746,-1.0896276235580444,-0.5634303092956543,0.7612209916114807,0.3210747539997101,0.1046290397644043,0.007593035697937012,0.2574927806854248,-0.5767224087142603,0.7153345176052377,0.38578997894782247,0.0827884284995528,-0.8651938679905032,-2.0887570008949123,-1.6280600223449029
1773063093321628928,1.7960050106048584,0.5967857241630554,-0.08757960796356201,-1.116253137588501,-0.5715085864067078,0.7570542097091675,0.31661808490753174,0.08589756488800049,0.009364187717437744,0.29428279399871826,-0.5784278159854427,0.7113137337812901,0.39030989503852026,0.08433434727148058,-0.8587925707188963,-2.076708502943719,-1.6108451960368626
1773063093331665920,1.806041955947876,0.4980607330799103,-0.1117352768778801,-1.0934826135635376,-0.5796124935150146,0.7523677945137024,0.3130375146865845,0.0611187219619751,0.032101988792419434,0.2644161880016327,-0.579707042252404,0.7075845801145904,0.3947693304843019,0.08614614574400294,-0.8516491824554362,-2.0659920754099934,-1.5953822604018355
1773063093341701888,1.8160779476165771,0.3386895954608917,-0.12637794017791748,-1.0320020914077759,-0.5872368812561035,0.747469961643219,0.3105507791042328,0.05537647008895874,0.04217243194580078,0.2141684591770172,-0.5805039831052836,0.704289930056918,0.3990627661182775,0.08797643738817876,-0.8442452957719352,-2.0572441180125196,-1.5821293498485343
1773063093351737856,1.8261139392852783,0.1783744841814041,-0.13354237377643585,-0.9775152206420898,-0.5943007469177246,0.7423238754272461,0.3094538748264313,0.06376796960830688,0.00946134328842163,0.15966233611106873,-0.5806778218107794,0.7016081082344693,0.40307940274583104,0.08992355055900739,-0.8365319826720976,-2.0508684516119198,-1.5718117347522955
1773063093361774080,1.8361499309539795,0.07229498028755188,-0.10935204476118088,-0.9918398261070251,-0.6012114882469177,0.7368091940879822,0.3092845678329468,0.061386048793792725,-0.04816484451293945,0.09888803958892822,-0.5804065914744323,0.6993211659995042,0.4069302047471147,0.09211900329282813,-0.828338754214559,-2.0459255828926106,-1.5635074192445615
1773063093371810816,1.846186876296997,0.061256177723407745,-0.12480397522449493,-0.9796150922775269,-0.6081491708755493,0.7310050129890442,0.30949392914772034,0.02923065423965454,-0.07300019264221191,0.08290114998817444,-0.5799410437250851,0.697143209339599,0.41077769499370087,0.09445367488839942,-0.8197935875359625,-2.0415474764216275,-1.5559362977116502
1773063093381846784,1.8562228679656982,-0.01632603071630001,-0.13048239052295685,-0.943922221660614,-0.6147549748420715,0.7252098917961121,0.3100758194923401,-0.006186187267303467,-0.07042473554611206,0.08213615417480469,-0.5793129364809297,0.6951414052412096,0.4145073374954674,0.09674007146602605,-0.8113391675651487,-2.037949176127178,-1.5492420521290369
1773063093391883008,1.8662588596343994,-0.08447925001382828,-0.1284773051738739,-0.9409881830215454,-0.6211684346199036,0.7191896438598633,0.3113139867782593,-0.02391231060028076,-0.06864631175994873,0.1106221079826355,-0.5783729572845762,0.6934067467677669,0.4181436072339107,0.09913553538761097,-0.8026353168343414,-2.0353833766077907,-1.5438528238105318
1773063093401919744,1.876295804977417,-0.02588418312370777,-0.165557861328125,-0.8725680112838745,-0.62726229429245,0.7133002877235413,0.3126414120197296,-0.03992825746536255,-0.06452715396881104,0.18152976036071777,-0.577407565398208,0.6917243343810651,0.42170861200404103,0.1013892216662533,-0.794195952178449,-2.0331808686921136,-1.5387225256357349
1773063093411955712,1.8863317966461182,-0.010324130766093731,-0.10890975594520569,-0.7452235817909241,-0.6325843930244446,0.7081641554832458,0.3135928809642792,-0.06289595365524292,-0.07378000020980835,0.19757652282714844,-0.576665852709448,0.6900960973639586,0.424928016463219,0.10324751695724868,-0.7868946767142301,-2.0310244336288217,-1.5336590673838093
1773063093421991936,1.8963680267333984,0.00674073863774538,-0.07484321296215057,-0.5883938074111938,-0.6370237469673157,0.7039703130722046,0.3140488862991333,-0.0731203556060791,-0.10478818416595459,0.1639174520969391,-0.5761611950029741,0.6887577307979906,0.42736076711449766,0.10494719150848573,-0.7809723310508132,-2.0288234221121555,-1.5296744332695342
1773063093432028160,1.9064040184020996,-0.0034194872714579105,-0.19401034712791443,-0.755679726600647,-0.6412459015846252,0.6997187733650208,0.31495603919029236,-0.07137000560760498,-0.08659017086029053,0.15515193343162537,-0.5755135225489553,0.6873742409431025,0.43011007255890066,0.10633042807687204,-0.7750037650302292,-2.0273490916456685,-1.5253997851996197
1773063093442064896,1.9164409637451172,-0.09422595053911209,-0.153995081782341,-0.7750502824783325,-0.6460842490196228,0.6945759654045105,0.31644827127456665,-0.0599551796913147,-0.054423987865448,0.11764907836914062,-0.5745485380766161,0.6859206467277205,0.4332862775384924,0.1080272562800091,-0.7678303050424233,-2.0262459467350102,-1.5211721361816595
1773063093452101120,1.9264769554138184,-0.15518252551555634,-0.11355231702327728,-0.7329009771347046,-0.6508857011795044,0.6892668604850769,0.3182125687599182,-0.08852475881576538,-0.0657164454460144,0.11153605580329895,-0.5733978424417326,0.6847402340169841,0.4361617799320972,0.11003973811411298,-0.7604766909055581,-2.025517804662527,-1.518261837380645
1773063093462137088,1.9365129470825195,-0.22792290151119232,-0.1381317675113678,-0.732024610042572,-0.6555157899856567,0.6838939785957336,0.32029375433921814,-0.11616688966751099,-0.06983453035354614,0.09799537062644958,-0.5720868295575621,0.6837364102905196,0.43892071897689744,0.11211503290445292,-0.7530866389934495,-2.0252931776630345,-1.516122028449334
1773063093472173824,1.946549892425537,-0.3545796573162079,-0.1706273853778839,-0.7378507852554321,-0.6600379943847656,0.6781034469604492,0.3233046233654022,-0.09487539529800415,-0.07419103384017944,0.05547955632209778,-0.5703257904213166,0.6830490603700762,0.44169706393647984,0.11435162134249967,-0.7451790807783684,-2.0262727126141518,-1.51534311468611
1773063093482210048,1.9565858840942383,-0.3934677243232727,-0.19523809850215912,-0.7284194827079773,-0.664397656917572,0.6719595789909363,0.3271791636943817,-0.06816160678863525,-0.05434483289718628,0.0464475154876709,-0.568153792768313,0.682635100961049,0.4445209730784916,0.11666927231478552,-0.7368515828674529,-2.0283815200963864,-1.515683543278545
1773063093492246016,1.9666218757629395,-0.28358036279678345,-0.1994440257549286,-0.7430064082145691,-0.6686502695083618,0.665966272354126,0.3307507336139679,-0.04095977544784546,0.014423131942749023,0.05650210380554199,-0.5661302910254895,0.6820793585347102,0.4473735706821908,0.11883278568973073,-0.728788378227721,-2.0301582496747677,-1.515414088173862
1773063093502281984,1.9766578674316406,-0.29818010330200195,-0.18238061666488647,-0.7809412479400635,-0.6730838418006897,0.6598901152610779,0.3339211344718933,-0.029476642608642578,0.03337770700454712,0.027635931968688965,-0.5642736343504415,0.681277119192075,0.4503576940361282,0.1209741732214863,-0.7206725273262562,-2.0313241374564113,-1.5142642103098405
1773063093512318976,1.9866948127746582,-0.42918312549591064,-0.15847209095954895,-0.8526639342308044,-0.6778708696365356,0.6531829833984375,0.33740633726119995,-0.049454569816589355,0.014999330043792725,-0.016895443201065063,-0.5621786323012805,0.6805406012062176,0.4533956968530633,0.1234989511110254,-0.7117804767705866,-2.0326377311790442,-1.5136799697668482
1773063093522354944,1.9967308044433594,-0.5360151529312134,-0.15436196327209473,-0.9093102812767029,-0.6831077337265015,0.645458996295929,0.3416817784309387,-0.06648021936416626,0.021868884563446045,0.033867597579956055,-0.5595870367138133,0.6799986278005992,0.4565553127474161,0.1265759119755073,-0.7016241088804639,-2.0345937033538304,-1.514257833780335
1773063093532390912,2.0067667961120605,-0.5751191973686218,-0.1331043541431427,-0.9035011529922485,-0.6884381771087646,0.6372745633125305,0.3463148772716522,-0.06879448890686035,0.019082248210906982,0.05398416519165039,-0.5567488307417903,0.6795750487075826,0.4597120733568542,0.12989725927431278,-0.6909564520245707,-2.0368763700046393,-1.51547759860737
1773063093542427904,2.0168039798736572,-0.5043087005615234,-0.07281537353992462,-0.9214757680892944,-0.6938523650169373,0.6290811896324158,0.35046499967575073,-0.05785655975341797,0.004250049591064453,0.042113155126571655,-0.5540601854785422,0.6790715976441909,0.4627032069891384,0.1333596696825175,-0.6803706356559988,-2.0385157783706664,-1.5165412548459154
1773063093552464128,2.0268399715423584,-0.47900739312171936,-0.022469380870461464,-1.0125821828842163,-0.6997255086898804,0.6206193566322327,0.3538583517074585,-0.037609636783599854,0.02378976345062256,0.034599870443344116,-0.551639660614916,0.6781936231040253,0.46581389719677235,0.13698348965368995,-0.6695323613275619,-2.0390016911024254,-1.5164688565065156
1773063093562500096,2.0368759632110596,-0.561241865158081,-0.02541486918926239,-1.0950955152511597,-0.7061761021614075,0.6113399267196655,0.35718202590942383,-0.03433293104171753,0.07748758792877197,-0.013081073760986328,-0.5490988545670555,0.6771794253179457,0.4690618742312707,0.14106560706001753,-0.6577526264383006,-2.039071071969251,-1.5163610953163495
1773063093572536064,2.0469119548797607,-0.6495325565338135,-0.1288222223520279,-1.1677974462509155,-0.7128182649612427,0.6010558605194092,0.3614167273044586,-0.035182833671569824,0.13736271858215332,0.0008116960525512695,-0.5460412834176122,0.676214231419176,0.47269723693894605,0.1453635943314382,-0.6448215565137169,-2.040048177885985,-1.5167070237946745
1773063093582573056,2.0569489002227783,-0.7958075404167175,-0.2536308765411377,-1.178037166595459,-0.719131350517273,0.5900077223777771,0.3670710027217865,-0.015442073345184326,0.15605556964874268,-0.014760822057723999,-0.5422904185663351,0.675511314209093,0.47667596047889943,0.14961832866048375,-0.6310683845164673,-2.042758366314706,-1.5180126386209316
1773063093592609024,2.0669848918914795,-1.1359553337097168,-0.3061380386352539,-1.162964105606079,-0.7249468564987183,0.5779716968536377,0.3747013211250305,0.010301411151885986,0.08021622896194458,-0.057364195585250854,-0.5374893862439587,0.6754950318293286,0.48068401672295874,0.15412530009134226,-0.6162409876148931,-2.047846537239546,-1.5218786297045928
1773063093602644992,2.0770208835601807,-1.4560638666152954,-0.3558720648288727,-1.163400650024414,-0.7303566932678223,0.5644824504852295,0.384628027677536,0.023844242095947266,-0.019804716110229492,-0.0758969783782959,-0.5313256996251767,0.6764617802623352,0.48447237065738064,0.15930793375229121,-0.5998061514514387,-2.055520584201217,-1.5295451998669414
1773063093612681984,2.0870578289031982,-1.5564608573913574,-0.4054233729839325,-1.1625499725341797,-0.7353622913360596,0.5499706864356995,0.39594748616218567,0.016825973987579346,-0.05758488178253174,-0.06582358479499817,-0.5242801833205596,0.6779556986961018,0.4882108217627179,0.16479230270007725,-0.5823291612966806,-2.0647199502820546,-1.5391343736344194
1773063093622717952,2.0970938205718994,-1.4207652807235718,-0.41677939891815186,-1.1484718322753906,-0.7400074601173401,0.5353432297706604,0.4071812927722931,0.008211195468902588,-0.0521431565284729,-0.0896916389465332,-0.5171744163238244,0.679388240329368,0.4919575913929124,0.17011751809155867,-0.5649140532531167,-2.073823375826703,-1.548319274461731
1773063093632753920,2.1071298122406006,-1.2362220287322998,-0.37438639998435974,-1.1200343370437622,-0.744358241558075,0.5214332938194275,0.41717883944511414,0.008793056011199951,-0.01806110143661499,-0.14152884483337402,-0.5106912846497158,0.6803314749596056,0.495720194148735,0.1749428700388238,-0.5485297999173652,-2.081630499894113,-1.555457304736549
1773063093642790912,2.1171669960021973,-1.2673982381820679,-0.31060492992401123,-1.106216549873352,-0.7486563920974731,0.5078781843185425,0.4261142909526825,0.0047446489334106445,0.03205406665802002,-0.19588971138000488,-0.5046273613336913,0.6810187742669073,0.49927004792936247,0.17970556743461327,-0.5327198794403777,-2.088239732034858,-1.5616965806070082
1773063093652827136,2.1272029876708984,-1.3538446426391602,-0.34756481647491455,-1.138126015663147,-0.7529059648513794,0.4937511384487152,0.43513473868370056,-0.00432664155960083,0.0642474889755249,-0.14909353852272034,-0.498305288113665,0.6817938129942558,0.5027171778893792,0.18472790612746295,-0.516398120727695,-2.0948375542754554,-1.5684209945108643
1773063093662863104,2.1372389793395996,-1.4512407779693604,-0.366668701171875,-1.116807222366333,-0.7568351626396179,0.47896161675453186,0.44474294781684875,-0.003922224044799805,0.07401689887046814,-0.10253408551216125,-0.49150854837149616,0.6827622653660803,0.5061691061071804,0.18986279638900277,-0.4994714393010046,-2.1020744008167336,-1.5758364531740516
1773063093672899072,2.147274971008301,-1.393090844154358,-0.39861199259757996,-1.0725516080856323,-0.7602541446685791,0.4641924798488617,0.4544653296470642,-0.0009914636611938477,0.024226009845733643,-0.08463817834854126,-0.48456247804326075,0.6838534583900577,0.509487107565991,0.19484984366959626,-0.48272270483393726,-2.109582461614588,-1.5834912521243452
1773063093682936064,2.1573119163513184,-1.3068745136260986,-0.3044506311416626,-1.030465006828308,-0.7634497880935669,0.44992533326148987,0.46337002515792847,0.005240440368652344,-0.05530250072479248,-0.05350369215011597,-0.47797533926821184,0.6847648774844487,0.5126227471478723,0.19963619647573277,-0.46668173579301303,-2.1163049004287178,-1.5904098997956657
1773063093692972032,2.1673479080200195,-1.0713967084884644,-0.3134787678718567,-1.0571999549865723,-0.7666801810264587,0.43628382682800293,0.4710181951522827,-2.8312206268310547e-05,-0.09274736046791077,-0.03919440507888794,-0.47200794374466604,0.6852577359239581,0.5156849179974028,0.20420450073493504,-0.4514645614928906,-2.1217083248984636,-1.595865695412349
1773063093703008000,2.1773838996887207,-0.726154625415802,-0.41229531168937683,-1.0962467193603516,-0.7696138620376587,0.42367640137672424,0.4776955246925354,-0.015008330345153809,-0.04721155762672424,-0.008548736572265625,-0.4668610776278559,0.6849381926008941,0.5193336471492215,0.2078293554884506,-0.437500169866443,-2.126293972532526,-1.5980312728295043
1773063093713044992,2.1874208450317383,-0.46734702587127686,-0.48892882466316223,-1.1123093366622925,-0.7720685601234436,0.4122811257839203,0.48366764187812805,-0.014445662498474121,0.045421451330184937,-0.10907962918281555,-0.4624941853745662,0.683892106115061,0.5235698709350951,0.21039322552827136,-0.42495648459393914,-2.1304425770412054,-1.597084705296539
1773063093723080960,2.1974568367004395,-0.40987586975097656,-0.5430120229721069,-1.0767103433609009,-0.7740331888198853,0.4017178416252136,0.48938268423080444,0.008301377296447754,0.11250334978103638,-0.17567729949951172,-0.4585325368843748,0.682509414956682,0.5280835551889903,0.21226536934424708,-0.4133919371909992,-2.1345923195749794,-1.5945507377816206
1773063093733116928,2.2074928283691406,-0.7189274430274963,-0.5753470063209534,-1.028558611869812,-0.7754265666007996,0.39086276292800903,0.4959230422973633,0.02116948366165161,0.1258608102798462,-0.17213162779808044,-0.45405020201573243,0.6815606954243735,0.5323875796634182,0.21418868174659214,-0.4015687262924097,-2.1397892823805025,-1.593399774448527
1773063093743152896,2.217528820037842,-1.186207890510559,-0.5736958384513855,-1.0127089023590088,-0.7764860391616821,0.37811779975891113,0.5040797591209412,0.001064896583557129,0.038325101137161255,-0.10764122009277344,-0.4481400286838481,0.6816048928529704,0.5361479760019936,0.21709592481632353,-0.3877622947099209,-2.1465953931097084,-1.5961099144525508
1773063093753190144,2.2275660037994385,-1.4541953802108765,-0.5352755188941956,-0.9933428764343262,-0.7773776054382324,0.36342117190361023,0.5134287476539612,-0.03164339065551758,-0.07313799858093262,0.0039052367210388184,-0.44093151665897234,0.6825033899388494,0.5393546985893182,0.22105429263802065,-0.3719375328609054,-2.154491427786572,-1.6023075203107682
1773063093763226112,2.2376019954681396,-1.4586117267608643,-0.39884963631629944,-0.9858065247535706,-0.7784472107887268,0.34807097911834717,0.5223662853240967,-0.0684918761253357,-0.13867464661598206,0.09984135627746582,-0.4335043657322854,0.6835785352455952,0.5421286993911889,0.22558994596170703,-0.35551263579971787,-2.161817917667635,-1.609570958133402
1773063093773262080,2.247637987136841,-1.16146981716156,-0.2300262600183487,-0.9984525442123413,-0.7802271246910095,0.33333030343055725,0.5292789936065674,-0.10264629125595093,-0.13795682787895203,0.14757025241851807,-0.42698379702930056,0.6841105482162605,0.5446395655041131,0.230315560780755,-0.3398336974503515,-2.1668542916104085,-1.6154702344940535
1773063093783299072,2.2576749324798584,-0.7578282952308655,-0.1772659868001938,-1.0643551349639893,-0.782514750957489,0.3201410174369812,0.5340225100517273,-0.13112038373947144,-0.04873299598693848,0.10184156894683838,-0.4219423862718598,0.6835506004780356,0.5475124118093458,0.23442109941180175,-0.32587833773262215,-2.1696423382015837,-1.617668846531291
1773063093793335040,2.2677109241485596,-0.3826914429664612,-0.1520993709564209,-1.0859416723251343,-0.7850615978240967,0.3085835576057434,0.5370797514915466,-0.15310990810394287,0.08359786868095398,0.00941377878189087,-0.41825806455911313,0.6819924806806071,0.5508412962069252,0.23774012423828358,-0.31370355251748067,-2.1707878485600873,-1.6163001947339264
1773063093803371008,2.2777469158172607,0.019862733781337738,-0.2336040586233139,-1.0852408409118652,-0.7873610854148865,0.2990684509277344,0.539092481136322,-0.14432531595230103,0.17216873168945312,0.052094101905822754,-0.41584448632322474,0.679557294329548,0.5547504962356469,0.23984823538328476,-0.3037162769311106,-2.171168022170429,-1.6113118122536692
1773063093813408000,2.2877838611602783,0.07500827312469482,-0.30811771750450134,-1.0452771186828613,-0.789012610912323,0.29102587699890137,0.5410759449005127,-0.0987589955329895,0.17862436175346375,0.0798804759979248,-0.41402544924850526,0.6767681158032934,0.5590374584943992,0.24092532181072915,-0.29529896468886146,-2.171903441145135,-1.604376040803779
1773063093823443968,2.2978198528289795,-0.14454998075962067,-0.3057529628276825,-1.0397541522979736,-0.7903056144714355,0.282684862613678,0.5436049103736877,-0.07235002517700195,0.08192393183708191,0.07469642162322998,-0.41181802315177063,0.6742691081396696,0.5631728190517499,0.242081525850341,-0.2865919957845347,-2.173315446839822,-1.5984105911966235
1773063093833479936,2.3078558444976807,-0.45354244112968445,-0.3049961030483246,-1.0892486572265625,-0.7915995717048645,0.2726132869720459,0.5468567609786987,-0.08094388246536255,-0.00976535677909851,0.12160032987594604,-0.40864888244974007,0.6722401474750803,0.5670287261760487,0.24408559812635222,-0.27610814682868406,-2.175337994191155,-1.5946720204405576
1773063093843515904,2.317891836166382,-0.6739194989204407,-0.29127293825149536,-1.0842963457107544,-0.7928532361984253,0.26076045632362366,0.5508061647415161,-0.11679935455322266,-0.03245845437049866,0.11426335573196411,-0.4044980282063758,0.670673633687184,0.5706136689501375,0.24693754594900844,-0.2638098173843735,-2.1779657712937106,-1.593133457384375
1773063093853553152,2.3279290199279785,-0.7305161952972412,-0.26713165640830994,-1.0264497995376587,-0.7940043807029724,0.24845397472381592,0.5548222064971924,-0.1509571671485901,-0.007960185408592224,0.09154009819030762,-0.4000091253638545,0.6694280151077775,0.5738268471017961,0.250163142850507,-0.2510838552940101,-2.1806927507369505,-1.592922810727478
1773063093863589120,2.3379650115966797,-0.8253709673881531,-0.30079901218414307,-1.0968338251113892,-0.7949832677841187,0.23574136197566986,0.5589526295661926,-0.1504514217376709,0.03366786241531372,0.062400639057159424,-0.395275735766922,0.6682733156707756,0.5769636698347864,0.2535368415849067,-0.23798135815883448,-2.183599673601875,-1.5931690014696926
1773063093873625088,2.348001003265381,-0.9788318872451782,-0.3091253936290741,-1.1977745294570923,-0.7958853840827942,0.2214149385690689,0.563508927822113,-0.12255650758743286,0.07439196109771729,0.029325664043426514,-0.38985335190365933,0.6671115386245724,0.5802729052386502,0.25741026319491206,-0.2232651814267375,-2.18688971359792,-1.5939692011056148
1773063093883662080,2.3580379486083984,-1.0811200141906738,-0.30438822507858276,-1.2413792610168457,-0.7967250943183899,0.2058035433292389,0.568220317363739,-0.11048632860183716,0.1258004605770111,0.06855946779251099,-0.38390278349511336,0.665951709273948,0.5836252935505862,0.26174147436124867,-0.2072847539707431,-2.1903231747112906,-1.595324351045052
1773063093893698048,2.3680739402770996,-1.0156443119049072,-0.30630090832710266,-1.2562298774719238,-0.7974831461906433,0.18968378007411957,0.5727483034133911,-0.11584687232971191,0.15200626850128174,0.1420648694038391,-0.37779485447510236,0.6647209718469528,0.5869584094805923,0.26626464814415585,-0.19084006629573427,-2.193629525218392,-1.5967724530311105
1773063093903734016,2.378109931945801,-0.8093250393867493,-0.31490108370780945,-1.237694263458252,-0.7979382872581482,0.17445369064807892,0.5769404768943787,-0.1115770936012268,0.12510685622692108,0.16166114807128906,-0.37215806613098423,0.6631618553625862,0.5904969101745224,0.2702371206491354,-0.17535093079384612,-2.1968179466837663,-1.5968218067361066
1773063093913771008,2.3881468772888184,-0.7688726782798767,-0.3084793984889984,-1.221408724784851,-0.7981765866279602,0.16010324656963348,0.5807589888572693,-0.10850059986114502,0.06963308155536652,0.11607939004898071,-0.3669663049535155,0.6613817692885731,0.5940990221468453,0.2737812946669251,-0.160795250548141,-2.199811320188693,-1.595886668989462
1773063093923806976,2.3981828689575195,-0.8733221888542175,-0.28782713413238525,-1.2147868871688843,-0.7983314990997314,0.14558804035186768,0.5843551158905029,-0.09668797254562378,0.01252351701259613,0.1140853762626648,-0.3617045036014814,0.6596418434092172,0.5975367695988782,0.2774748110590801,-0.14610732604291052,-2.202658364607752,-1.59529908746104
1773063093933842944,2.4082188606262207,-0.9615508913993835,-0.3709433376789093,-1.2656841278076172,-0.798157811164856,0.1302594244480133,0.5881977081298828,-0.08579903841018677,0.0173540860414505,0.1430034041404724,-0.35596109084767497,0.6580309637521851,0.6009110543087202,0.2814122067304492,-0.13063063219486518,-2.2058891692128753,-1.5954036036707817
1773063093943878912,2.418254852294922,-0.914990246295929,-0.4698668122291565,-1.2995643615722656,-0.797211229801178,0.1143408939242363,0.5927733182907104,-0.07430964708328247,0.0448235347867012,0.10536199808120728,-0.3497166787663052,0.6564235438163665,0.6045616489998604,0.2851517551358233,-0.11459151565583922,-2.2101622118432545,-1.5953667120840387
1773063093953915904,2.4282917976379395,-0.7343264222145081,-0.5223302841186523,-1.3049287796020508,-0.7956163883209229,0.0989285483956337,0.5976686477661133,-0.04267096519470215,0.0687808021903038,0.06349468231201172,-0.3435647519387734,0.6546374980277666,0.6085097101296839,0.2883209471305544,-0.09909062875293219,-2.215066291770013,-1.5942720758772193
1773063093963952128,2.4383280277252197,-0.3994133770465851,-0.5559136867523193,-1.329745888710022,-0.7935988903045654,0.08499374985694885,0.602475643157959,0.0013015270233154297,0.10972364991903305,0.031404972076416016,-0.33813319167272665,0.6523660748516709,0.6129080874317343,0.2905651784319385,-0.08509641616934378,-2.2201398009318414,-1.5908896189669286
1773063093973988096,2.448364019393921,-0.06854142993688583,-0.6347323060035706,-1.3922665119171143,-0.7910780906677246,0.07282312959432602,0.6073650121688843,0.03535604476928711,0.18331089615821838,-0.022846579551696777,-0.33358858314430745,0.6494044574894302,0.6180261727695016,0.29160957473570703,-0.07288764701103508,-2.225572771393404,-1.5843573347117872
1773063093984025088,2.4584009647369385,0.03331549093127251,-0.7065162062644958,-1.4056140184402466,-0.7879003286361694,0.06166698411107063,0.6127069592475891,0.037763118743896484,0.25385424494743347,-0.09590721130371094,-0.32941573616510506,0.6460289847577458,0.6236986771227716,0.29177330038337007,-0.06170613600322512,-2.231756934626037,-1.5757760413808737
1773063093994061056,2.4684369564056396,0.15799589455127716,-0.7817134857177734,-1.3239414691925049,-0.7840908765792847,0.05137641355395317,0.6185159683227539,0.03157317638397217,0.29348745942115784,-0.1082468032836914,-0.3253494511192094,0.6426659721105574,0.6294747224969727,0.29135850466966323,-0.05139904334787935,-2.238690286890502,-1.5666094452092256
1773063094004097024,2.478472948074341,0.28332650661468506,-0.8579432964324951,-1.2154104709625244,-0.7795853018760681,0.04289679974317551,0.6248253583908081,0.034910619258880615,0.2759355902671814,-0.1019371747970581,-0.3216610821969547,0.639453728595037,0.6352256452892903,0.29003706116595473,-0.042909964926769115,-2.2464416800083358,-1.5568281516928104
1773063094014132992,2.488508939743042,-0.008053386583924294,-0.9005400538444519,-1.1469457149505615,-0.774462103843689,0.03474653512239456,0.6316656470298767,0.04406946897506714,0.12179336696863174,-0.11013537645339966,-0.3176471249173491,0.6366952782322242,0.6406652343537416,0.288561244681743,-0.03475352976739098,-2.254988470522027,-1.548077596036324
1773063094024169984,2.4985458850860596,-0.5134023427963257,-0.856492280960083,-1.127604365348816,-0.769191324710846,0.024288177490234375,0.6385570764541626,0.041926801204681396,-0.08256149291992188,-0.08792835474014282,-0.3123312625906019,0.6347212814852056,0.64529640280224,0.2883933793907579,-0.02429056648303571,-2.263662928857913,-1.542868154498884
1773063094034205952,2.5085818767547607,-0.7889676094055176,-0.7696993350982666,-1.1489936113357544,-0.7641671299934387,0.011233003810048103,0.6449204087257385,0.03545314073562622,-0.15066781640052795,-0.0234910249710083,-0.3059167449561214,0.6332478025621245,0.6491975145380108,0.28974942235344736,-0.011233239603636319,-2.271768711314466,-1.5407049011627654
1773063094044241920,2.518617868423462,-0.7753734588623047,-0.7230187654495239,-1.1835412979125977,-0.7593669295310974,-0.002904410008341074,0.6506558656692505,0.03370481729507446,-0.09372948855161667,0.013757467269897461,-0.29923490387569135,0.6317336130504903,0.6528710227157772,0.29177118502648286,0.0029044140654759945,-2.2792479117239357,-1.5392265108364775
1773063094054278912,2.5286548137664795,-0.6284987926483154,-0.6885814666748047,-1.1668059825897217,-0.7546373009681702,-0.01645338535308838,0.6559360027313232,0.032682836055755615,0.0027662385255098343,0.012139618396759033,-0.2929678254405118,0.6299477455080678,0.6566078341768135,0.2936016052027127,0.016454128371192565,-2.286335912889547,-1.5368573496464102
1773063094064314880,2.5386908054351807,-0.406180739402771,-0.7404208183288574,-1.1253631114959717,-0.749707818031311,-0.0285771656781435,0.6611514687538147,0.04141014814376831,0.12151847779750824,-0.006854712963104248,-0.2872773880580296,0.6279803232474342,0.660466846893542,0.29478107923143104,0.028581056860500487,-2.293509069766687,-1.5332825506252803
1773063094074350848,2.548726797103882,-0.08112113922834396,-0.8873609900474548,-1.1015394926071167,-0.7438867092132568,-0.03850904107093811,0.6671952605247498,0.06494694948196411,0.2330738604068756,-0.07881635427474976,-0.2821587562019186,0.6258412109874641,0.6647709413965692,0.2945993664527173,0.0385185651623012,-2.3018984938188543,-1.5276830177163918
1773063094084388096,2.5587639808654785,0.0967244878411293,-0.9149869680404663,-1.0956945419311523,-0.7373248338699341,-0.04648986831307411,0.6739367246627808,0.08855170011520386,0.2787896692752838,-0.19664186239242554,-0.2775857993152509,0.6234777778802558,0.6695101447741212,0.2932196206920194,0.04650662953687206,-2.3113087440958373,-1.5201244508471725
1773063094094424064,2.5687999725341797,-0.16361814737319946,-0.9304264187812805,-1.1455774307250977,-0.7304966449737549,-0.05472169443964958,0.6807202696800232,0.08346301317214966,0.2246435582637787,-0.1464490294456482,-0.27283826298630487,0.6210657668847915,0.6742680763525429,0.29188887766101307,0.05474904124612705,-2.3209371439750806,-1.5125196817486677
1773063094104460032,2.578835964202881,-0.2596215605735779,-0.8773868680000305,-1.1413812637329102,-0.7236250042915344,-0.06481026858091354,0.6871438026428223,0.048957645893096924,0.11731576174497604,-0.06643152236938477,-0.2673146571024045,0.6188477884719416,0.6786746796278652,0.29149786077141465,0.0648557229573784,-2.330341174620868,-1.5065041480466335
1773063094114496000,2.588871955871582,0.1270851194858551,-0.85829758644104,-1.0521706342697144,-0.716802716255188,-0.07334951311349869,0.6934072971343994,0.014272868633270264,0.02381949871778488,-0.11317664384841919,-0.2624766030339798,0.6164322476184818,0.6831653751740812,0.29052087023779155,0.07341544557535044,-2.3396059804469225,-1.4993253207497093
1773063094124532992,2.5989089012145996,0.3819100856781006,-0.7668521404266357,-0.733890950679779,-0.7104332447052002,-0.07782941311597824,0.6994478702545166,0.026702165603637695,-0.07132524251937866,-0.1483919620513916,-0.259233799472862,0.6141660576644292,0.6874038020699641,0.2882255026717476,0.07790820066881593,-2.3484029460527513,-1.491017766873004
1773063094134569216,2.60894513130188,0.43500739336013794,-0.7329074740409851,-0.6440140604972839,-0.704643189907074,-0.07950523495674133,0.7050938010215759,0.0720442533493042,-0.13192057609558105,-0.024902641773223877,-0.2570055353277527,0.6124245337035888,0.6910015102926527,0.28530923293011384,0.0795892304453163,-2.356514138045406,-1.4833387230452622
1773063094144605184,2.618981122970581,0.3811495006084442,-0.657845675945282,-0.8563935160636902,-0.6990740299224854,-0.08180893212556839,0.7103539109230042,0.09680962562561035,-0.10535535961389542,0.08114993572235107,-0.2547766318361511,0.610317608898117,0.694758508722684,0.28268690256577506,0.08190046195614938,-2.3641974836910915,-1.4751292180174431
1773063094154642176,2.6290180683135986,0.4498755633831024,-0.6113921403884888,-0.9992276430130005,-0.6937713027000427,-0.08542291074991226,0.715111255645752,0.058685302734375,-0.04609256237745285,0.02388709783554077,-0.2525035947052517,0.607397623183831,0.6990162753194299,0.2805106930997572,0.08552714540121467,-2.3713400527245576,-1.465453499718663
1773063094164678144,2.6390540599823,0.4630739092826843,-0.5996244549751282,-0.869304895401001,-0.6885520815849304,-0.08867496252059937,0.7197453379631042,0.006194114685058594,-0.021066300570964813,0.0047727227210998535,-0.25043985054188234,0.6043156204904071,0.7033315726923349,0.2782218256148712,0.088791586342146,-2.3783404813907016,-1.455295223267938
1773063094174714112,2.649090051651001,0.3926602005958557,-0.509315550327301,-0.5292626023292542,-0.6838766932487488,-0.09033271670341492,0.7239841222763062,0.018272995948791504,-0.04905633628368378,0.024413764476776123,-0.24880943024563107,0.6020755167668962,0.7067511075817817,0.2758657504164309,0.09045602252621586,-2.384674974361859,-1.4471712242635346
1773063094184751360,2.6591272354125977,0.13255219161510468,-0.4987727701663971,-0.31983688473701477,-0.6798548698425293,-0.09103364497423172,0.7276744246482849,0.09672504663467407,-0.127975732088089,0.08993715047836304,-0.2473286112042087,0.6009716572898186,0.7089924474968243,0.2738453828038326,0.09115985138240726,-2.390155558747066,-1.4422264776448683
1773063094194787328,2.669163227081299,-0.2921684682369232,-0.5728685855865479,-0.32592886686325073,-0.6756885051727295,-0.09374287724494934,0.7312024831771851,0.17578011751174927,-0.22585242986679077,0.09379440546035767,-0.24477266196873335,0.6006860875334401,0.7104769298188305,0.2729194474510809,0.09388072051896704,-2.3956326659450036,-1.440473064349578
1773063094204823296,2.67919921875,-0.6258979439735413,-0.6499347686767578,-0.4155897796154022,-0.6707673668861389,-0.09967069327831268,0.7349401712417603,0.20162063837051392,-0.2844540774822235,0.040801405906677246,-0.2406530804605081,0.6007711507383099,0.7117191176576256,0.273159411280613,0.09983646187709369,-2.401814397498961,-1.4408700232080163
1773063094214859264,2.689235210418701,-0.8848735690116882,-0.5995299220085144,-0.40363404154777527,-0.6656543016433716,-0.10806503891944885,0.738394558429718,0.19678223133087158,-0.24743425846099854,0.023659944534301758,-0.23553294900726301,0.6010615764060029,0.7126866403104558,0.27445768378211555,0.10827648246482972,-2.4079556877923767,-1.4429051481559707
1773063094224896256,2.6992721557617188,-1.0087915658950806,-0.531529426574707,-0.34211114048957825,-0.6610466241836548,-0.11768770217895508,0.7410580515861511,0.18288201093673706,-0.14317655563354492,0.05368071794509888,-0.23009370277552588,0.6016427745732826,0.7131304169493963,0.27663672758216085,0.11796107979326596,-2.4131978991911938,-1.4466205400835601
1773063094234932224,2.70930814743042,-0.829874575138092,-0.5036647915840149,-0.3500377833843231,-0.6567720770835876,-0.12688030302524567,0.7433385252952576,0.15858769416809082,0.013202279806137085,0.017342746257781982,-0.22495159775630374,0.6022090517066706,0.7134518451257915,0.278796732116139,0.12722323210440112,-2.417944183712132,-1.4503001927564285
1773063094244968192,2.719344139099121,-0.6031920909881592,-0.5401444435119629,-0.4357156455516815,-0.6523869037628174,-0.13478703796863556,0.7458042502403259,0.12049603462219238,0.18735356628894806,-0.07675206661224365,-0.22038637656708648,0.6023382932995812,0.7142063370550467,0.2802280875241242,0.13519854212094679,-2.422908316579869,-1.4521158583361997
1773063094255005184,2.7293810844421387,-0.47759902477264404,-0.6913794875144958,-0.5128849744796753,-0.647156834602356,-0.14184775948524475,0.7490443587303162,0.07614237070083618,0.29219257831573486,-0.11841386556625366,-0.21594074119576845,0.6020566435060275,0.7155766819577076,0.2807979076634632,0.14232779511163438,-2.429040212314399,-1.451957327079172
1773063094265041152,2.73941707611084,-0.3644323945045471,-0.897213339805603,-0.463272362947464,-0.6404259204864502,-0.14832724630832672,0.7535609006881714,0.03477400541305542,0.3260310888290405,-0.14800047874450684,-0.21106555539411084,0.601860646776977,0.717317373698099,0.28048348690866914,0.14887660004607497,-2.437176285980347,-1.4510025228959338
1773063094275077120,2.749453067779541,-0.0520356260240078,-1.0885491371154785,-0.3563770651817322,-0.6322324275970459,-0.15255947411060333,0.7596104741096497,0.010390818119049072,0.30203452706336975,-0.1716586947441101,-0.20625454281857497,0.6020002786463704,0.7193058417943347,0.2786645376016244,0.15315754863663988,-2.447457781764347,-1.4491934400721942
1773063094285114112,2.7594900131225586,0.14617393910884857,-1.1022109985351562,-0.24738812446594238,-0.6232767701148987,-0.15398506820201874,0.7666910290718079,0.0009164810180664062,0.18921759724617004,-0.13561785221099854,-0.2020145289917501,0.6023882125133552,0.7214388089401698,0.2753992485143121,0.15460018954189644,-2.459008795361122,-1.4464291107837248
1773063094295150080,2.7695260047912598,0.09236529469490051,-1.0124584436416626,-0.19111685454845428,-0.6147463917732239,-0.15423083305358887,0.77349853515625,-0.0251767635345459,0.0016581714153289795,-0.07482898235321045,-0.1982957079440949,0.6029371550690286,0.723336754720975,0.2719000015742738,0.15484892073533557,-2.4700544802355644,-1.4438667703423664
1773063094305186304,2.77956223487854,-0.16944454610347748,-0.9045407176017761,-0.21102963387966156,-0.6069678068161011,-0.155673548579216,0.7793304920196533,-0.0760919451713562,-0.1260342299938202,-0.01465141773223877,-0.19445173776174568,0.6035555938239052,0.7248350704641552,0.2693015507263069,0.15630927852758392,-2.4798927307357146,-1.4424899889924316
1773063094315223296,2.7895991802215576,-0.4934859871864319,-0.8179270029067993,-0.29652562737464905,-0.5998202562332153,-0.15978039801120758,0.7840191721916199,-0.13336455821990967,-0.11971485614776611,0.025108695030212402,-0.18998430212808062,0.604113947632591,0.7259861680675109,0.2681350864569828,0.16046818525031611,-2.4885237801234688,-1.4425010996598566
1773063094325259264,2.799635171890259,-0.7660096287727356,-0.7777453064918518,-0.37413468956947327,-0.5929844975471497,-0.16684582829475403,0.7877383232116699,-0.1692529320716858,-0.04450364410877228,0.0758480429649353,-0.18468566426573257,0.6045593061203741,0.7268956016110539,0.26836914889122804,0.16762979064583958,-2.4963221245552365,-1.4437057427023205
1773063094335295232,2.80967116355896,-0.8392979502677917,-0.7451668977737427,-0.4261334538459778,-0.5862423777580261,-0.17568252980709076,0.7908575534820557,-0.15889006853103638,0.029121875762939453,0.06497740745544434,-0.17888011238067328,0.6048703239345736,0.7277092009673315,0.2693940611320748,0.17659903943614488,-2.503699459136287,-1.445405429732478
1773063094345331200,2.819707155227661,-0.8608372211456299,-0.8071606755256653,-0.42498159408569336,-0.579397439956665,-0.1849323809146881,0.7937873601913452,-0.10030525922775269,0.0892140120267868,0.020085811614990234,-0.17293494295900794,0.6050910563193557,0.728531731903278,0.2705545503053632,0.18600305057350447,-2.5110702037703856,-1.4470208915232827
1773063094355368192,2.8297441005706787,-0.8076187372207642,-1.0199155807495117,-0.3967907130718231,-0.5713448524475098,-0.19401955604553223,0.7974465489387512,-0.021458983421325684,0.1363871544599533,-0.04804182052612305,-0.16649045917485533,0.6055438443840018,0.7294106754610262,0.27121491423018695,0.1952579218694061,-2.5198996838380854,-1.448659514968658
1773063094365404160,2.83978009223938,-0.6106120347976685,-1.1991499662399292,-0.39396265149116516,-0.5615791082382202,-0.20206595957279205,0.8023703694343567,0.04348224401473999,0.17511895298957825,-0.08264380693435669,-0.15965996036656155,0.6062062234889961,0.7305471884655447,0.2707831100541058,0.2034669340726185,-2.5309337491880046,-1.4496255775712104
1773063094375440128,2.849816083908081,-0.20177337527275085,-1.1804614067077637,-0.334611177444458,-0.5510551929473877,-0.20754267275333405,0.8082473874092102,0.06269776821136475,0.17780335247516632,-0.043827950954437256,-0.15344367558187985,0.6068098540106572,0.7320556587718239,0.26894467729797383,0.2090622676182859,-2.543192824419475,-1.4489473114847449
1773063094385477120,2.8598530292510986,0.2628292441368103,-0.9620060920715332,-0.20224234461784363,-0.5417032837867737,-0.2087382972240448,0.8142393231391907,0.016587436199188232,0.08592034876346588,0.01744091510772705,-0.14922221468022537,0.6072279623076728,0.7337532759004962,0.2657310788299099,0.21028465879421945,-2.5545454584765075,-1.4464207663266533
1773063094395513088,2.8698890209198,0.4885672926902771,-0.6900001168251038,-0.05562520772218704,-0.5346642136573792,-0.20619578659534454,0.8195228576660156,-0.052875518798828125,-0.07403190433979034,0.08320248126983643,-0.14720969700052608,0.6075578002598553,0.7352788252218572,0.26185480281811324,0.20768559529964148,-2.563525704671643,-1.443101817812188
1773063094405549056,2.879925012588501,0.3366432189941406,-0.4649696946144104,0.023382745683193207,-0.5299131870269775,-0.2025599628686905,0.823505699634552,-0.08664870262145996,-0.2048802375793457,0.09853720664978027,-0.14644147359429463,0.6079440715755832,0.7363130091646094,0.25846101110800435,0.2039713673303539,-2.5698113425820868,-1.440531638768746
1773063094415586304,2.8899621963500977,-0.25885266065597534,-0.36713528633117676,0.021919872611761093,-0.5266047120094299,-0.2019272893667221,0.8257802724838257,-0.06944942474365234,-0.23645775020122528,0.11907458305358887,-0.14515590784012405,0.6085238141143497,0.7366063379482143,0.25698186589815053,0.20332534817257336,-2.573908855664505,-1.4404313589738338
1773063094425622272,2.899998188018799,-0.9104461073875427,-0.4071313142776489,0.004811637103557587,-0.5234562754631042,-0.20675575733184814,0.8265866041183472,-0.030025720596313477,-0.18949972093105316,0.14767175912857056,-0.14195371533093915,0.6094898489401358,0.7360811237796321,0.25798409977116493,0.20825789836863381,-2.57706519202018,-1.4437854513797728
1773063094435658240,2.9100341796875,-1.3521753549575806,-0.5143864154815674,0.038257475942373276,-0.5197131037712097,-0.21620523929595947,0.8265310525894165,0.027556121349334717,-0.11202657222747803,0.139396071434021,-0.13677401610469136,0.610948456612821,0.7348520296101676,0.2608205237317886,0.21792609269376267,-2.580273744307106,-1.45023044162356
1773063094445694208,2.920070171356201,-1.5607746839523315,-0.6822594404220581,0.12509414553642273,-0.5149073600769043,-0.22796107828617096,0.8263803124427795,0.0914301872253418,-0.07471227645874023,0.11325597763061523,-0.13016068117515617,0.6130159196724239,0.7330768221821454,0.2643257858853449,0.22998310655575271,-2.584369664059711,-1.458937406826643
1773063094455731200,2.9301071166992188,-1.5706075429916382,-0.8156880736351013,0.21369218826293945,-0.5090788006782532,-0.240218386054039,0.8265193104743958,0.1270291805267334,-0.059357449412345886,0.07342898845672607,-0.12274924220088931,0.6156475193532037,0.7309157195607213,0.26771822820482644,0.24259082226217604,-2.589541498322471,-1.4690361237464982
1773063094465767168,2.94014310836792,-1.2349148988723755,-0.8523866534233093,0.22347459197044373,-0.5026119351387024,-0.250903844833374,0.8273022770881653,0.11542004346847534,-0.011989891529083252,0.03382772207260132,-0.11554081378104775,0.6184668932347631,0.7288002716870143,0.2701838955592794,0.25361386698653776,-2.5956538987173015,-1.4787266238840062
1773063094475803136,2.950179100036621,-0.5834455490112305,-0.6900387406349182,0.1452580988407135,-0.4965629577636719,-0.2576187551021576,0.8288896679878235,0.0456809401512146,0.051594555377960205,-0.02307283878326416,-0.11005697257516958,0.6207532199658811,0.7273996571328488,0.2710031468815017,0.2605569594647355,-2.601857220012329,-1.4853669668666725
1773063094485840128,2.9602160453796387,0.05119682103395462,-0.36950430274009705,0.04503859579563141,-0.4923356771469116,-0.25917354226112366,0.8309240341186523,-0.05395948886871338,0.09006038308143616,-0.07684993743896484,-0.10747047877418658,0.6219535761426346,0.727073423496386,0.2701631059811936,0.2621663972074454,-2.6066943604127486,-1.4874853172365823
1773063094495876096,2.97025203704834,0.21389971673488617,-0.09726479649543762,-0.0015938871074467897,-0.4905380606651306,-0.2576957941055298,0.8324456214904785,-0.14154207706451416,0.1097007691860199,-0.09507977962493896,-0.10720184064037487,0.622245045821247,0.7273471824765331,0.2688588316631929,0.26063669861772276,-2.6090977028357747,-1.486812451607941
1773063094505912064,2.980288028717041,0.04262903332710266,-0.08826830238103867,-0.04746088758111,-0.48981937766075134,-0.2566639482975006,0.83318692445755,-0.18077382445335388,0.176524817943573,-0.08381259441375732,-0.10730765160218493,0.622201629262546,0.7276390590241197,0.2681260258805715,0.25956893075855264,-2.6101277321840937,-1.4859069523563977
1773063094515949312,2.9903252124786377,-0.11123456805944443,-0.21055640280246735,-0.10683687031269073,-0.488407164812088,-0.25737833976745605,0.8337956070899963,-0.15151599049568176,0.28701087832450867,-0.08095741271972656,-0.10655215157695033,0.622127784165733,0.7279112805375549,0.26785986915364274,0.2603081500514342,-2.611706837317552,-1.4854030239880698
1773063094525985280,3.000361204147339,-0.15692681074142456,-0.40297451615333557,-0.1361105889081955,-0.48555538058280945,-0.2592103183269501,0.8348930478096008,-0.0713905394077301,0.2994629144668579,-0.08455723524093628,-0.1048275937502019,0.6221497954286505,0.7282692949747515,0.2675159056592157,0.26220447495705695,-2.6148289499289947,-1.485033803383713
1773063094536021248,3.01039719581604,-0.14783398807048798,-0.5911007523536682,-0.09154392778873444,-0.4810192286968231,-0.26096242666244507,0.8369700908660889,-0.0007770061492919922,0.14881035685539246,-0.12095153331756592,-0.10239053790767651,0.6224598347746902,0.728717229363949,0.2665165664322113,0.26401904826311595,-2.6199726325833907,-1.4846844090425613
1773063094546058240,3.0204341411590576,-0.1489071100950241,-0.7060749530792236,0.024610109627246857,-0.4754064381122589,-0.26243671774864197,0.8397114276885986,0.01416391134262085,-0.05157384276390076,-0.16463226079940796,-0.09945739381243288,0.6232892965727637,0.7289486697761902,0.2650517061055263,0.265546569490336,-2.6264313620696482,-1.4851783484773964
1773063094556094208,3.030470132827759,-0.14531663060188293,-0.6073286533355713,0.12692849338054657,-0.46991831064224243,-0.26330652832984924,0.8425241708755493,-0.03105834126472473,-0.19673076272010803,-0.1298317313194275,-0.09663519389744127,0.6245376908049209,0.7288448117716214,0.26343822793074456,0.26644808559596667,-2.632818402323888,-1.4866242982301017
1773063094566130176,3.04050612449646,-0.17161668837070465,-0.28637537360191345,0.14269448816776276,-0.46646082401275635,-0.26401087641716003,0.8442232012748718,-0.12133830785751343,-0.25301796197891235,-0.06306469440460205,-0.09466430185021835,0.6257159692391043,0.7284168612057662,0.26253977936329637,0.26717826597111355,-2.6368071304303347,-1.488689422980532
1773063094576166144,3.050542116165161,-0.23389869928359985,0.043422482907772064,0.0929434522986412,-0.46579110622406006,-0.26513341069221497,0.8442409038543701,-0.22161728143692017,-0.24090903997421265,0.009152531623840332,-0.09376997421647852,0.6264075102445494,0.7278283304475189,0.26284345643747425,0.2683422668597491,-2.637423933529101,-1.4907971429958429
1773063094586203136,3.0605790615081787,-0.24137179553508759,0.2656184136867523,0.00852106511592865,-0.4673181474208832,-0.2669735252857208,0.8428162336349487,-0.2794622778892517,-0.15561866760253906,0.05270695686340332,-0.09366159797020714,0.6265020539986526,0.7272573827195452,0.26423375650140657,0.27025120603981,-2.6353223953156877,-1.4925270762770424
1773063094596239104,3.07061505317688,-0.17884476482868195,0.3285757899284363,-0.060295552015304565,-0.469844251871109,-0.2688823640346527,0.8408025503158569,-0.25795426964759827,-0.024498403072357178,0.04963946342468262,-0.09408903166393431,0.6260829671188,0.7269259947355714,0.2659812943092201,0.27223246359208997,-2.632014904700022,-1.4933203566581426
1773063094606275072,3.080651044845581,0.11394821852445602,0.2595425248146057,-0.07243867218494415,-0.4721934497356415,-0.269695907831192,0.8392244577407837,-0.1641744077205658,0.09199199080467224,-0.0024170875549316406,-0.09490609244926136,0.6254733898931812,0.7269080196881943,0.26717160523794276,0.2730772096360565,-2.6290858006450883,-1.4930347320762687
1773063094616312320,3.0906882286071777,0.5789933800697327,0.16456063091754913,-0.11473153531551361,-0.4737444818019867,-0.26713061332702637,0.8391709923744202,-0.03724202513694763,0.1496531069278717,-0.08933860063552856,-0.0966801175938435,0.6246808743711512,0.7275708318763928,0.26658508232133143,0.2704142121752748,-2.6276558971861457,-1.4903780661291877
1773063094626348288,3.100724220275879,0.8399580717086792,0.011385422199964523,-0.11286115646362305,-0.47418686747550964,-0.26156511902809143,0.8406726717948914,0.07809916138648987,0.14463698863983154,-0.15739929676055908,-0.09912810130555286,0.6237705557686941,0.7288666848537595,0.26426745940349816,0.26464341335974784,-2.628021630233939,-1.48558423725424
1773063094636384256,3.11076021194458,0.7859680652618408,-0.12531942129135132,-0.0392758846282959,-0.4734583795070648,-0.2549060583114624,0.8431252241134644,0.13919934630393982,0.1062091588973999,-0.18383872509002686,-0.10140140799058922,0.6231451679825836,0.730241544844984,0.26106543130228504,0.25775054536211267,-2.6299238911985747,-1.4806297785976616
1773063094646421248,3.1207971572875977,0.6842899322509766,-0.11168310791254044,0.031519725918769836,-0.47236722707748413,-0.24875934422016144,0.8455694913864136,0.1424417495727539,0.09749899804592133,-0.13893508911132812,-0.10319375192225849,0.6229498675857538,0.7312442881786981,0.2580043447302223,0.25139911712839036,-2.6321417991256837,-1.476979542242729
1773063094656457216,3.130833148956299,0.6687530279159546,0.12278691679239273,0.038359787315130234,-0.47240400314331055,-0.24283060431480408,0.8472707271575928,0.09337571263313293,0.06685100495815277,-0.10840970277786255,-0.10533745662402617,0.6227316607472521,0.7320113739449721,0.25547727872760995,0.2452827372213568,-2.632963992412477,-1.4738749342854196
1773063094666493184,3.140869140625,0.4983694851398468,0.45395490527153015,0.0679195448756218,-0.4750044345855713,-0.23748327791690826,0.8473327159881592,0.014188945293426514,-0.04906156659126282,-0.07694685459136963,-0.10834872780330157,0.6222236183559784,0.7324644241162716,0.2541540145121945,0.23977418001051842,-2.6306569277357803,-1.471303629965294
1773063094676530176,3.1509060859680176,0.15079525113105774,0.6356309652328491,0.11153972148895264,-0.47996795177459717,-0.23426418006420135,0.8454297184944153,-0.05320477485656738,-0.19258524477481842,-0.03946036100387573,-0.11153976902331235,0.6216692197074557,0.7322856357174212,0.2546450786940493,0.23646162166079315,-2.6252461762502954,-1.4704746369397108
1773063094686566144,3.1609420776367188,-0.15272414684295654,0.6016698479652405,0.10609666258096695,-0.4855819642543793,-0.23377889394760132,0.8423526287078857,-0.047880619764328,-0.23254500329494476,-0.03829061985015869,-0.11398452763377784,0.6212691195179472,0.7315743256888677,0.25657613391179085,0.23596246657118483,-2.6186623978799153,-1.471499486259227
1773063094696602112,3.17097806930542,-0.3532697856426239,0.3771322965621948,0.1188926175236702,-0.4900464117527008,-0.23543521761894226,0.8393003940582275,0.04203301668167114,-0.1381915658712387,0.0011538863182067871,-0.1151503988999238,0.6211603660379008,0.7306230137149251,0.2590179420162256,0.2376663423646307,-2.6131142311851727,-1.4737824386493177
1773063094706638080,3.181014060974121,-0.45308050513267517,0.060776472091674805,0.25736722350120544,-0.4923143982887268,-0.23801031708717346,0.8372442126274109,0.1547289490699768,-0.012172788381576538,0.04639232158660889,-0.11490122422480653,0.6217772634086355,0.729393670493327,0.261104712186987,0.24031677624174963,-2.6100302599693084,-1.4775507877658087
1773063094716675072,3.1910510063171387,-0.4221542775630951,-0.14063812792301178,0.4395226538181305,-0.4927251636981964,-0.24004808068275452,0.8364199995994568,0.21380984783172607,0.0727049857378006,0.02036076784133911,-0.11377174797849826,0.6233838781137968,0.7277379713923209,0.2623849776759081,0.24241537456918488,-2.609235170234202,-1.483027364617796
1773063094726711296,3.201087236404419,-0.04785952344536781,-0.12126323580741882,0.5038211345672607,-0.49265754222869873,-0.2397615909576416,0.8365423679351807,0.18827515840530396,0.09013387560844421,-0.004266858100891113,-0.11308690825627557,0.6254863163471149,0.7259738571870987,0.26256470529630355,0.2421202772462921,-2.609359144373011,-1.488657565413196
1773063094736747264,3.21112322807312,0.23363660275936127,0.14655062556266785,0.39188793301582336,-0.4937247633934021,-0.23653027415275574,0.836832582950592,0.07482537627220154,0.0286141037940979,-0.03515124320983887,-0.1140474480621268,0.6270676632152442,0.7247085093351344,0.26187163307735234,0.2387932259696506,-2.608564242718243,-1.4920644350825751
1773063094746784256,3.2211601734161377,0.17217789590358734,0.5058673024177551,0.29004377126693726,-0.4972876012325287,-0.23303204774856567,0.8357040286064148,-0.08477416634559631,-0.03143326938152313,-0.04537498950958252,-0.11637089964001367,0.6277386506792375,0.723737663893986,0.26192714338826806,0.23519441727185408,-2.604819129352432,-1.4939298174917557
1773063094756820224,3.231196165084839,0.0874297246336937,0.690794825553894,0.19199630618095398,-0.5029841065406799,-0.23076550662517548,0.832919180393219,-0.21324825286865234,0.04276193678379059,0.06635761260986328,-0.11931223814943692,0.6277300117481752,0.7227825584269756,0.26325846471804315,0.2328643522225804,-2.5983243489896184,-1.4953915737042303
1773063094766856192,3.24123215675354,0.08153720945119858,0.6402088403701782,0.14959213137626648,-0.5090238451957703,-0.22933678328990936,0.8296382427215576,-0.254022479057312,0.23122882843017578,0.11007440090179443,-0.12221189003213617,0.627388168442167,0.7219440526184719,0.2650381030537451,0.2313962440009025,-2.5912700769819415,-1.4964709784542358
1773063094776893184,3.2512691020965576,0.27952325344085693,0.4659750461578369,0.22018718719482422,-0.5140283703804016,-0.2269390970468521,0.8272084593772888,-0.20771247148513794,0.32984429597854614,0.0003978610038757324,-0.12500864705905082,0.6271971128907481,0.7212683335291147,0.2660238919934916,0.22893361767228462,-2.585585369695891,-1.4970983808833545
1773063094786929152,3.261305093765259,0.4735758304595947,0.29444244503974915,0.37805140018463135,-0.5178568363189697,-0.22223596274852753,0.8260964751243591,-0.08684897422790527,0.2683175206184387,-0.0923166275024414,-0.12798224117839216,0.6275246001149132,0.7205977551766605,0.26565443389119464,0.2241071906096071,-2.581648267420081,-1.4976215894147116
1773063094796965120,3.27134108543396,0.3722478747367859,0.1741194874048233,0.5012463331222534,-0.5207164287567139,-0.21619004011154175,0.8259034156799316,0.04969280958175659,0.09454692900180817,-0.10790097713470459,-0.13081175940975426,0.628536009297723,0.7196486678161853,0.26445532290195106,0.21791052943739425,-2.5790616708365257,-1.4990272110806915
1773063094807001088,3.281377077102661,-0.165281742811203,0.07011284679174423,0.525914192199707,-0.5228568315505981,-0.2124214470386505,0.8255288004875183,0.13767921924591064,-0.0905723124742508,-0.07279753684997559,-0.13234115956735906,0.6301743507900966,0.7180840487832844,0.2640480988696167,0.21405229497547273,-2.5770043209656692,-1.5028775003037735
1773063094817038080,3.2914140224456787,-0.7292926907539368,0.04483066126704216,0.5006237030029297,-0.5243194699287415,-0.21353578567504883,0.8243125677108765,0.1394471526145935,-0.2185167819261551,0.008008480072021484,-0.13172726278654998,0.6322577571616452,0.7158256767392016,0.2655024562444519,0.21519279795085333,-2.57507331847404,-1.5098362650490122
1773063094827074048,3.30145001411438,-1.0133213996887207,0.12431620061397552,0.5495673418045044,-0.5261346101760864,-0.21813900768756866,0.821947455406189,0.0671960711479187,-0.24507203698158264,0.07366710901260376,-0.12989154682822926,0.6346086043647188,0.7129134821202127,0.2686157622617746,0.21990715029492516,-2.5722032854453674,-1.5192989562057522
1773063094837110016,3.311486005783081,-0.8629704713821411,0.3119710683822632,0.5771960616111755,-0.529194712638855,-0.2231311947107315,0.8186362981796265,-0.014613211154937744,-0.156156525015831,0.14233165979385376,-0.12834109230717075,0.6369750591195549,0.7096343595647574,0.2724158799970706,0.2250254672189272,-2.5677280269981395,-1.5296427324143116
1773063094847147264,3.3215231895446777,-0.2968229353427887,0.43617236614227295,0.49921461939811707,-0.5335249900817871,-0.22510968148708344,0.8152774572372437,-0.06436026096343994,0.013241320848464966,0.17457562685012817,-0.12853210703551132,0.6387669699232114,0.706834842932364,0.27539234395102696,0.22705560322756513,-2.5621241220556166,-1.5376685221092208
1773063094857183232,3.331559181213379,0.24593007564544678,0.42958876490592957,0.39865925908088684,-0.538152813911438,-0.22283935546875,0.8128557205200195,-0.08663362264633179,0.1720122992992401,0.12238609790802002,-0.1306732043178654,0.6397379639098314,0.7050980077454977,0.2765803999935305,0.2247261010644762,-2.5567915956994787,-1.5415804083417688
1773063094867219200,3.34159517288208,0.5563573837280273,0.38288381695747375,0.43500566482543945,-0.5423193573951721,-0.21716032922267914,0.8116229176521301,-0.07959848642349243,0.24087241291999817,0.032173097133636475,-0.13402263199052444,0.6403394397937995,0.7041142306476251,0.27609176590788403,0.21890443014872063,-2.552535259956569,-1.5426433810983706
1773063094877256192,3.3516321182250977,0.4261746108531952,0.30988389253616333,0.5440179109573364,-0.5462810397148132,-0.21023228764533997,0.8107895851135254,-0.023512721061706543,0.22163055837154388,-0.0018295049667358398,-0.13763318141550002,0.6412404795745649,0.7029974763979443,0.2750679993432163,0.21181254781137163,-2.548692440766591,-1.5438954768665756
1773063094887292160,3.361668109893799,0.010298655368387699,0.11499447375535965,0.5358559489250183,-0.5491688251495361,-0.20540733635425568,0.8100751042366028,0.05176281929016113,0.12239952385425568,0.06452822685241699,-0.13986309308296216,0.6427195001098241,0.7013908963934922,0.2745921114864826,0.20687990412393406,-2.5458374038630858,-1.547270929294373
1773063094897328128,3.3717041015625,-0.32980433106422424,-0.07573340088129044,0.5212314128875732,-0.5503804087638855,-0.2038668841123581,0.8096414804458618,0.08086758852005005,-0.044179946184158325,0.05605053901672363,-0.1401075361816905,0.6446541929465021,0.6994581579482473,0.27486183443765844,0.20530614346849668,-2.5445645082826287,-1.5526708052545017
