time,seconds_elapsed,rotationRateX,rotationRateY,rotationRateZ,gravityX,gravityY,gravityZ,accelerationX,accelerationY,accelerationZ,quaternionW,quaternionX,quaternionY,quaternionZ,pitch,roll,yaw
1773063765742041344,0.032041311264038086,-0.2622763216495514,0.02257850021123886,0.08046238124370575,-0.013456732966005802,-0.5689452886581421,-0.8222652673721313,0.053358472883701324,-0.09519350528717041,0.10131800174713135,-0.9484736627798918,-0.296924155808679,-0.026521818615072967,-0.10737965375883206,0.6052227696575845,-0.016363979353952045,0.2305751546043822
1773063765752097280,0.04209733009338379,-0.33759793639183044,0.06700960546731949,0.20784321427345276,-0.013847460970282555,-0.5665647983551025,-0.8239008188247681,0.06252298504114151,-0.03095412254333496,0.06288397312164307,-0.9488157459519776,-0.29555523281672913,-0.026395086126567865,-0.10816185970503833,0.6023310068358865,-0.016805611546310384,0.23223354995674966
1773063765762152448,0.052152395248413086,-0.40803030133247375,0.048742711544036865,0.23305456340312958,-0.014634951017796993,-0.5633184909820557,-0.8261102437973022,0.06048760190606117,0.021723031997680664,0.036269545555114746,-0.9492561572127579,-0.2937033056610179,-0.026139243805034896,-0.10939718028104575,0.5983966686227276,-0.017713641227510235,0.2349419804065319
1773063765772208128,0.06220817565917969,-0.3192322850227356,0.09105928242206573,0.1391087770462036,-0.015045534819364548,-0.5603600144386292,-0.8281124830245972,0.07550085335969925,0.05270010232925415,0.05678069591522217,-0.949664471887326,-0.29200359797856695,-0.026031877287027834,-0.1104243807960211,0.5948203797145142,-0.01816646918367873,0.23708301438239632
1773063765782263296,0.07226324081420898,-0.23778721690177917,0.0961802750825882,0.1328791081905365,-0.014958874322474003,-0.5580311417579651,-0.8296851515769958,0.02094031497836113,0.009843945503234863,0.035114288330078125,-0.9499872555445668,-0.2906434542259885,-0.026149568333462776,-0.11120564832908708,0.5920112358914844,-0.018027625756589425,0.23855751588969504
1773063765792319232,0.08231925964355469,-0.1736229658126831,0.09496524184942245,0.22910571098327637,-0.015163995325565338,-0.5562983155250549,-0.8308442831039429,0.006252857856452465,-0.012122094631195068,0.006900191307067871,-0.950172244274035,-0.2896374400121069,-0.02622999719508632,-0.11222655820483335,0.5899245386435985,-0.018249282512190896,0.240678956708249
1773063765802374400,0.09237432479858398,-0.15111766755580902,0.09221259504556656,0.27731478214263916,-0.015843072906136513,-0.5549309849739075,-0.8317455053329468,0.06943193823099136,0.03291255235671997,0.009769856929779053,-0.9502429071752534,-0.28886078624538164,-0.026204749394529596,-0.1136271006357938,0.5882799799184715,-0.019045677810131688,0.24379321537123894
1773063765812429312,0.10242938995361328,-0.16638009250164032,0.08405223488807678,0.26233577728271484,-0.016593722626566887,-0.5535710453987122,-0.8326365947723389,0.08599068969488144,0.023755371570587158,0.007029354572296143,-0.9503045504152257,-0.28809337219015607,-0.02615157670652583,-0.11506277868988556,0.5866461290543245,-0.01992649216412834,0.24700536946046464
1773063765822484480,0.11248445510864258,-0.18032415211200714,0.09422551095485687,0.3046422004699707,-0.017404841259121895,-0.5520725846290588,-0.8336143493652344,0.07573918253183365,0.0013218522071838379,0.016719818115234375,-0.9503809204682444,-0.28725112332466296,-0.02606929943881799,-0.11654675346022314,0.5848478880975264,-0.02087573630080653,0.25032965542232777
1773063765832540416,0.12254047393798828,-0.19419188797473907,0.105862095952034,0.3784882724285126,-0.01846594177186489,-0.5504477024078369,-0.8346654176712036,0.08867163956165314,0.005785226821899414,0.04485523700714111,-0.9504347622990728,-0.2863464786036435,-0.02594176156655524,-0.11834936088490573,0.5829003663079273,-0.022120155863536516,0.25440339859725875
1773063765842595584,0.13259553909301758,-0.2422315925359726,0.1169419065117836,0.4253484606742859,-0.019750621169805527,-0.5485674738883972,-0.835873007774353,0.10558130592107773,0.003248870372772217,0.06589925289154053,-0.9504862787689509,-0.28530577348566344,-0.025770634994110714,-0.12046705381830516,0.5806499391739112,-0.023624340090333068,0.2591991932606592
1773063765852651520,0.14265155792236328,-0.338916152715683,0.12211557477712631,0.46182575821876526,-0.021176796406507492,-0.5460515022277832,-0.8374838829040527,0.1163611188530922,-0.010604321956634521,0.08057171106338501,-0.9506124037589705,-0.2839119961684722,-0.025534891630509392,-0.12279221467769039,0.5776437498217003,-0.025280825765407917,0.26443279446521284
1773063765862706432,0.15270638465881348,-0.44862133264541626,0.1165892481803894,0.5215317010879517,-0.022853054106235504,-0.5426287055015564,-0.839661717414856,0.1273299753665924,-0.024509906768798828,0.09001266956329346,-0.9508502499632366,-0.28202111970987276,-0.025163935479900198,-0.12535820470989,0.5735634829124024,-0.027210259382331823,0.27018915128009824
1773063765872761600,0.16276144981384277,-0.5625705718994141,0.1068153977394104,0.6046907305717468,-0.024954181164503098,-0.538224458694458,-0.8424320220947266,0.1464904248714447,-0.021773099899291992,0.09684181213378906,-0.951190376709705,-0.2796058699761181,-0.024587652137107036,-0.12826851135609527,0.5683289871765963,-0.0296129375215369,0.27673339853863915
1773063765882817536,0.17281746864318848,-0.677950382232666,0.0727200135588646,0.6975929737091064,-0.027704134583473206,-0.5328019261360168,-0.8457863330841064,0.161371111869812,-0.001682877540588379,0.08835536241531372,-0.9516185426607005,-0.27666786863186166,-0.02370053696893694,-0.13158715348083308,0.5619081506409158,-0.032743767903158534,0.28426190805735363
1773063765892872448,0.18287253379821777,-0.8458375334739685,0.018023500218987465,0.8096280097961426,-0.03131035715341568,-0.5261243581771851,-0.8498311042785645,0.17738275229930878,0.02346932888031006,0.06813859939575195,-0.9521550194539821,-0.2731002694456753,-0.022376368860561574,-0.1353383914397142,0.5540367017890713,-0.03682638077581872,0.29285839746645176
1773063765902928640,0.19292855262756348,-1.0455639362335205,-0.07533228397369385,0.9550206661224365,-0.03612607344985008,-0.5177169442176819,-0.8547888994216919,0.20391172170639038,0.059693872928619385,0.05286329984664917,-0.9528376059346111,-0.2686797617689874,-0.020413954531648126,-0.1396242893182665,0.5441802545828707,-0.042238016674394106,0.3027858696484316
1773063765912983552,0.20298361778259277,-1.2315104007720947,-0.2085794061422348,1.1219072341918945,-0.04273097589612007,-0.5074971914291382,-0.8605931997299194,0.23988978564739227,0.07599395513534546,0.035657286643981934,-0.9534093076201546,-0.2634052420156365,-0.017918706290819906,-0.14597032473535967,0.5322776695253283,-0.04961218635306595,0.3173747217913121
1773063765923039488,0.21303939819335938,-1.3932989835739136,-0.33479487895965576,1.2579630613327026,-0.051110412925481796,-0.4954976439476013,-0.8671042919158936,0.2830592691898346,0.07911577820777893,-0.020880937576293945,-0.9542642193203369,-0.2573907761656665,-0.014065668706664685,-0.15143343909548831,0.5184076554213621,-0.05887566650610939,0.33037421256544974
1773063765933094400,0.22309446334838867,-1.416621446609497,-0.46355435252189636,1.362989068031311,-0.06106412783265114,-0.48235177993774414,-0.8738466501235962,0.32028043270111084,0.10933542251586914,-0.05613076686859131,-0.9550803157893842,-0.25097593218468683,-0.009368554747739047,-0.15730507068104158,0.5033374915923681,-0.06976627489162972,0.34442103913443695
1773063765943150592,0.23315048217773438,-1.2758861780166626,-0.5047212839126587,1.4455969333648682,-0.07212478667497635,-0.4694884121417999,-0.879987895488739,0.34162551164627075,0.14572742581367493,-0.017793476581573486,-0.9556483018130858,-0.2449259147757504,-0.0041663050297759035,-0.16349398785270328,0.48871126077095495,-0.0817783196819123,0.35928380203644017
1773063765953205504,0.24320554733276367,-1.0507919788360596,-0.49783027172088623,1.4922484159469604,-0.08344916254281998,-0.45797857642173767,-0.8850377798080444,0.3337085545063019,0.13462957739830017,0.030164122581481934,-0.9558403947239702,-0.23975002629051992,0.001020596909665642,-0.16996475576424078,0.4757199653294685,-0.09401087784907379,0.3747641840154005
1773063765963261696,0.2532615661621094,-0.8345292210578918,-0.4449329674243927,1.494657278060913,-0.09448171406984329,-0.4482765793800354,-0.8888876438140869,0.2899315357208252,0.07503136992454529,0.058687448501586914,-0.9556490664157963,-0.23562979504006165,0.00589607733994433,-0.1765747681782705,0.46483642694219696,-0.10589447000415848,0.39050457467033667
1773063765973316352,0.26331639289855957,-0.6874622702598572,-0.41812920570373535,1.4871370792388916,-0.10496297478675842,-0.4399942457675934,-0.891845166683197,0.24574056267738342,0.010367780923843384,0.04544013738632202,-0.9551762440147683,-0.23231334826598654,0.0103881016401821,-0.18319662275167065,0.4555922731537211,-0.11715299813126893,0.40617267566753884
1773063765983372544,0.2733724117279053,-0.5878586769104004,-0.39353781938552856,1.516537070274353,-0.11520706117153168,-0.43265292048454285,-0.8941693305969238,0.22970901429653168,-0.032007694244384766,0.0015912055969238281,-0.9544789623963814,-0.22956431177421444,0.014682093533680444,-0.18988046961081664,0.44743330030412376,-0.12813662344439314,0.4219372369002349
1773063765993427456,0.28342747688293457,-0.5698337554931641,-0.3602353036403656,1.5767130851745605,-0.12526147067546844,-0.4256100654602051,-0.8961950540542603,0.25309962034225464,-0.050296276807785034,-0.09722834825515747,-0.953603254940905,-0.22704268070432468,0.018817152365122262,-0.19682043618650563,0.4396359681044449,-0.13887067221408847,0.43815200441744356
1773063766003482624,0.29348254203796387,-0.6249575018882751,-0.3433729410171509,1.6281629800796509,-0.13521067798137665,-0.4181661009788513,-0.8982511758804321,0.29161328077316284,-0.06555277109146118,-0.16794145107269287,-0.9526235291747404,-0.22438748273332232,0.02290554047452277,-0.20404426438261816,0.4314254933726204,-0.1494048918038958,0.4548033388162891
1773063766013538560,0.30353856086730957,-0.7647364735603333,-0.38020581007003784,1.6794593334197998,-0.1453554779291153,-0.40961480140686035,-0.9006039500236511,0.3355257511138916,-0.10095953941345215,-0.20732146501541138,-0.9516222148819626,-0.22126442971223648,0.02720430862042952,-0.2114642493452676,0.4220317909239134,-0.16001785730899,0.47166969076147885
1773063766023593472,0.31359338760375977,-1.0796517133712769,-0.3749098479747772,1.757136583328247,-0.15574388206005096,-0.39877739548683167,-0.9037258625030518,0.37127429246902466,-0.12864264845848083,-0.24674105644226074,-0.9507123203688705,-0.2170730413510616,0.031880383301128,-0.2191099808144122,0.4101832779553139,-0.17065900159418768,0.48861068518225353
1773063766033649408,0.32364940643310547,-1.5123542547225952,-0.43513599038124084,1.9337100982666016,-0.1666526347398758,-0.384018212556839,-0.9081612825393677,0.3951987624168396,-0.1322018802165985,-0.2506216764450073,-0.9499709929037249,-0.21102800840091562,0.037236288560056244,-0.22723488826757854,0.3941442628943759,-0.18148639138554026,0.505912468626563
1773063766043704576,0.33370447158813477,-1.9694701433181763,-0.5291256308555603,2.2251088619232178,-0.17882560193538666,-0.3644641041755676,-0.9138858318328857,0.41773247718811035,-0.14574402570724487,-0.22135281562805176,-0.9492681817242843,-0.20284848173276318,0.04369868083897314,-0.2362898262665758,0.37305726728821764,-0.19323450989589894,0.5244974158057142
1773063766053760512,0.34376049041748047,-2.4437544345855713,-0.607370138168335,2.533381700515747,-0.1925128549337387,-0.33967599272727966,-0.9206296801567078,0.4288715124130249,-0.16346731781959534,-0.20653706789016724,-0.9484337705051373,-0.19244976649254109,0.051461011928569014,-0.24655299137007988,0.346572375419368,-0.20613960925061675,0.5448649967177329
1773063766063815680,0.35381555557250977,-2.8547518253326416,-0.7423684597015381,2.8278660774230957,-0.20755453407764435,-0.3096095025539398,-0.9279348254203796,0.43103474378585815,-0.16216173768043518,-0.18491917848587036,-0.9473247084580693,-0.179903115387139,0.06055948882385929,-0.2579597879846277,0.31478233297925745,-0.22005161218824315,0.5667760680000374
1773063766073871616,0.36387157440185547,-3.2296531200408936,-0.8553328514099121,3.089521646499634,-0.22377389669418335,-0.2747219502925873,-0.9351219534873962,0.44931405782699585,-0.13523593544960022,-0.14597851037979126,-0.9457679179089636,-0.16552878262233262,0.07098759309435732,-0.2703406532753475,0.27830052399556576,-0.23488219851295555,0.5898819698459186
1773063766083926528,0.37392640113830566,-3.4025254249572754,-0.9787850379943848,3.2605478763580322,-0.24053341150283813,-0.23573656380176544,-0.9415795207023621,0.48432308435440063,-0.04470472037792206,-0.09086066484451294,-0.9436259903382833,-0.14968898298335184,0.0824830884025581,-0.2834779266191754,0.23797641883677675,-0.2501083743998709,0.6137278853269084
1773063766093982464,0.38398241996765137,-3.3602120876312256,-1.1454967260360718,3.2603819370269775,-0.257633775472641,-0.19544583559036255,-0.9462693929672241,0.5147749185562134,0.06838589906692505,0.02547776699066162,-0.9408073645746667,-0.1337484103617566,0.0947452667076365,-0.29667521478526526,0.19671203104201831,-0.26581949556846624,0.637325769395778
1773063766104037632,0.39403748512268066,-3.3657708168029785,-1.3915083408355713,3.369234561920166,-0.27563968300819397,-0.15449835360050201,-0.9487639665603638,0.5077563524246216,0.18094183504581451,0.08378899097442627,-0.9372520185326566,-0.11811655947753331,0.10801160209155379,-0.30974273359468035,0.155119686473827,-0.28274165699436565,0.6604802193827128
1773063766114093568,0.40409350395202637,-3.1173551082611084,-1.565807580947876,3.503147840499878,-0.29446402192115784,-0.11356639117002487,-0.948890745639801,0.5107115507125854,0.33875560760498047,0.048515379428863525,-0.9327261992253658,-0.1031875058704328,0.12209412660168519,-0.32321370416157846,0.11381193537345025,-0.30090166680134195,0.6844244920603719
1773063766124148480,0.41414856910705566,-2.958353042602539,-1.3798160552978516,3.622558355331421,-0.3118300139904022,-0.07398543506860733,-0.9472529888153076,0.4965071380138397,0.4950517416000366,-0.05582928657531738,-0.9273260064515217,-0.08922961210501638,0.13568932335029965,-0.33718365073513223,0.07405310114794918,-0.3180205549401622,0.7093735078991777
1773063766134203392,0.42420339584350586,-3.1274847984313965,-1.1707854270935059,3.8064210414886475,-0.3258896768093109,-0.03328203037381172,-0.9448217749595642,0.3871079385280609,0.6686885356903076,-0.11236816644668579,-0.9212501775157892,-0.07470296143672482,0.14835286167214237,-0.3517229125864266,0.03328817922060559,-0.33214371738828824,0.7349982967983812
1773063766144259328,0.43425941467285156,-3.3365988731384277,-0.9924731850624084,4.15438985824585,-0.3366391658782959,0.0106939896941185,-0.9415730237960815,0.2576597034931183,0.7678247094154358,-0.07139694690704346,-0.9143073900487574,-0.05862926197740068,0.1605493974556412,-0.3671901799844717,-0.01069419313862091,-0.3433659137848321,0.7619238213439917
1773063766154314496,0.44431447982788086,-3.3380866050720215,-0.8134202361106873,4.282833099365234,-0.3436225950717926,0.056902382522821426,-0.9373823404312134,0.17557752132415771,0.727994441986084,-0.02117478847503662,-0.9063939573544089,-0.04141368171305141,0.17202831525822074,-0.38358977055915366,-0.05693313426575434,-0.35136554213327864,0.7905882478085864
1773063766164370432,0.45437049865722656,-3.1045141220092773,-0.7536240220069885,4.093268394470215,-0.3475833237171173,0.1019381582736969,-0.9320914149284363,0.009296000003814697,0.5619106888771057,0.061714887619018555,-0.8979670519104848,-0.024515499618963703,0.1826287872179229,-0.3996258886635916,-0.10211553814155898,-0.35693435953185415,0.8189973139491502
1773063766174425600,0.46442556381225586,-2.5434763431549072,-0.5630361437797546,3.9283852577209473,-0.3488166034221649,0.1425284445285797,-0.9262897372245789,-0.17347651720046997,0.4309273660182953,0.18513983488082886,-0.8893868981573095,-0.009322825095952137,0.19175043622141574,-0.4148925073276746,-0.14301546922125563,-0.36014987306253166,0.8468900855444083
1773063766184481536,0.47448158264160156,-1.953874111175537,-0.301373153924942,3.853377103805542,-0.3466939628124237,0.1768915206193924,-0.9211474657058716,-0.2718057930469513,0.4029729962348938,0.23869812488555908,-0.8807538454593605,0.0035088785493543584,0.1985294588727102,-0.4299377022169285,-0.17782725929884854,-0.3599728337352992,0.8758019805665326
1773063766194536448,0.48453640937805176,-1.4999126195907593,0.0236311424523592,4.008996486663818,-0.3403414189815521,0.20639973878860474,-0.917369544506073,-0.3113462030887604,0.36990946531295776,0.348552405834198,-0.8718883947408954,0.014773299539464074,0.2027239147352259,-0.44552809645713765,-0.20789403121168362,-0.355256651774207,0.9073532352545783
1773063766204592384,0.49459242820739746,-1.164831519126892,0.19088831543922424,4.066187858581543,-0.33043181896209717,0.23217876255512238,-0.9148266911506653,-0.27196991443634033,0.3037404417991638,0.4446881413459778,-0.8626542721310291,0.024912472657574118,0.20485611541885743,-0.4617803541987794,-0.23431705865386,-0.34661404313470223,0.9417741226897797
1773063766214647552,0.5046474933624268,-0.9479480385780334,0.3548106849193573,4.089006423950195,-0.3181636333465576,0.2551501393318176,-0.9130554795265198,-0.18853500485420227,0.24634522199630737,0.4962769150733948,-0.8531068397950278,0.03424054669342556,0.20566924776114406,-0.4782641354754879,-0.2580029786377153,-0.33530253281024974,0.9780110656690806
1773063766224703488,0.5147035121917725,-0.8928549885749817,0.6998295783996582,4.022394180297852,-0.3024473488330841,0.27619636058807373,-0.912272572517395,-0.09721088409423828,0.29422295093536377,0.5206252336502075,-0.8435486163596401,0.04362091865884837,0.20484370295080542,-0.4945322347303995,-0.2798342601026451,-0.3201282837203082,1.015031882093926
1773063766234758656,0.5247585773468018,-0.9195180535316467,1.0488407611846924,3.930338144302368,-0.28294530510902405,0.2962094843387604,-0.9122509956359863,-0.12336573004722595,0.3012331426143646,0.5790295600891113,-0.8341773097511405,0.053727746746183205,0.20245449607057414,-0.5101703111356718,-0.3007215795935288,-0.300753152677788,1.0518848002046155
1773063766244814592,0.5348145961761475,-1.1461092233657837,1.311424970626831,3.701721429824829,-0.25982174277305603,0.3158164322376251,-0.9125528335571289,-0.19722476601600647,0.21900412440299988,0.5528573989868164,-0.8250811230381158,0.06493642188572837,0.198763303060088,-0.5248977313276468,-0.32131701580036554,-0.2773798667481213,1.0879594024900103
1773063766254869504,0.5448694229125977,-1.2952159643173218,1.406495451927185,3.553050994873047,-0.23543599247932434,0.3363632261753082,-0.9118276834487915,-0.26691386103630066,0.16626128554344177,0.587959885597229,-0.8162691985303379,0.07733971031042941,0.19520434982281407,-0.5381621538852115,-0.343052437118388,-0.25268343852969766,1.1217642776736423
1773063766264925440,0.5549254417419434,-1.205181360244751,1.6532466411590576,3.1876235008239746,-0.2095756232738495,0.3555142879486084,-0.9108719229698181,-0.2588692009449005,0.2193300724029541,0.5698074698448181,-0.8079878583560145,0.08999407364284803,0.1909583807135064,-0.5500833496952898,-0.36346424523698273,-0.2261466717505411,1.1537273586106962
1773063766274980608,0.5649805068969727,-1.0031793117523193,1.951686143875122,2.8142290115356445,-0.1821454018354416,0.3714967370033264,-0.9103918075561523,-0.3039690852165222,0.28881213068962097,0.5152807235717773,-0.8008060574501531,0.10230664185506075,0.18530368675822562,-0.560272639005637,-0.3806206010824424,-0.19746637295435177,1.182803235090395
1773063766285035520,0.575035572052002,-0.9615112543106079,2.158015727996826,2.54057240486145,-0.153096005320549,0.3848612308502197,-0.9101886749267578,-0.3694106936454773,0.3513905704021454,0.4841328263282776,-0.7945773598105625,0.11448767118218169,0.1783205744971684,-0.5689825676064592,-0.39505745578640356,-0.1666426188642267,1.2094499644696473
1773063766295091712,0.5850915908813477,-0.9907361268997192,1.9225994348526,2.182067394256592,-0.12447682023048401,0.39718103408813477,-0.9092594385147095,-0.3654676377773285,0.30835485458374023,0.451236367225647,-0.7889775840962863,0.12655611774219291,0.17132955426541627,-0.576319572569418,-0.40844315554179045,-0.13605338382073773,1.233541143734493
1773063766305146368,0.5951464176177979,-1.0588808059692383,2.203167200088501,1.9668904542922974,-0.09795545786619186,0.408964067697525,-0.9072778820991516,-0.33040452003479004,0.30194291472435,0.3322656750679016,-0.7840895187853315,0.13823070115890537,0.16508584941740492,-0.5821018999468772,-0.42131856033848875,-0.1075497272362909,1.2542098895516527
1773063766315202560,0.6052024364471436,-0.936133086681366,2.2338345050811768,1.8934824466705322,-0.06980732083320618,0.4196667969226837,-0.9049898982048035,-0.2884232699871063,0.3294329345226288,0.13120144605636597,-0.7793549160830416,0.15016398665557218,0.15797414436410054,-0.5874528668547231,-0.43307820995601237,-0.07698358333616859,1.274873218256671
1773063766325257472,0.6152575016021729,-0.7992151975631714,1.959815502166748,1.107033610343933,-0.044186607003211975,0.4283807575702667,-0.9025173187255859,-0.4177732467651367,0.18229126930236816,0.09828758239746094,-0.7757395156649154,0.1609393328191304,0.15112867416195735,-0.5911742020275274,-0.44270000868437925,-0.048920226363435626,1.291362064917775
1773063766335313664,0.6253135204315186,-0.5218736529350281,2.065203905105591,0.3917408883571625,-0.021924981847405434,0.43479466438293457,-0.900262713432312,-0.4123401641845703,0.31930994987487793,-0.140691876411438,-0.7747085765277885,0.17043373838787476,0.14429479915276197,-0.5915725844837264,-0.4498102342294757,-0.024349169934600477,1.2987346330242553
1773063766345368576,0.6353685855865479,0.06438343971967697,2.0473473072052,0.6348597407341003,-0.001311535481363535,0.4369969964027405,-0.8994619846343994,-0.4764106273651123,0.5218957662582397,-0.03625267744064331,-0.7745418917204584,0.1777854866353289,0.13660643633741157,-0.591452327474267,-0.4522573002780488,-0.001458132288549275,1.3039812158871764
1773063766355424768,0.6454246044158936,0.913094699382782,1.9492324590682983,1.0541515350341797,0.020455196499824524,0.4327090382575989,-0.9013015627861023,-0.36649399995803833,0.7499691247940063,-0.1635788083076477,-0.7737259501723308,0.18247195172078828,0.12670129680441702,-0.5932949054835696,-0.447495537422606,0.022691279756784245,1.313500102347526
1773063766365479424,0.6554794311523438,2.119474411010742,1.9007594585418701,1.047471523284912,0.04235100373625755,0.41876477003097534,-0.9071066379547119,-0.39785027503967285,0.6744053959846497,-0.3719308376312256,-0.7730239706868381,0.18299121824064637,0.1138459092108829,-0.5966467623542635,-0.43208466302789567,0.04665412913580046,1.3248999851415186
1773063766375535616,0.6655354499816895,3.3191916942596436,2.0049350261688232,0.7645897269248962,0.06404009461402893,0.3930283486843109,-0.9172936081886292,-0.5571889281272888,0.2585524916648865,-0.6871528029441833,-0.7738386541154587,0.17866588087781957,0.09711686766109877,-0.599850578039382,-0.40392266203677785,0.0697010729916542,1.3331001522463337
1773063766385590528,0.6755905151367188,3.459714412689209,1.9126782417297363,0.44211262464523315,0.08467988669872284,0.3603578805923462,-0.9289625883102417,-0.6579373478889465,-0.1269594430923462,-0.8380509614944458,-0.7759199546445833,0.17138120397483803,0.0784039451789472,-0.6020212645406908,-0.36865151752020486,0.09090409605370349,1.3366797250307958
1773063766395646464,0.6856465339660645,2.616593599319458,1.6931864023208618,0.039930541068315506,0.10257705301046371,0.33131271600723267,-0.9379284977912903,-0.6405103802680969,-0.3956437408924103,-0.6942126154899597,-0.7784437872358844,0.16497491234413192,0.06179837349003143,-0.6024860692229068,-0.33769452384323284,0.10893260729192693,1.3359103303715374
1773063766405701632,0.6957015991210938,1.3967121839523315,1.3510456085205078,-0.028967566788196564,0.11678458750247955,0.3122715651988983,-0.9427872896194458,-0.5414977073669434,-0.6194767951965332,-0.3030775785446167,-0.7805992488963132,0.16163876984844402,0.04979230820790269,-0.6017128895898889,-0.317583221013497,0.12324381989987351,1.333165458496362
1773063766415756544,0.705756425857544,0.4323112368583679,0.9448314309120178,0.16905668377876282,0.12782695889472961,0.30390724539756775,-0.9440872073173523,-0.398487389087677,-0.7100657224655151,0.048045337200164795,-0.7813535600720684,0.16167895638725543,0.04261817073090244,-0.6012739273213821,-0.30879121372516743,0.13457900402003156,1.3327415651484111
1773063766425812480,0.7158124446868896,0.3194480538368225,0.8352887034416199,0.24717332422733307,0.136814683675766,0.3005024492740631,-0.9439173936843872,-0.233463853597641,-0.6837116479873657,0.04116165637969971,-0.7811318293303914,0.1630855749450311,0.038005358982013654,-0.6014912000378163,-0.30521940309387,0.1439410816280936,1.3345653383147307
1773063766435867648,0.725867509841919,0.7114272117614746,0.9782708883285522,0.24890732765197754,0.14593617618083954,0.29547685384750366,-0.9441377520561218,-0.22364918887615204,-0.5739802718162537,-0.040603458881378174,-0.7809593915400724,0.16386739172551423,0.03284218253654128,-0.6018067309445734,-0.2999546167572565,0.15335719569098272,1.3363282729672392
1773063766445923584,0.7359235286712646,1.195793867111206,1.092606782913208,0.25770828127861023,0.15661630034446716,0.2859499454498291,-0.9453591704368591,-0.26103219389915466,-0.4113008975982666,-0.07556062936782837,-0.7811178288069005,0.16329148618074318,0.02561844561482479,-0.6021084095475225,-0.2899976209404176,0.16417740226676766,1.33742473383961
1773063766455978752,0.745978593826294,1.4014899730682373,1.125707745552063,0.17398449778556824,0.16781868040561676,0.2729664444923401,-0.9472730159759521,-0.24368539452552795,-0.3650990128517151,-0.056236445903778076,-0.7816675538889337,0.1614707724978262,0.017049043881187723,-0.6021896350500742,-0.27647523319139644,0.17534049630708737,1.337303963070923
1773063766466034688,0.7560346126556396,1.1991451978683472,1.084641456604004,0.14263750612735748,0.1789080649614334,0.26019740104675293,-0.9488357305526733,-0.2270190268754959,-0.39658045768737793,-0.01367342472076416,-0.7823278303101303,0.15971531147219642,0.008553368512772237,-0.6019809144677326,-0.26322663440578214,0.1863672739989347,1.3364382425460979
1773063766476089600,0.7660894393920898,0.8509982824325562,0.9894710779190063,0.062273506075143814,0.18907777965068817,0.2501167953014374,-0.9495742321014404,-0.18877260386943817,-0.4043068587779999,0.03200221061706543,-0.7828573511019612,0.15878070894155633,0.001256239511228858,-0.601599186043832,-0.25280088315387383,0.19654780417127243,1.3354862438833806
1773063766486145536,0.7761454582214355,0.5159862041473389,0.9072081446647644,0.009192979894578457,0.19804002344608307,0.24369312822818756,-0.9494175910949707,-0.12244798243045807,-0.25979116559028625,0.0927433967590332,-0.7832938214553635,0.15896982575934368,-0.004448699971365843,-0.6009654709900147,-0.24617197483706518,0.20564238822094436,1.3344020171504969
1773063766496200448,0.7862005233764648,0.5813040137290955,1.0494846105575562,0.010719597339630127,0.2073490172624588,0.23859339952468872,-0.9487252235412598,-0.0889865905046463,-0.08837060630321503,0.18616724014282227,-0.7836539868506304,0.1598106721313738,-0.009895864651027986,-0.6002075577555381,-0.24091715643946596,0.21517196805711264,1.333355524965374
1773063766506256640,0.7962565422058105,0.7217085361480713,1.2108747959136963,0.014531646855175495,0.21814210712909698,0.23238827288150787,-0.9478448033332825,-0.09160096943378448,0.027041658759117126,0.13268977403640747,-0.7840729513276039,0.16065980806069732,-0.0163106778620516,-0.5992929693129406,-0.23453245986840368,0.22620647283807263,1.3319841479162258
1773063766516311552,0.8063116073608398,0.9686388969421387,1.4471420049667358,0.07625679671764374,0.23086798191070557,0.22435727715492249,-0.9467648863792419,-0.07176460325717926,0.13509400188922882,0.18017864227294922,-0.7844846027396121,0.1613619624314488,-0.024080331203679924,-0.5983029666723256,-0.22628345540344788,0.23918146327078,1.330427743062779
1773063766526367488,0.8163673877716064,1.2670396566390991,1.539117455482483,0.10477978736162186,0.24571025371551514,0.2133590281009674,-0.9455709457397461,-0.05294597148895264,0.11470495164394379,0.2599782943725586,-0.7848990988873483,0.16150429065251615,-0.03362869493157239,-0.5972596182167259,-0.21501186632716282,0.2542311527421386,1.3285139128889552
1773063766536422400,0.8264224529266357,1.2291916608810425,1.6513094902038574,0.15431928634643555,0.2611727714538574,0.2011154294013977,-0.944108784198761,-0.06526517868041992,0.055400073528289795,0.3689287304878235,-0.7852128144447839,0.16132768081742344,-0.04380636382062423,-0.5962340803950098,-0.20249648483823432,0.26988486487078867,1.3264735994475738
1773063766546477568,0.836477518081665,1.107064962387085,1.265170931816101,0.01986774429678917,0.2751792073249817,0.18957477807998657,-0.9425167441368103,-0.07872229814529419,-0.019790232181549072,0.1466183066368103,-0.7855050453424594,0.1609732928347456,-0.053190463384570924,-0.5951808363116149,-0.19072905356664796,0.2840663824196777,1.3241825771039906
1773063766556533504,0.8465335369110107,0.5534150004386902,1.0339752435684204,-0.3515831232070923,0.28602632880210876,0.18192872405052185,-0.9407926797866821,-0.013962119817733765,-0.09138306975364685,-0.32735002040863037,-0.7863349915676006,0.16115729772592963,-0.060265915102222636,-0.5933579396932601,-0.18294755637058577,0.29514712537435334,1.3201306705678575
1773063766566588672,0.85658860206604,0.12530839443206787,0.9945202469825745,-0.43492674827575684,0.2949749231338501,0.18045689165592194,-0.9383097290992737,0.12229195237159729,0.11113858222961426,-0.5025166869163513,-0.787502582160434,0.16321897644566258,-0.06484370692455341,-0.5907577169117473,-0.18145094778351223,0.30458612242210864,1.3151391044803478
1773063766576644608,0.8666446208953857,0.3116046190261841,0.942930281162262,-0.19835060834884644,0.3032212257385254,0.17963062226772308,-0.9358363747596741,0.2157607078552246,0.2581440508365631,-0.4265446066856384,-0.7883272118001938,0.165347598851662,-0.06886206798265948,-0.588607092255014,-0.1806109506882289,0.3133370677602848,1.3113171562918169
1773063766586699520,0.8766994476318359,0.6346889138221741,0.8873090744018555,-0.08633379638195038,0.3118768036365509,0.1755007952451706,-0.9337731599807739,0.2965826690196991,0.2151394635438919,-0.4004400968551636,-0.7887531129906226,0.1662800568465895,-0.07392130093885821,-0.587158436505395,-0.17641443430522455,0.32234711120558823,1.3085869483865809
1773063766596755456,0.8867554664611816,0.43313315510749817,0.8520521521568298,-0.18647003173828125,0.31979742646217346,0.17073926329612732,-0.9319751858711243,0.17371758818626404,0.11379139125347137,-0.39250296354293823,-0.789285281312896,0.166699688262521,-0.0788900011842186,-0.5856759746418836,-0.17157990139870055,0.33054993891986445,1.3054531989062907
1773063766606810624,0.8968105316162109,0.3252682089805603,0.7481648921966553,-0.2544346749782562,0.32710209488868713,0.16804493963718414,-0.9299274682998657,0.022873491048812866,0.05807505548000336,-0.24617421627044678,-0.7899407898922166,0.16775010133056734,-0.08304314265567875,-0.583915482996949,-0.16884607075150265,0.3382330867287456,1.3019888002087583
1773063766616866560,0.9068665504455566,0.18181808292865753,0.6747833490371704,-0.1840038001537323,0.33282095193862915,0.16627351939678192,-0.9282151460647583,-0.06277090311050415,0.018540918827056885,0.0138627290725708,-0.790581586231143,0.16868383296138348,-0.08624498437273151,-0.5823129303079235,-0.1670493745453602,0.34428033126551344,1.2988003309683795
1773063766626921728,0.9169216156005859,0.15765176713466644,0.7883570790290833,0.015571095049381256,0.33980652689933777,0.165312722325325,-0.9258527159690857,-0.03032776713371277,0.12710672616958618,0.2501477599143982,-0.7905757869928189,0.17043032016616386,-0.08959438374894865,-0.5813056951256353,-0.16607508347383426,0.35175628694594413,1.2976252119068004
1773063766636977408,0.9269773960113525,0.4054226279258728,0.884811282157898,-0.017984814941883087,0.34756508469581604,0.16268795728683472,-0.9234344363212585,0.04666095972061157,0.04951602220535278,0.20500487089157104,-0.7904058774001455,0.17174991970004239,-0.09372698682138941,-0.580496260605564,-0.16341429964961038,0.35998268026921443,1.2967199475974218
1773063766647032576,0.9370324611663818,0.7278225421905518,0.8208219408988953,-0.101666659116745,0.3551836311817169,0.15754783153533936,-0.9214245676994324,0.1230573058128357,-0.08717429637908936,0.23838019371032715,-0.7906987990003613,0.17190681890777687,-0.09866990914219839,-0.5792302980233446,-0.1582069754861484,0.36792008630121587,1.2939809270917648
1773063766657088512,0.9470884799957275,0.9952038526535034,0.8130841255187988,-0.07130808383226395,0.362385630607605,0.1497698575258255,-0.9199160933494568,0.11434471607208252,-0.04585748910903931,0.04680818319320679,-0.7912779189966168,0.17078408951041418,-0.10428199720353405,-0.5777866991833513,-0.15033549923181896,0.37526558655738024,1.2900048195868263
1773063766667143680,0.9571435451507568,0.8577669262886047,0.714587390422821,-0.14244617521762848,0.3692590296268463,0.1412959098815918,-0.918522298336029,0.06994995474815369,0.0508427768945694,-0.41523313522338867,-0.7920111737397537,0.16922729286818028,-0.11000436043277301,-0.576176724681829,-0.14177033542698755,0.3822415504580038,1.285345506473356
1773063766677199616,0.9671995639801025,0.3895006477832794,0.45997634530067444,-0.030401019379496574,0.37467634677886963,0.13577859103679657,-0.9171596765518188,-0.02869856357574463,0.05321677029132843,-0.45439183712005615,-0.7924885854643334,0.16848608880838223,-0.11416046031362849,-0.5749276346461352,-0.1361992956062069,0.38782794979800383,1.2820209143276065
1773063766687254528,0.9772543907165527,-0.056065913289785385,0.17764690518379211,0.13104858994483948,0.37769436836242676,0.13424339890480042,-0.9161471724510193,-0.04389309883117676,-0.04272116720676422,-0.4158993363380432,-0.792271175074403,0.16880276658656038,-0.11589662329719766,-0.5747869813248654,-0.1346499038016041,0.3910337538905343,1.2819680328974827
1773063766697309440,0.987309455871582,-0.18711283802986145,0.06509631872177124,0.13238653540611267,0.37877917289733887,0.13487741351127625,-0.9156060814857483,-0.018549680709838867,-0.15669748187065125,-0.2999090552330017,-0.791707175742761,0.1695055345424801,-0.11603812288219718,-0.575328508300128,-0.13528974671900576,0.3922540620766078,1.2837538201937946
1773063766707365632,0.9973654747009277,-0.28119993209838867,0.09474662691354752,0.09681149572134018,0.37962162494659424,0.13660308718681335,-0.9150010943412781,0.026063770055770874,-0.16519805788993835,-0.20386487245559692,-0.7911213733178077,0.17059141885451706,-0.11574978298767809,-0.57587124350073,-0.13703154466080264,0.3932733621894572,1.2857754125226954
1773063766717420544,1.007420539855957,-0.4513379633426666,0.11188331246376038,-0.029329536482691765,0.3806205093860626,0.1396450698375702,-0.9141265153884888,0.07674643397331238,-0.08227202296257019,-0.03709113597869873,-0.7906658341750601,0.1722428120430231,-0.1151918326543696,-0.5761169664765399,-0.14010296848564338,0.3945435798977592,1.2874368004695458
1773063766727476480,1.0174765586853027,-0.42868831753730774,0.02699398621916771,0.060022443532943726,0.38213232159614563,0.144198939204216,-0.9127877950668335,0.0010311305522918701,-0.0828128457069397,0.108115553855896,-0.7901367548527363,0.17469014724986556,-0.11440916359187937,-0.576261855882718,-0.1447034023395346,0.39647399574783027,1.2893829223965894
1773063766737531392,1.027531385421753,0.19137626886367798,0.03349456936120987,-0.005699952598661184,0.38226136565208435,0.14478877186775208,-0.912640392780304,-0.08761414885520935,-0.22254756093025208,0.18969422578811646,-0.7898405018525458,0.17503210158499988,-0.1142084347374315,-0.5766041460421012,-0.14529949161447783,0.3966518371494584,1.2904395662879822
1773063766747587328,1.0375874042510986,0.08521122485399246,0.07058308273553848,-0.34903520345687866,0.3822009861469269,0.14422927796840668,-0.912754237651825,-0.018462002277374268,-0.16688859462738037,-0.11394858360290527,-0.7905556090288464,0.17464026315447795,-0.11455850886136416,-0.5756726356619885,-0.14473406639401576,0.39655110326714155,1.2879166777142326
1773063766757642496,1.047642469406128,0.2185361236333847,0.40160685777664185,-0.14272195100784302,0.3838775157928467,0.14391762018203735,-0.9120996594429016,-0.07436823844909668,0.18150658905506134,-0.03487604856491089,-0.7913233246790615,0.17486458065517793,-0.11563973272326972,-0.574332119149869,-0.14441911594251447,0.3983693006245576,1.2848490796563903
1773063766767698432,1.0576984882354736,0.42680490016937256,0.190414696931839,0.06808162480592728,0.3857748806476593,0.1407177746295929,-0.911798357963562,-0.0391257107257843,0.014113157987594604,-0.013189435005187988,-0.7915418200172547,0.17406650164420887,-0.11748051238400536,-0.5738996568910483,-0.14118637082358865,0.4002537190678968,1.283353433182665
1773063766777753600,1.067753553390503,-0.23687440156936646,-0.028628405183553696,-0.2963985502719879,0.38651084899902344,0.14001864194869995,-0.9115942716598511,-0.057241469621658325,-0.22784823179244995,-0.054195523262023926,-0.7919011152404088,0.173924608850078,-0.11812318079619104,-0.5733147982986083,-0.14048024850640567,0.4010185754367693,1.2818654447985631
1773063766787809536,1.0778095722198486,-0.1702927201986313,0.08765372633934021,-0.15333274006843567,0.3862053155899048,0.14355480670928955,-0.9111737012863159,-0.10841906070709229,0.00845324993133545,0.08671081066131592,-0.792370380527222,0.17520349001888377,-0.11711915188246767,-0.5724824050290689,-0.14405249644026114,0.4009002395200066,1.2806436199143498
1773063766797864448,1.0878643989562988,0.007684736046940088,0.4388652741909027,-0.2708924114704132,0.38961848616600037,0.14413893222808838,-0.9096270799636841,0.035521894693374634,0.08356799185276031,0.025349736213684082,-0.7926030010285812,0.1764248630178776,-0.11857794124914732,-0.571484110946375,-0.14464276373366095,0.40468586089325864,1.2791146945836573
1773063766807920384,1.0979204177856445,-0.992901623249054,0.34880754351615906,0.1515139788389206,0.39296916127204895,0.1501273810863495,-0.9072138667106628,-0.04982951283454895,-0.03565596044063568,0.021105468273162842,-0.7921976852630814,0.18000713225028642,-0.11828144154624631,-0.5709901654068036,-0.15069711904216984,0.40876227385226016,1.2803488613746095
1773063766817975552,1.1079754829406738,-1.3614364862442017,-0.7177386283874512,0.2481747418642044,0.3920997083187103,0.16047413647174835,-0.9058178067207336,-0.2852881848812103,-0.20779164135456085,-0.41118353605270386,-0.7906421285021039,0.18436578620116448,-0.11445682599381417,-0.5725328510945171,-0.16117098901372795,0.40851616466562696,1.286939339653591
1773063766828031488,1.1180315017700195,0.5022929310798645,-0.6214725971221924,0.8649277091026306,0.38493096828460693,0.162109375,-0.9085971117019653,-0.38065850734710693,-0.325531005859375,0.11985504627227783,-0.7888880980056476,0.18320571835029484,-0.11016857766870249,-0.5761545341724977,-0.16282792472595614,0.40073018430522567,1.2947346489364655
1773063766838086656,1.1280865669250488,0.5700510740280151,-0.22085866332054138,-0.09325163066387177,0.381944864988327,0.15441037714481354,-0.9111945629119873,0.2895791828632355,-0.016562476754188538,-0.1620781421661377,-0.788727784345327,0.17913443609016247,-0.11096652550181357,-0.577499522196664,-0.15503065108137057,0.39692171651104763,1.295249313528084
1773063766848141568,1.1381416320800781,0.4799794554710388,0.5316252112388611,0.1589379906654358,0.38352420926094055,0.15021662414073944,-0.9112322330474854,0.5215051174163818,0.7631744742393494,0.23014092445373535,-0.7889879621672083,0.1778298250337756,-0.11296215981726304,-0.5771603372177244,-0.15078738140071835,0.39838027678168597,1.293631425332425
1773063766858197760,1.1481976509094238,0.34459900856018066,0.4287951588630676,-0.016799628734588623,0.3887002766132355,0.14549975097179413,-0.9098032116889954,0.46843165159225464,0.3331837058067322,-0.18428242206573486,-0.788779816739691,0.17749452289751652,-0.11659364588041916,-0.5768257837123515,-0.14601808135258776,0.4037626345265003,1.2927722812790845
1773063766868252416,1.158252477645874,-0.5273388028144836,-0.10392706841230392,-0.286239355802536,0.38993707299232483,0.1467220038175583,-0.9090774059295654,0.04103216528892517,-0.435921847820282,-0.21548008918762207,-0.789114129572509,0.17830864713279143,-0.11690734371741848,-0.5760533890222715,-0.14725359114420622,0.4052007224759447,1.2914566592979277
1773063766878308608,1.1683084964752197,-1.329386591911316,-0.43662211298942566,-0.27135026454925537,0.38682642579078674,0.15670721232891083,-0.9087398648262024,-0.07786646485328674,-0.390471875667572,-0.1613132357597351,-0.7892656010762258,0.18147016508828764,-0.11268824230830687,-0.5756993716307911,-0.15735579085065535,0.4024409156051399,1.2925486388483047
1773063766888363520,1.178363561630249,-1.5921684503555298,-0.46084222197532654,-0.03236616775393486,0.3823746144771576,0.17081376910209656,-0.9080816507339478,-0.09248816967010498,-0.12799763679504395,-0.17603999376296997,-0.7886144069503467,0.1860878626764425,-0.10644470449942935,-0.5763056189022928,-0.17165552461540645,0.3985453085055812,1.296924318610852
1773063766898419712,1.1884195804595947,-1.5208500623703003,-0.6127809882164001,0.15556971728801727,0.37796229124069214,0.1851707249879837,-0.9071142673492432,-0.11949369311332703,-0.004766061902046204,-0.19415831565856934,-0.7871230747045459,0.19096132330104865,-0.09988310751014018,-0.5779225426506992,-0.1862455929435405,0.3947892625471583,1.304004775342295
1773063766908474624,1.198474645614624,-0.3240833282470703,-0.15201100707054138,-0.19877824187278748,0.3738051950931549,0.19283315539360046,-0.9072403311729431,-0.053034961223602295,-0.09478019177913666,-0.10691976547241211,-0.7863817984263118,0.1929846731960064,-0.0955862882992019,-0.5789852785836566,-0.19404868415793025,0.3908291084621263,1.3078314335110768
1773063766918530560,1.2085304260253906,-1.134669542312622,0.05666249245405197,-0.4166897237300873,0.37240326404571533,0.20027907192707062,-0.9062031507492065,0.10115325450897217,-0.17992383241653442,-0.10476791858673096,-0.7869725804702312,0.19555307192531543,-0.0930452837386969,-0.5777333997666838,-0.20164275885562027,0.389909372902279,1.3064694225316558
1773063766928585472,1.21858549118042,-1.5020231008529663,0.3218533992767334,-0.10272833704948425,0.3738190829753876,0.21353985369205475,-0.9025852084159851,0.22032764554023743,0.15955279767513275,0.04559057950973511,-0.7861354206547018,0.2016623083144934,-0.08966449475540726,-0.577307222227858,-0.21519695685002974,0.39265752839822277,1.3097935883627636
1773063766938641664,1.2286415100097656,-1.9502599239349365,0.020221516489982605,-0.2942192554473877,0.37519535422325134,0.2296641319990158,-0.8980439305305481,0.06291496753692627,-0.2520182728767395,-0.2010771632194519,-0.7848813918933367,0.20903858839795825,-0.08532829163044577,-0.5770469680483739,-0.23173257697469585,0.39574939730803177,1.314589459861903
1773063766948696576,1.238696575164795,-2.340817451477051,-0.22035379707813263,-0.27619072794914246,0.3733690679073334,0.25035300850868225,-0.8932631015777588,-0.23678764700889587,-0.46408286690711975,-0.1676652431488037,-0.7834490111002744,0.2173726974582073,-0.07821491954566677,-0.5769221784843135,-0.25304485552590156,0.3959124752364434,1.320482334463879
1773063766958752512,1.2487525939941406,-2.6336324214935303,-0.02599954791367054,-0.2901744842529297,0.3713951110839844,0.27357569336891174,-0.8872553110122681,-0.11811450123786926,-0.27116480469703674,-0.09650927782058716,-0.7815440688328519,0.2268215802533951,-0.07017340470078756,-0.5769025629018597,-0.27710858531242827,0.3964277718009567,1.3277592622334937
1773063766968807680,1.25880765914917,-2.8725855350494385,0.11599646508693695,-0.37046241760253906,0.3709254264831543,0.2993672490119934,-0.8790867924690247,-0.0542445182800293,-0.1337483525276184,-0.09222668409347534,-0.7792517253585753,0.237938667463555,-0.06198222574411388,-0.5764634828729209,-0.3040294259804498,0.3992793650260692,1.3358116785788972
1773063766978863360,1.2688634395599365,-2.9618632793426514,0.08082795143127441,-0.4556161165237427,0.3705424964427948,0.32659927010536194,-0.8695005178451538,0.0023670494556427,-0.17715469002723694,-0.01599752902984619,-0.7768399188483631,0.24979132468675183,-0.053423115337523114,-0.5755606011923585,-0.33270328573024466,0.4028490313070366,1.3438457734020353
1773063766988918528,1.2789185047149658,-2.945694923400879,0.0522431805729866,-0.4937717616558075,0.36939090490341187,0.35415831208229065,-0.8591403961181641,0.020913660526275635,-0.18560972809791565,0.05524635314941406,-0.7744031290938684,0.2616361956230743,-0.04445554210879889,-0.5743431025846386,-0.3620138881809498,0.4060592887631331,1.3515985083340436
1773063766998973696,1.2889735698699951,-2.618271589279175,0.19635416567325592,-0.45042967796325684,0.36868658661842346,0.3799673616886139,-0.8483484387397766,0.00484853982925415,-0.04642549157142639,-0.011057078838348389,-0.7719866189274864,0.2729729390185252,-0.03621554296789054,-0.5728970209129051,-0.389761008808148,0.4099681748124271,1.3588901263641793
1773063767009029632,1.2990295886993408,-2.2146761417388916,0.2542870044708252,-0.39943361282348633,0.36896148324012756,0.4020126760005951,-0.838005542755127,-0.043979793787002563,0.035456836223602295,-0.10933637619018555,-0.7697946900493605,0.2830602290080676,-0.029565927377579352,-0.5713308951009076,-0.4137139009188768,0.41474585592271906,1.3652131334933613
1773063767019084800,1.3090846538543701,-1.8839457035064697,0.24878180027008057,-0.3312194347381592,0.3696140944957733,0.42047616839408875,-0.8286044001579285,-0.06924483180046082,0.012675076723098755,-0.21495944261550903,-0.7678571239853373,0.2917416300209933,-0.02417910623337274,-0.5698224927882173,-0.4339700869871269,0.41957944930537916,1.3706558714672918
1773063767029140480,1.3191404342651367,-1.8208087682724,0.33109745383262634,-0.29918134212493896,0.3704157769680023,0.43667441606521606,-0.8198216557502747,-0.04210770130157471,-0.08556970953941345,-0.24440252780914307,-0.7660199970654723,0.2995131672555797,-0.019519854142378876,-0.5684400734977314,-0.45189868710454933,0.42437040079139937,1.3757744245481334
1773063767039195648,1.329195499420166,-2.1489646434783936,0.3754854202270508,-0.36022740602493286,0.3721746802330017,0.45415830612182617,-0.809460461139679,-0.05097717046737671,-0.13494449853897095,-0.14140623807907104,-0.7638879944992927,0.3082996613125057,-0.014869444471575791,-0.5667497180563402,-0.47142724835413935,0.4309581191471596,1.3816720047346054
1773063767049251584,1.3392515182495117,-2.5092990398406982,0.22381412982940674,-0.4217269718647003,0.37315961718559265,0.4745534360408783,-0.7972145080566406,-0.09892866015434265,-0.12071734666824341,0.07048416137695312,-0.7613043826144403,0.31829701157083645,-0.008930603842975041,-0.5648211832421903,-0.49445662856259553,0.4377865342843884,1.3887850424085266
1773063767059306496,1.349306583404541,-2.690412759780884,0.352517306804657,-0.3935571312904358,0.37324294447898865,0.4968283772468567,-0.7834866046905518,-0.030866235494613647,-0.04010230302810669,0.16933560371398926,-0.7582162861539046,0.3290185315550992,-0.001870714444555771,-0.5628955389122978,-0.5199403649409424,0.4445795022391638,1.3973274988213367
1773063767069362688,1.3593626022338867,-2.831667423248291,0.5640782713890076,-0.36407381296157837,0.37491777539253235,0.5197775959968567,-0.7676378488540649,0.01686689257621765,0.014325737953186035,0.14413326978683472,-0.7546374554126843,0.3408195866154632,0.004804278454812596,-0.560661349362754,-0.5465905977527731,0.45432822956985236,1.4073616831951088
1773063767079417344,1.369417428970337,-2.826291561126709,0.5083057880401611,-0.3403628468513489,0.37728530168533325,0.5428759455680847,-0.7502943277359009,-0.004024803638458252,-0.011458098888397217,0.12389051914215088,-0.7506867420410411,0.3531636485477766,0.0113263940185841,-0.5582262772655847,-0.573857809897223,0.4659248184429082,1.4186070376900857
1773063767089473536,1.3794734477996826,-2.674818515777588,0.3630676567554474,-0.35588639974594116,0.37865233421325684,0.5646345019340515,-0.7333554625511169,0.052347421646118164,-0.0016919970512390137,0.09797954559326172,-0.7467329511001835,0.3646906983196943,0.017970864449037685,-0.5559385075701171,-0.599990356098241,0.47662490944121916,1.4299452903915075
1773063767099528448,1.389528512954712,-2.3716776371002197,0.22918440401554108,-0.3034197688102722,0.379284143447876,0.5846061706542969,-0.7172023057937622,0.06888175010681152,0.12254709005355835,0.05422323942184448,-0.7429680994423988,0.37523755867082903,0.024405282850373633,-0.5537143235178023,-0.6243945658598405,0.4864512864926123,1.4407714217379572
1773063767109584640,1.3995845317840576,-1.820569634437561,0.33092328906059265,-0.21967507898807526,0.380023330450058,0.600703775882721,-0.7033755779266357,0.0014921724796295166,0.18649709224700928,-0.05227011442184448,-0.7396601211301798,0.3839731693732057,0.029611023651327274,-0.5518972924785548,-0.6443811111834487,0.49535393831883956,1.4504921124329482
1773063767119639552,1.409639596939087,-1.4207783937454224,0.33621707558631897,-0.21410711109638214,0.3812544047832489,0.6128716468811035,-0.6921224594116211,-0.0308820903301239,0.18967962265014648,-0.1778879165649414,-0.7372024047188759,0.39094856926647265,0.03313594519968533,-0.5500853962112118,-0.6596896518929805,0.5034941804178193,1.4577583498476034
1773063767129694720,1.4196946620941162,-1.8126494884490967,0.514828085899353,-0.10351428389549255,0.38287192583084106,0.6243575811386108,-0.6808720827102661,-0.034071266651153564,0.02398836612701416,0.07949268817901611,-0.7345469970411659,0.39778978500484063,0.03643149082281592,-0.5485223896798068,-0.6743088230663151,0.512257112537569,1.4659198938590308
1773063767139750400,1.4297504425048828,-2.2168009281158447,0.2655423879623413,-0.32409393787384033,0.38423970341682434,0.6389021873474121,-0.6664562225341797,0.09702250361442566,0.017546236515045166,-0.04390144348144531,-0.7311093361052128,0.4063173815060954,0.040964246624954195,-0.5465411973850905,-0.6930703311648237,0.5229920025418359,1.4765467051612082
1773063767149805568,1.439805507659912,-2.3317110538482666,0.22847597301006317,-0.321056067943573,0.3834097683429718,0.6553162932395935,-0.6508128643035889,0.1516701579093933,-0.04104328155517578,0.24045830965042114,-0.7273935905961316,0.41517597200995165,0.04714307244440327,-0.5443389498145301,-0.7146012923070956,0.5323843736689516,1.4877623442712793
1773063767159861504,1.4498615264892578,-1.918526530265808,-0.09162637591362,-0.18749836087226868,0.38215795159339905,0.6701643466949463,-0.6362665295600891,0.20185694098472595,0.08462691307067871,0.2569482922554016,-0.7236072807502243,0.4231179601172467,0.053272183542413254,-0.5427023664409186,-0.7344302021892507,0.5408793604304039,1.4994750966509212
1773063767169916672,1.459916591644287,-1.1300952434539795,0.0440819188952446,-0.20875199139118195,0.380859375,0.6805171370506287,-0.6259732246398926,0.2082061767578125,0.24421119689941406,0.038921892642974854,-0.7208688619822273,0.42856704519550426,0.05782443871627802,-0.541603748583673,-0.7484681755616954,0.5465931889812601,1.5079881190227025
1773063767179972608,1.4699726104736328,-0.653268039226532,0.17843349277973175,-0.08981476724147797,0.3805322051048279,0.6864957213401794,-0.6196117997169495,0.13260561227798462,0.3345918655395508,-0.10846126079559326,-0.7194710832723223,0.4319559952066469,0.06006757042364905,-0.5405249174532164,-0.7566587320220836,0.5507561876250515,1.5123230544395223
1773063767190027520,1.480027437210083,-1.1547768115997314,0.17050765454769135,-0.13873116672039032,0.38127559423446655,0.6921826004981995,-0.6127904653549194,-0.012012898921966553,-0.011396527290344238,0.06144469976425171,-0.7178894018764846,0.4356412766530847,0.06181794847273462,-0.5394719334735992,-0.7645088490678877,0.5565802069290144,1.5176020115506694
1773063767200083456,1.4900834560394287,-2.1746277809143066,0.12383098900318146,-0.17824766039848328,0.38009336590766907,0.7032912969589233,-0.6007581353187561,-0.04383543133735657,-0.30830228328704834,0.23799574375152588,-0.7145765399320582,0.44176385657097333,0.06682524657905735,-0.5382930941443389,-0.7800167314088804,0.5641097172901761,1.5283438463609285
1773063767210138624,1.500138521194458,-2.5647969245910645,0.13277573883533478,-0.2985045611858368,0.37842118740081787,0.7181185483932495,-0.5840404033660889,0.005871415138244629,-0.280053973197937,0.36173510551452637,-0.7100814686104111,0.45007427065670325,0.07357273667763907,-0.5364741908056393,-0.8010949890827028,0.5749233454272219,1.5431212756155603
1773063767220194560,1.5101945400238037,-2.6225736141204834,0.20607446134090424,-0.28704217076301575,0.3768223822116852,0.7341161966323853,-0.564870297908783,-0.01773729920387268,-0.052490830421447754,0.7159475684165955,-0.7051482459473601,0.4593989180468767,0.08073097636687329,-0.5340423831354426,-0.8243642018200628,0.5882993640315581,1.5597468119837974
1773063767230249728,1.520249605178833,-1.0827420949935913,1.0895848274230957,0.9474925398826599,0.37947705388069153,0.7453871369361877,-0.5480831861495972,0.006722897291183472,0.26950544118881226,0.5358303785324097,-0.7003750040975567,0.46774480186932366,0.08469478907365459,-0.5324626449427335,-0.8411154198263706,0.6055876293009527,1.5777017460758458
1773063767240305664,1.5303056240081787,0.4408828020095825,0.19985516369342804,1.2161188125610352,0.3952085077762604,0.7394540309906006,-0.5449936389923096,0.4205416142940521,0.5634787082672119,-0.28075098991394043,-0.6971842981862842,0.47058334928807377,0.07781067609131945,-0.5351924140622883,-0.8322589704148055,0.6274141905413149,1.5942076302333377
1773063767250360576,1.540360450744629,1.2075728178024292,-1.1909657716751099,0.14147253334522247,0.3978472352027893,0.7321528196334839,-0.5528741478919983,0.7706097960472107,0.4869633913040161,-0.08054864406585693,-0.6971665520277257,0.4667641056422222,0.07545980684751238,-0.5388839066662996,-0.8214771801778162,0.6237583366106936,1.5950656450460827
1773063767260416512,1.5504164695739746,0.819206714630127,-1.4533578157424927,-0.3983803689479828,0.38844260573387146,0.7267985343933105,-0.5664593577384949,0.40382423996925354,-0.030448436737060547,-0.03656798601150513,-0.6997481197494609,0.4590267098519469,0.07787685651812812,-0.5418322828892879,-0.8136493168243474,0.6010897771558346,1.5832818779367128
1773063767270471680,1.560471534729004,0.14835087954998016,-1.0988024473190308,0.061426904052495956,0.37934064865112305,0.7249996662139893,-0.5748705267906189,-0.08391526341438293,-0.3365873098373413,-0.1099439263343811,-0.7008745137209097,0.4537456923224229,0.08172879936399728,-0.5442519091583464,-0.8110339486869831,0.5832834853117529,1.576880709901699
1773063767280526592,1.5705265998840332,-1.4051928520202637,-0.25294503569602966,0.006975742522627115,0.3749738037586212,0.7286962866783142,-0.5730587840080261,-0.19214299321174622,-0.2637304663658142,0.18841522932052612,-0.6990465260487855,0.4539191591925087,0.08618584714778213,-0.5457685865229885,-0.8164163216506538,0.579418319818338,1.5822035310401112
1773063767290582784,1.580582618713379,-1.1245869398117065,-0.5456440448760986,0.5018429756164551,0.37497997283935547,0.7351288199424744,-0.5647792220115662,-0.19129467010498047,-0.16261905431747437,0.41380882263183594,-0.6950921105375113,0.45764012988089653,0.0904206242265417,-0.5470251327305488,-0.8258566455052878,0.5861130866138434,1.5963799837138266
1773063767300637440,1.590637445449829,-0.6788336038589478,-0.6535716652870178,0.35998767614364624,0.3749236464500427,0.7386236786842346,-0.5602386593818665,0.026672422885894775,0.18763059377670288,0.19083863496780396,-0.6914165914813254,0.45938834796692696,0.09403732714548511,-0.5496020816046994,-0.8310263972796748,0.5897691211240979,1.6096720194018175
1773063767310693376,1.6006934642791748,0.07819095999002457,-0.8427413105964661,0.2520095407962799,0.372909277677536,0.7391405701637268,-0.560900866985321,0.03678920865058899,0.4558362364768982,0.16342473030090332,-0.6895644214392609,0.4584625109962416,0.09675577729970987,-0.5522239610099487,-0.8317935240056815,0.586736842568612,1.6157647950596352
1773063767320748544,1.610748529434204,0.32679954171180725,-0.9162493944168091,0.1508188396692276,0.3694070875644684,0.7370182871818542,-0.5659879446029663,-0.020209699869155884,0.4802820682525635,0.10956704616546631,-0.689095034122645,0.45526250393062273,0.09870203895523946,-0.5551053109591471,-0.8286480717416013,0.5782545696160117,1.6164001701452773
1773063767330804480,1.6208045482635498,0.10266231745481491,-1.1502679586410522,-0.01978512853384018,0.3640543818473816,0.7353200912475586,-0.5716368556022644,-0.06186935305595398,0.31240934133529663,0.19224238395690918,-0.6889460343303042,0.45155186769123096,0.10140259943863693,-0.5578276469807039,-0.8261388553599602,0.5670846122804478,1.615285937833009
1773063767340859648,1.630859613418579,-0.7027287483215332,-1.373965859413147,-0.3047023415565491,0.35552850365638733,0.7375743985176086,-0.5740935802459717,-0.11266961693763733,0.04193609952926636,0.3083465099334717,-0.6881377270056649,0.44890674828027094,0.10693895741102843,-0.5599224883457177,-0.8294711991359487,0.5544803030221126,1.6153282160871123
1773063767350915584,1.6409156322479248,-2.1601643562316895,-1.5792065858840942,-1.2401803731918335,0.3403625190258026,0.7483528256416321,-0.569316565990448,-0.2011566162109375,-0.23814475536346436,0.261577308177948,-0.6863281258637502,0.4487445804789014,0.11819487875112523,-0.5600106263361592,-0.8455752954753036,0.5388327600516601,1.6159906130667563
1773063767360970496,1.650970458984375,-2.8333020210266113,-1.1288777589797974,-1.2799128293991089,0.32325130701065063,0.7673395872116089,-0.5538036227226257,-0.3298889100551605,-0.5066890120506287,0.2997448444366455,-0.6830243515560023,0.4532107679104066,0.13303452240531868,-0.5571171138802363,-0.8746819589049117,0.5283427724525598,1.6200316694816554
1773063767371026432,1.6610264778137207,-2.2428030967712402,-0.9399373531341553,-1.0903775691986084,0.3084244430065155,0.7851143479347229,-0.5370938777923584,-0.1645340621471405,-0.3197517991065979,0.0335538387298584,-0.6797950277111715,0.4582982318076966,0.14634132840660508,-0.5535572832887645,-0.9028807096208535,0.5212680238369807,1.6239833031324264
1773063767381081600,1.67108154296875,-1.70476496219635,-0.8701238632202148,-1.170151710510254,0.29501962661743164,0.7987504601478577,-0.5243674516677856,0.05568838119506836,0.1331801414489746,-0.25784385204315186,-0.6776255702013491,0.46160162930090215,0.15729024550365153,-0.5504610181567516,-0.9252154865132478,0.5124806392741419,1.6242850098074055
1773063767391137536,1.6811375617980957,-1.2346739768981934,-1.0612481832504272,-1.1825265884399414,0.28010058403015137,0.8099687695503235,-0.5152614116668701,0.18105050921440125,0.244123637676239,-0.17455792427062988,-0.6768123675599383,0.46295680718443427,0.16745230911767484,-0.547316911314234,-0.9440988229931842,0.4979230111678883,1.618164225125462
1773063767401192704,1.691192626953125,-0.8123660683631897,-1.3849821090698242,-0.6597371697425842,0.2661556303501129,0.8175954818725586,-0.5105867385864258,0.2796207368373871,0.055817604064941406,-0.08381938934326172,-0.6760313132369211,0.46212498001537894,0.1764855121655168,-0.5461456544112072,-0.9572225808443537,0.4805216722396963,1.6119149463504618
1773063767411247616,1.7012474536895752,-0.7930307388305664,-1.8991200923919678,-0.5339192748069763,0.2532387971878052,0.8231552243232727,-0.5082181692123413,0.3326071500778198,0.024897754192352295,-0.08481466770172119,-0.6741484945264222,0.45984624039436545,0.1855595315964272,-0.5473874773001911,-0.9669456208157837,0.46227669824470735,1.6098738640370296
1773063767421303552,1.711303472518921,-1.1499323844909668,-1.9807058572769165,-1.0716925859451294,0.23669396340847015,0.8297824859619141,-0.5054078698158264,0.17906227707862854,0.003332197666168213,-0.13050222396850586,-0.6722793465083707,0.4567857813530462,0.19657776673288493,-0.5484018222085623,-0.978717854533668,0.43798616090110604,1.6044813371493796
1773063767431358464,1.7213585376739502,-1.7332996129989624,-1.77826726436615,-1.4672473669052124,0.21634089946746826,0.840164303779602,-0.4973134398460388,-0.08925046026706696,-0.13916027545928955,-0.13026529550552368,-0.6705707889916955,0.4552720981950605,0.20992996998257615,-0.5468012493327914,-0.9975860652473089,0.41032629125534303,1.5938996868792559
1773063767441414656,1.731414556503296,-1.8861593008041382,-1.6181048154830933,-1.5022108554840088,0.19512633979320526,0.852418065071106,-0.4850867986679077,-0.16405946016311646,-0.23980820178985596,-0.17503893375396729,-0.6686572221348113,0.4552160480130213,0.2241315306054706,-0.5435448505799104,-1.020592706955856,0.38244483428916687,1.580981447502471
1773063767451469568,1.7414696216583252,-1.6528428792953491,-1.4788379669189453,-1.6104689836502075,0.17525430023670197,0.8635758757591248,-0.47278186678886414,-0.10378213226795197,-0.09039777517318726,-0.20042067766189575,-0.666808764630351,0.45526275713914366,0.23737079693034924,-0.540145383986151,-1.0423190828679576,0.3549844509631218,1.5669139320120786
1773063767461525760,1.751525640487671,-0.8161706328392029,-1.4303255081176758,-1.535083532333374,0.15386612713336945,0.872404932975769,-0.4639340043067932,-0.01946672797203064,0.18943887948989868,-0.1378268301486969,-0.6664445952699198,0.45354285967666746,0.2496635063873623,-0.5364872347411385,-1.060101183002965,0.3202394581858396,1.5442771075390183
1773063767471580416,1.761580467224121,0.04946034774184227,-1.2998147010803223,-1.231061577796936,0.13561685383319855,0.8759586811065674,-0.46293017268180847,0.08409444987773895,0.21678411960601807,0.11051318049430847,-0.6676266382530351,0.44930846511879113,0.25817981786801797,-0.5345462461579871,-1.0674196673225211,0.2849793370208497,1.5194363773144886
1773063767481636608,1.7716364860534668,0.34649762511253357,-1.3896613121032715,-1.21706223487854,0.11839333921670914,0.8764623999595642,-0.46668705344200134,0.16094930469989777,0.35145819187164307,0.19816285371780396,-0.6696681487289099,0.4432651221171342,0.2649009382319954,-0.5337491711046114,-1.0684647911169158,0.24844757868376793,1.4933398983698625
1773063767491691520,1.781691551208496,0.42596128582954407,-1.4093900918960571,-1.3580701351165771,0.10109617561101913,0.8759183883666992,-0.471748411655426,0.07093138992786407,0.2969026565551758,-0.013420045375823975,-0.6720522347653058,0.43659607153570906,0.27112665883702974,-0.533122904814354,-1.0673361095457536,0.2111079918549167,1.4662913543461884
1773063767501747712,1.7917475700378418,0.37737375497817993,-1.1002423763275146,-1.7815909385681152,0.08116761595010757,0.8755524158477783,-0.47625601291656494,-0.023565709590911865,0.10882258415222168,-0.22161996364593506,-0.6753321059328034,0.42973291508364375,0.2778517911840803,-0.5310881170608028,-1.0665781075073006,0.1688066364401863,1.4326072411037865
1773063767511802624,1.801802635192871,0.3042002022266388,-1.11963951587677,-2.0597312450408936,0.05884271860122681,0.8752958178520203,-0.479994535446167,-0.1202898621559143,0.018121540546417236,-0.155167818069458,-0.6796850726334085,0.4229422216284798,0.2848203076703809,-0.527281174550229,-1.0660471602459465,0.12198176025936001,1.3916110298138393
1773063767521858816,1.8118586540222168,0.8408933281898499,-1.1917506456375122,-1.945029616355896,0.035309240221977234,0.873718798160553,-0.4851481020450592,0.010375577956438065,0.08766120672225952,-0.1644948422908783,-0.6844656119389573,0.4151208114134756,0.29172018629212265,-0.5235272467026898,-1.0627956202189328,0.07265223406275204,1.3486172631763391
1773063767531913472,1.821913480758667,1.4909735918045044,-1.1530834436416626,-1.5952636003494263,0.014209350571036339,0.8682821393013,-0.4958671033382416,0.1434749960899353,0.10582363605499268,-0.15678182244300842,-0.6898005499998866,0.4053526610408173,0.29623584259712,-0.5216403960636716,-1.0517288238733582,0.02864772407532401,1.311566110474133
1773063767541968640,1.8319685459136963,1.7569217681884766,-1.1552575826644897,-1.569443702697754,-0.005362593103200197,0.8600753545761108,-0.510138750076294,0.214606374502182,0.17294460535049438,-0.06206578016281128,-0.6954988006956799,0.3942604468294204,0.2991476553478332,-0.5209133725992561,-1.0354173782045173,-0.010511640888105358,1.2797067778836553
1773063767552024576,1.842024564743042,1.9265621900558472,-1.1655381917953491,-1.5166572332382202,-0.024728553369641304,0.8502427339553833,-0.5258095860481262,0.19199542701244354,0.11479932069778442,-0.014427781105041504,-0.7014110088802301,0.38241880196934,0.3014150985800645,-0.5205068127555291,-1.0164462624233097,-0.04699485571064221,1.2506519962770026
1773063767562079744,1.8520796298980713,2.0616872310638428,-1.1654186248779297,-1.5568572282791138,-0.04402124136686325,0.8390082716941833,-0.542335033416748,0.15443383157253265,0.02112966775894165,-0.0003895759582519531,-0.7074037598045749,0.36996619768636935,0.30324494060511487,-0.5203339969643727,-0.9954580036445163,-0.08099226545538235,1.224358722309853
1773063767572135680,1.862135648727417,2.4097042083740234,-1.0560170412063599,-1.5677125453948975,-0.0633544996380806,0.8259117007255554,-0.5602286458015442,0.0630035474896431,0.08741837739944458,-0.030744194984436035,-0.713846011748438,0.356756030850361,0.3043202471362917,-0.5201328858703053,-0.9718173121264637,-0.11260845616618383,1.1998540570531977
1773063767582190592,1.8721904754638672,3.1288070678710938,-0.9942521452903748,-1.3895065784454346,-0.08144619315862656,0.8090218305587769,-0.5821083784103394,0.02451566606760025,0.15397560596466064,-0.043578267097473145,-0.7210281112896681,0.3418950549420952,0.3034033380645809,-0.520742360246698,-0.9424860267049475,-0.13901342206741907,1.1800535534507703
1773063767592246528,1.882246494293213,3.693527936935425,-1.1068795919418335,-1.3455489873886108,-0.09867752343416214,0.7871943712234497,-0.6087591648101807,0.11649978905916214,0.16173440217971802,-0.06784600019454956,-0.7287299296081697,0.3245124464116268,0.30051970917857107,-0.5228118319589063,-0.9062463297110251,-0.16069842695874442,1.1662803405236344
1773063767602301696,1.8923015594482422,3.7298784255981445,-1.2958464622497559,-1.679246425628662,-0.11766216903924942,0.7620800137519836,-0.6367021799087524,0.18747112154960632,0.17316162586212158,0.02319204807281494,-0.7367912590155334,0.3053312730664613,0.29735788308535316,-0.5248712454784369,-0.8665195584192364,-0.18273776919935705,1.1532508889070905
1773063767612357632,1.902357578277588,3.1386306285858154,-1.325777292251587,-2.2283599376678467,-0.14169196784496307,0.7371146082878113,-0.660746157169342,0.12255743145942688,0.10678797960281372,0.17194616794586182,-0.7451667378819288,0.2859894341171684,0.2963730032288672,-0.5244995172281189,-0.8287905773706927,-0.21124309563891697,1.133437146304974
1773063767622412800,1.9124126434326172,3.1090004444122314,-1.3252521753311157,-1.7364732027053833,-0.1653626561164856,0.7131064534187317,-0.6812741756439209,0.03227546811103821,-0.08139252662658691,0.17623871564865112,-0.7528454182453009,0.26784548546217496,0.2960096457971435,-0.5233172989024945,-0.7939193558592407,-0.23812050637111726,1.1146718170861984
1773063767632468736,1.922468662261963,3.232987642288208,-1.656911849975586,-1.3485374450683594,-0.1857376992702484,0.688291609287262,-0.7012532353401184,0.2021866887807846,-0.10366636514663696,0.08012896776199341,-0.7587116117276104,0.24970777237042838,0.29499051814996924,-0.5243884908427221,-0.7591314625506729,-0.2589199288074493,1.1057588493311796
1773063767642523648,1.932523488998413,3.242785692214966,-1.7208912372589111,-1.657930850982666,-0.2080044150352478,0.662319540977478,-0.7197687029838562,0.2441066950559616,-0.027080893516540527,0.1530725359916687,-0.7640780583367426,0.23071335335393925,0.2947660111450566,-0.5254227150171494,-0.7239104716199941,-0.28132354086045197,1.097661227063544
1773063767652579584,1.9425795078277588,3.264200210571289,-1.7602086067199707,-1.835564136505127,-0.23233993351459503,0.6345176100730896,-0.7371605038642883,0.11158187687397003,-0.0147361159324646,0.17162400484085083,-0.7697568686578015,0.2108905505890813,0.2948642537756109,-0.5254091005534671,-0.687384255571124,-0.30532666011290704,1.0878361028046808
1773063767662634496,1.952634572982788,3.1048521995544434,-1.8034837245941162,-1.8505878448486328,-0.25725796818733215,0.6060932874679565,-0.7526415586471558,0.06328824162483215,0.007538914680480957,0.13759028911590576,-0.7752187903852974,0.1910602845919963,0.29525446359948004,-0.5247444115415953,-0.6511396946385557,-0.3293571756289187,1.0780218280212084
1773063767672690688,1.9626905918121338,2.923086404800415,-1.895695686340332,-1.7951523065567017,-0.28219717741012573,0.5780958533287048,-0.7656174302101135,0.044144779443740845,-0.062074124813079834,0.10907751321792603,-0.7800510706034873,0.17169030366047786,0.2961650434922731,-0.5237644150042081,-0.6163931278409925,-0.3531371271333027,1.069133480386715
1773063767682745600,1.972745656967163,3.6300570964813232,-2.1712088584899902,-1.8365930318832397,-0.3077255189418793,0.5487250685691833,-0.7773067951202393,0.07135161757469177,-0.13302987813949585,0.11982089281082153,-0.7842730233246251,0.15157650162634295,0.2972728778612686,-0.5230384975734831,-0.5808384081510689,-0.37695549815872925,1.0624498767369932
1773063767692800512,1.9828004837036133,3.8969738483428955,-2.140109062194824,-1.8385422229766846,-0.3353602886199951,0.5120067000389099,-0.7908114194869995,0.08014178276062012,-0.11141771078109741,0.04694545269012451,-0.7885625846798322,0.12750708123416293,0.2972141422848728,-0.523043901547177,-0.5375193259501064,-0.4010836444138354,1.0594635285220046
1773063767702856448,1.992856502532959,3.989696741104126,-1.7767549753189087,-1.4907306432724,-0.35948285460472107,0.4745413064956665,-0.8034815788269043,-0.0022725164890289307,0.120993971824646,0.1239619255065918,-0.7924483748629154,0.10421971054585923,0.2956306113336986,-0.5232269668677962,-0.4944428428012437,-0.42069506111941274,1.0594502171303908
1773063767712911616,2.0029115676879883,4.078022003173828,-1.8860644102096558,-0.927946925163269,-0.37956681847572327,0.4373917281627655,-0.815240740776062,0.07339924573898315,0.1445784866809845,0.11368739604949951,-0.7948094266055163,0.08168155314393884,0.29275884611229824,-0.5252603044456855,-0.4526962027300629,-0.43574154100629664,1.0660689470511397
1773063767722967552,2.012967586517334,4.087565898895264,-2.0920915603637695,-0.7223013043403625,-0.39959415793418884,0.4003402292728424,-0.8246527910232544,0.25959476828575134,0.04286655783653259,0.1488410234451294,-0.7954374276127294,0.05872304963677729,0.290215804028765,-0.5287775682248331,-0.41188810550320265,-0.4512198923711281,1.077545757066744
1773063767733022720,2.0230226516723633,3.7542543411254883,-1.9789161682128906,-0.7582451701164246,-0.41945186257362366,0.36460864543914795,-0.8313366770744324,0.19351497292518616,-0.07972705364227295,0.15602844953536987,-0.7953492776715481,0.036485716994136594,0.28809799190524543,-0.5320600584258678,-0.3732124824685438,-0.4672818936807084,1.0893779296084074
1773063767743078400,2.03307843208313,3.4424405097961426,-1.920072317123413,-0.7819098830223083,-0.43842077255249023,0.3311534821987152,-0.8355385065078735,0.04572054743766785,-0.1762004792690277,0.11877214908599854,-0.7951143566913298,0.015810860582450764,0.2863228304914861,-0.5343803525428843,-0.33752576237744597,-0.48322465553862587,1.0995569832660337
1773063767753133568,2.043133497238159,3.085881471633911,-1.8628716468811035,-0.7067258954048157,-0.4566914439201355,0.30024227499961853,-0.8374291062355042,0.026775091886520386,-0.18273431062698364,0.11668020486831665,-0.7945030357588798,-0.0034403183681624007,0.2850852793847263,-0.5361710510801121,-0.30494662270925893,-0.49926566712160003,1.1089798157704036
1773063767763189504,2.053189516067505,2.8616597652435303,-1.8713550567626953,-0.6357795596122742,-0.47430312633514404,0.27231910824775696,-0.8371850848197937,0.04136550426483154,-0.020396500825881958,0.1482354998588562,-0.793471582503664,-0.021173597672282107,0.2845331868462178,-0.5375829710979655,-0.27580239624013064,-0.5154569998774154,1.1178099697188602
1773063767773244672,2.063244581222534,3.026529550552368,-1.8077102899551392,-0.6060187816619873,-0.49150049686431885,0.24453973770141602,-0.8358394503593445,0.06076014041900635,0.08881901204586029,0.08960837125778198,-0.7920452791313525,-0.03881656927325377,0.2838547857990162,-0.5390585526940803,-0.2470449918310829,-0.5315731437605812,1.1275900999338506
1773063767783300608,2.07330060005188,3.166748523712158,-1.797693133354187,-0.6898289918899536,-0.5081419348716736,0.21525613963603973,-0.8339403867721558,0.09444564580917358,0.09852561354637146,-0.02013981342315674,-0.7905057639631707,-0.05695761020068228,0.2824635214779913,-0.5404357566104404,-0.21695410638535287,-0.5472489865843407,1.1382356222225003
1773063767793355520,2.08335542678833,3.5430221557617188,-1.6667897701263428,-0.6399295926094055,-0.5240983366966248,0.18369019031524658,-0.831612229347229,0.062306344509124756,0.040629252791404724,-0.020240187644958496,-0.7887117700886734,-0.07598280089024843,0.2800366081798371,-0.5419778098509782,-0.18473921921175646,-0.5623439324134425,1.150627822958709
1773063767803411456,2.093411445617676,3.3637781143188477,-1.445151448249817,-0.7892516255378723,-0.5381994843482971,0.150709331035614,-0.8292334079742432,0.06622987985610962,-0.029142558574676514,-0.08159422874450684,-0.78695627733148,-0.09505200119113019,0.27631218481413555,-0.5434303637648368,-0.15128575321381402,-0.5756948518154825,1.1638378020629732
1773063767813466368,2.103466272354126,2.806688070297241,-1.4309512376785278,-0.5749481320381165,-0.5510921478271484,0.12103277444839478,-0.8256201148033142,0.10298728942871094,-0.01115424931049347,0.02143615484237671,-0.7853956784930879,-0.11215343839487317,0.2731511476072369,-0.544025585514563,-0.1213302395905265,-0.5885715257332582,1.1747742651171378
1773063767823522304,2.1135222911834717,2.2512526512145996,-1.5131897926330566,-0.1660103052854538,-0.5635516047477722,0.09821390360593796,-0.8202217221260071,0.17948788404464722,-0.03022075444459915,0.11183243989944458,-0.7828032567608278,-0.12658409512426927,0.27178227691431306,-0.5452798239048455,-0.09837248441688927,-0.6019968476367246,1.1862849487561615
1773063767833577472,2.123577356338501,1.9693964719772339,-1.5866773128509521,-0.250864177942276,-0.5765650272369385,0.08002091944217682,-0.8131232261657715,0.16541695594787598,-0.05705644190311432,0.09638738632202148,-0.7798068589075756,-0.13931029489742053,0.27208642772178576,-0.5463175266192545,-0.0801065688075439,-0.6167903744648486,1.1967000217731862
1773063767843632384,2.1336324214935303,2.0663461685180664,-1.4310832023620605,-0.3385254740715027,-0.589116632938385,0.0619083009660244,-0.8056729435920715,0.13635790348052979,-0.0807681530714035,0.0015957951545715332,-0.7770959255915524,-0.1517457091310882,0.2722806799706191,-0.546770791623372,-0.061947914987313876,-0.6313670967836315,1.2060480543288405
1773063767853688576,2.143688440322876,2.202932834625244,-1.323522925376892,-0.2889043986797333,-0.6003755331039429,0.042718544602394104,-0.7985764741897583,0.11923539638519287,0.021856650710105896,-0.1512678861618042,-0.7743991584653961,-0.16431635109578607,0.27149937765953724,-0.5473519614890389,-0.042731549131417565,-0.644656720979777,1.2162885290002048
1773063767863743232,2.153743267059326,2.2168071269989014,-1.2200103998184204,-0.19662418961524963,-0.6105685234069824,0.023606475442647934,-0.7916114926338196,0.12709379196166992,0.16639596223831177,-0.14047157764434814,-0.77144279230637,-0.17670733395962243,0.27012729838911714,-0.5483445700415961,-0.02360866938505848,-0.6569931880188553,1.2278331047639728
1773063767873799424,2.163799285888672,2.16677188873291,-1.1671644449234009,-0.21665382385253906,-0.6200680136680603,0.004875955171883106,-0.784532904624939,0.1560787558555603,0.19576187431812286,-0.08218157291412354,-0.7683486556548379,-0.1888205042731254,0.2684778684517503,-0.5494604048584286,-0.0048759746745359244,-0.6688387797678429,1.2399072165452092
1773063767883854336,2.173854351043701,1.8416372537612915,-1.1840726137161255,-0.3277926743030548,-0.6292413473129272,-0.012687633745372295,-0.7771064043045044,0.16995179653167725,0.10532376170158386,-0.03955918550491333,-0.7655478650380417,-0.2002073628811959,0.2671400742185589,-0.5499904976572051,0.01268797413541485,-0.6806418627193329,1.2504657929892655
1773063767893910528,2.183910369873047,1.4820343255996704,-1.2530357837677002,-0.3334753215312958,-0.6386388540267944,-0.02768460102379322,-0.7690083980560303,0.1782507300376892,0.07216399908065796,-0.004734218120574951,-0.7631477385460905,-0.21037330848455968,0.2669061243763309,-0.5496449918849999,0.027688137744745378,-0.693046435030404,1.258352829221228
1773063767903965440,2.193965435028076,1.3833791017532349,-1.252479910850525,-0.28500720858573914,-0.6482780575752258,-0.04056552052497864,-0.7603223323822021,0.17983323335647583,0.05278779938817024,0.05240607261657715,-0.7607577715235836,-0.2197153237723212,0.26751450497425416,-0.5490071660414226,0.040576653418786454,-0.7060223019757995,1.2651807777266517
1773063767914021376,2.204021453857422,1.3741495609283447,-1.1098321676254272,-0.33545759320259094,-0.657085657119751,-0.05301843583583832,-0.7519491314888,0.10714364051818848,-0.01222814992070198,0.04977017641067505,-0.7584550920846124,-0.22862801457181176,0.2678706122727306,-0.5483799134982668,0.05304330752615528,-0.7181744795994358,1.271935739973541
1773063767924076288,2.214076280593872,1.3203610181808472,-1.002181053161621,-0.41385188698768616,-0.6647939085960388,-0.06568200141191483,-0.744133710861206,0.0024861693382263184,-0.02405495196580887,0.13140177726745605,-0.7564990296644817,-0.23718083508252435,0.2677281997276298,-0.5475182266385875,0.06572932357626751,-0.7291453711734869,1.2780725777634108
1773063767934132224,2.2241322994232178,1.3035441637039185,-0.9742278456687927,-0.4152686893939972,-0.6718202829360962,-0.07820872962474823,-0.7365738153457642,-0.009011626243591309,0.10282112658023834,0.16307222843170166,-0.7547461890128877,-0.24540678034191948,0.2673735173718764,-0.5464844385023324,0.07828868033420147,-0.7394536366335525,1.283742608329862
1773063767944187392,2.234187364578247,1.4300364255905151,-0.897121012210846,-0.35710641741752625,-0.6784476637840271,-0.09088017791509628,-0.7290058732032776,0.036083221435546875,0.20591621100902557,0.06915479898452759,-0.7528294795340459,-0.25368489129121125,0.2667227955638316,-0.5456653070381903,0.09100574402444642,-0.7494918490183116,1.290195834113892
1773063767954243328,2.2442433834075928,1.4471813440322876,-0.8239943385124207,-0.36894309520721436,-0.6843439340591431,-0.10395273566246033,-0.721711277961731,0.08192694187164307,0.15314707159996033,0.000611424446105957,-0.7507694313090535,-0.26201977592843056,0.2654995369592239,-0.545161291324487,0.10414087366213708,-0.7588284240248997,1.2976618220127765
1773063767964298496,2.254298448562622,0.8856812715530396,-1.373938798904419,-0.9405792355537415,-0.6906547546386719,-0.1168256402015686,-0.7136861085891724,0.09829330444335938,0.06712774932384491,0.010576367378234863,-0.7493267742531681,-0.2701113915350866,0.2649467458956056,-0.5434634756758557,0.11709302598025623,-0.7689994954647923,1.3023948773264948
1773063767974353408,2.2643532752990723,0.8275079727172852,-0.9055913090705872,-0.2963355481624603,-0.696556031703949,-0.12618589401245117,-0.7063192129135132,0.320487916469574,-0.05170106887817383,0.032048583030700684,-0.7484245778942354,-0.276323309572668,0.2654916643622736,-0.5413134496376707,0.12652319156284395,-0.7784388628555623,1.3042975218643034
1773063767984409344,2.274409294128418,0.9524752497673035,-0.6936801075935364,-0.3245443105697632,-0.7028859257698059,-0.13513816893100739,-0.6983473896980286,-0.09855145215988159,0.08878196775913239,-0.08308571577072144,-0.7469718494401568,-0.2827729991317476,0.26620619614018803,-0.5396357753417435,0.13555290646243495,-0.7886371119013919,1.307721488065857
1773063767994464512,2.2844643592834473,1.044346570968628,-0.8042745590209961,-0.38884392380714417,-0.7087082862854004,-0.144455686211586,-0.6905542612075806,0.05474710464477539,-0.1054680198431015,0.004778504371643066,-0.7452900500707057,-0.28936896987798183,0.26643662442861127,-0.5383493058303903,0.14496286517339516,-0.7983714478764818,1.3123571751155867
1773063768004520448,2.294520378112793,1.2367855310440063,-0.9155288934707642,-0.4567851424217224,-0.7139642238616943,-0.15527115762233734,-0.6827489137649536,0.021840810775756836,-0.05009688436985016,0.09636890888214111,-0.7435797527534139,-0.2964899689253459,0.2659309136372127,-0.5370882058179062,0.15590193749388903,-0.8077435728037894,1.317810868709378
1773063768014575360,2.3045754432678223,1.3158174753189087,-0.8434118628501892,-0.4123244881629944,-0.7190411686897278,-0.16712871193885803,-0.6745723485946655,-0.010740935802459717,0.06040874123573303,0.10564839839935303,-0.7416537439854038,-0.3041477432091421,0.26496789399103465,-0.5359440099187541,0.16791669905769988,-0.8172963681434169,1.3243621541311397
1773063768024631552,2.314631462097168,1.3556077480316162,-0.785902738571167,-0.3504059910774231,-0.7238505482673645,-0.17891161143779755,-0.6663565039634705,-0.05187571048736572,0.12576526403427124,0.10876977443695068,-0.7395379628335352,-0.3118161763464993,0.2638037632549284,-0.5350344271026544,0.17988009970111665,-0.8267310964548713,1.3316853076712656
1773063768034686208,2.324686288833618,1.334039330482483,-0.7691303491592407,-0.2494104951620102,-0.7284374833106995,-0.1900673508644104,-0.6582196950912476,-0.07487672567367554,0.07461939752101898,0.023347318172454834,-0.7371808764465663,-0.3192899569905555,0.2625720216902161,-0.5344848835505451,0.19123074434606838,-0.8359930899914425,1.3398150062660306
1773063768044742400,2.334742307662964,1.1934146881103516,-0.7629549503326416,-0.1981097161769867,-0.733023464679718,-0.20004570484161377,-0.6501217484474182,-0.006936192512512207,-0.004223674535751343,-0.09427827596664429,-0.7347026422366533,-0.32633279849534497,0.26162195010387157,-0.5341093131561541,0.2014045618005731,-0.8452636581102622,1.3480241383068086
1773063768054797312,2.344797372817993,1.0637919902801514,-0.8469654321670532,-0.27889084815979004,-0.7377285957336426,-0.2091258317232132,-0.6418901085853577,0.05672883987426758,-0.0763661116361618,-0.08035415410995483,-0.7324167582729697,-0.33295063753700704,0.26114903037262505,-0.533395487095933,0.2106809327012497,-0.8547541060123902,1.3551303537168178
1773063768064853504,2.354853391647339,1.0167156457901,-0.910394012928009,-0.26836103200912476,-0.7427757382392883,-0.21785388886928558,-0.6331065893173218,0.04093247652053833,-0.09783521294593811,0.027027487754821777,-0.7302739584714169,-0.3394816362039167,0.2611492513689608,-0.5322154056329254,0.21961500072053297,-0.8649382225700128,1.3612729965342472
1773063768074908416,2.364908456802368,1.146708607673645,-0.9387830495834351,-0.19005398452281952,-0.7481170296669006,-0.22622579336166382,-0.6238130927085876,-0.018804967403411865,-0.09857279062271118,0.11336082220077515,-0.7278237516314783,-0.34613361013593175,0.2613139461966311,-0.5312053434910199,0.22820127366565837,-0.8757566026430608,1.368170591190824
1773063768084964608,2.374964475631714,1.3220536708831787,-0.9263080358505249,-0.19401885569095612,-0.75350022315979,-0.2354143112897873,-0.6138546466827393,-0.06846022605895996,-0.1143324077129364,0.07192349433898926,-0.724925495559672,-0.3534243761448468,0.26108215378151356,-0.5304812324952304,0.2376448437481128,-0.8871735612284396,1.3768020227855868
1773063768095019264,2.385019302368164,1.3373172283172607,-0.7947124242782593,-0.14105871319770813,-0.7583820223808289,-0.24492014944553375,-0.6040454506874084,-0.08001214265823364,-0.058531418442726135,0.06713438034057617,-0.7218432796135895,-0.36082702466471556,0.26034812532655693,-0.5300613987469579,0.24743732585283668,-0.8981979167590781,1.3864957485813432
1773063768105075456,2.3950753211975098,1.2193243503570557,-0.7021486759185791,-0.07889268547296524,-0.7625821828842163,-0.25349918007850647,-0.595152735710144,-0.06001913547515869,0.060765355825424194,0.06562697887420654,-0.7188186892774348,-0.36759568219170735,0.2594167459046674,-0.5299775865789984,0.2562958790614811,-0.9080939887014738,1.3962442421062187
1773063768115130368,2.405130386352539,1.107875943183899,-0.700072705745697,-0.052791841328144073,-0.7665343880653381,-0.26087138056755066,-0.5868314504623413,0.0027251839637756348,0.05295512080192566,-0.05261862277984619,-0.7159093237260012,-0.3737107295380363,0.25869780895125294,-0.5299901936528604,0.26392473585529874,-0.9174081689766483,1.4054429391027898
1773063768125186560,2.4151864051818848,0.8977683782577515,-0.6670349836349487,-0.15232889354228973,-0.7704123854637146,-0.2674495577812195,-0.5787361860275269,0.0511893630027771,-0.09258157014846802,-0.040084004402160645,-0.7133133476922294,-0.3793166987681226,0.25836164830664315,-0.5296718346587832,0.27074518682644916,-0.9265256434654001,1.4132992011211227
1773063768135241472,2.425241470336914,0.7927977442741394,-0.6712380051612854,-0.1584605574607849,-0.773490846157074,-0.2745588421821594,-0.5712524652481079,0.033332765102386475,-0.18273180723190308,0.06058657169342041,-0.7115362954570917,-0.38451522795715365,0.25791821425780603,-0.5285284928216106,0.2781308723657501,-0.934671276670582,1.4187807436453546
1773063768145296384,2.4352962970733643,0.9074800610542297,-0.7265662550926208,-0.016100985929369926,-0.7773253321647644,-0.2799527645111084,-0.5633752942085266,0.009731948375701904,-0.10607936978340149,0.10535228252410889,-0.7091904184013986,-0.3894987413542693,0.2580757085430786,-0.5279551322550973,0.283744902295091,-0.9436446287831066,1.4253820847500127
1773063768155352320,2.44535231590271,1.0817415714263916,-0.8088483214378357,-0.09684829413890839,-0.7812444567680359,-0.28632980585098267,-0.554682195186615,-0.00026488304138183594,-0.08982986211776733,0.08982312679290771,-0.7064568077891373,-0.39518609457456405,0.25785046857331795,-0.5275034272716649,0.2903940531582411,-0.9533916309224028,1.4334987539691249
1773063768165407488,2.4554073810577393,1.1750211715698242,-0.5996963977813721,-0.07949139922857285,-0.7849454283714294,-0.2931603789329529,-0.5458182692527771,-0.012250006198883057,-0.07686525583267212,0.09989547729492188,-0.7034886563913176,-0.4011549095851397,0.25722673025964915,-0.5272692012425464,0.2975308001872968,-0.9631924168735934,1.442710212215075
1773063768175463424,2.465463399887085,1.340230941772461,-0.3550828695297241,-0.24797680974006653,-0.7869641184806824,-0.30122804641723633,-0.5384692549705505,-0.08274102210998535,-0.014583081007003784,0.07063478231430054,-0.7008289579286208,-0.40696068902165494,0.25524180867023205,-0.527326653924175,0.30598026482272433,-0.9707287287466341,1.4524151030204062
1773063768185518592,2.4755184650421143,1.2512117624282837,-0.4348800778388977,-0.056960318237543106,-0.7884768843650818,-0.3096214830875397,-0.5314497351646423,-0.06355863809585571,-0.028849005699157715,-0.02148306369781494,-0.698037143056788,-0.4128165763331171,0.25270065550930004,-0.5277016634219234,0.3147949401790922,-0.977719760698003,1.463078234204411
1773063768195574528,2.48557448387146,0.9300262331962585,-0.5318212509155273,-0.07700353860855103,-0.7909287810325623,-0.3157678544521332,-0.5241396427154541,0.10318464040756226,0.02476745843887329,0.0046083927154541016,-0.6953133072659503,-0.41796501081511683,0.2514665624456037,-0.5278344463590426,0.3212657894287604,-0.9855526820709114,1.472208680756452
1773063768205629440,2.49562931060791,0.9256045818328857,-0.5409470796585083,-0.21464182436466217,-0.7932536005973816,-0.32175394892692566,-0.5169362425804138,0.08678692579269409,-0.03864338994026184,0.026289939880371094,-0.6930932235816479,-0.42277430218539386,0.2505868349403709,-0.5273422503243433,0.32758137060837417,-0.9932509362005367,1.4794760018434787
1773063768215685376,2.505685329437256,0.8626152276992798,-0.5774356126785278,-0.17534661293029785,-0.7954973578453064,-0.32806578278541565,-0.5094672441482544,-0.015202105045318604,-0.09174928069114685,0.028861165046691895,-0.6910021404004453,-0.427673620416194,0.24972315082393315,-0.526545074066147,0.3342553083525906,-1.0011720080022442,1.4863359146961435
1773063768225740544,2.515740394592285,0.8789480924606323,-0.5176435112953186,-0.058757852762937546,-0.7979390621185303,-0.333318293094635,-0.5021875500679016,-0.05315053462982178,-0.005884647369384766,0.02870732545852661,-0.6887713197593514,-0.43223962509561115,0.2491488015902606,-0.5260113994740583,0.3398209583600651,-1.0090708802402975,1.4933316178595795
1773063768235796480,2.525796413421631,1.0545966625213623,-0.5120609998703003,-0.04390540346503258,-0.8003130555152893,-0.3386251926422119,-0.49480515718460083,-0.05956548452377319,0.038240671157836914,-0.00853651762008667,-0.6861245204386002,-0.4370288974215889,0.2481998345663535,-0.5259618392965069,0.34545539404227193,-1.0170551545586966,1.5019372726176645
1773063768245851392,2.53585147857666,1.22129487991333,-0.4364866614341736,0.049106404185295105,-0.8026450872421265,-0.3443496823310852,-0.48701566457748413,-0.057553887367248535,0.017994672060012817,0.01771634817123413,-0.6830059068224855,-0.44225460162320457,0.246785397392583,-0.5263182591787545,0.3515460230656979,-1.025418580488364,1.512393418772372
1773063768255907328,2.5459072589874268,1.0429041385650635,-0.37166479229927063,0.17471812665462494,-0.8049198389053345,-0.34910377860069275,-0.47982358932495117,-0.06161153316497803,0.02790623903274536,-0.05565309524536133,-0.6796362432823849,-0.4471263414600683,0.24528806591462488,-0.5272632047064062,0.35661455199763586,-1.0332394410647119,1.5236720247585054
1773063768265962240,2.555962324142456,0.8333879113197327,-0.3585006892681122,0.35752180218696594,-0.8076631426811218,-0.351272314786911,-0.47359058260917664,-0.028747379779815674,0.0612637996673584,-0.12536269426345825,-0.6763553594240067,-0.4509089030357082,0.2447159049220926,-0.5285250623837952,0.3589296863356119,-1.0404581240823907,1.5337422151765594
1773063768276018432,2.5660183429718018,0.7662906050682068,-0.49283158779144287,0.34621134400367737,-0.8109789490699768,-0.3521161675453186,-0.46725520491600037,0.023015081882476807,-0.008311688899993896,-0.05819648504257202,-0.6730651649798137,-0.4543140778265318,0.2448900155328411,-0.5297271966887318,0.3598311014549478,-1.0480892490000315,1.5430397248921495
1773063768286073344,2.576073408126831,0.6484348773956299,-0.4883325397968292,0.32264459133148193,-0.8144569993019104,-0.3527374863624573,-0.46069106459617615,-0.01852041482925415,-0.098388671875,0.004483699798583984,-0.6699304613949201,-0.4576342409518384,0.24540858996126355,-0.5306023435258957,0.3604950336065492,-1.0560232930731321,1.5514901416356226
1773063768296128512,2.5861284732818604,0.707965612411499,-0.5286597609519958,0.3846032917499542,-0.8180338740348816,-0.35290664434432983,-0.4541779160499573,-0.10092669725418091,-0.012098848819732666,0.032882750034332275,-0.6668663405092607,-0.4607681079601179,0.24617837694793424,-0.5313928156483929,0.3606758110549667,-1.0639644133611796,1.559436327932654
1773063768306184448,2.596184492111206,0.9050827026367188,-0.48902732133865356,0.43559783697128296,-0.8218655586242676,-0.3531395196914673,-0.4470231235027313,-0.12619364261627197,0.030431360006332397,0.043504416942596436,-0.663196619600296,-0.4643610616021142,0.24669260024332723,-0.5326180259122609,0.36092471584539226,-1.0726386526358385,1.5693280399181864
1773063768316239360,2.6062393188476562,0.8741381168365479,-0.44773367047309875,0.4106022119522095,-0.8254342675209045,-0.3536755442619324,-0.43996813893318176,-0.15128087997436523,0.023002326488494873,0.04397207498550415,-0.6593917187940126,-0.4680772081944462,0.2468190693930487,-0.5340287128242922,0.36149769945742694,-1.0810875145534238,1.5799542151835213
1773063768326295296,2.616295337677002,0.8075777888298035,-0.36682385206222534,0.440602570772171,-0.8287563920021057,-0.35385048389434814,-0.4335351884365082,-0.1383303999900818,0.0009604692459106445,0.03982788324356079,-0.6557401450831828,-0.471451596883711,0.24691252934368635,-0.5355114729173789,0.3616847583190079,-1.0888279052356515,1.5901263569433493
1773063768336350464,2.6263504028320312,0.7730227708816528,-0.387357622385025,0.38689327239990234,-0.831853985786438,-0.3536866009235382,-0.42769715189933777,-0.05661952495574951,-0.02982783317565918,0.00020694732666015625,-0.6522984360091895,-0.47447330915065294,0.2470354147838631,-0.5369873653585147,0.3615095366214637,-1.095893431597416,1.5996240721387798
1773063768346406400,2.636406421661377,1.0759984254837036,-0.5017136931419373,0.26443853974342346,-0.8347905278205872,-0.3546695113182068,-0.4211108088493347,-0.021593749523162842,-0.002187788486480713,-0.04109317064285278,-0.6488234855466988,-0.47803689955305156,0.2468305319430035,-0.5381296090192015,0.36256056394475744,-1.103594343422668,1.6095288209282033
1773063768356461568,2.6464614868164062,0.6500710248947144,-0.44399493932724,0.06653212755918503,-0.836601197719574,-0.3564850986003876,-0.4159528613090515,-0.08628088235855103,0.023126304149627686,-0.11032277345657349,-0.64495729461435,-0.48165241184085833,0.24501944548814683,-0.5403762695508585,0.3645031008542417,-1.109396283847604,1.6221847392613225
1773063768366517248,2.656517267227173,0.4298967123031616,-0.1420573741197586,0.41038861870765686,-0.8392786979675293,-0.3569384515285492,-0.4101293981075287,-0.09016460180282593,0.06258118152618408,0.1393164098262787,-0.6425912005197079,-0.48435018815326436,0.24564242730254443,-0.5405008563621212,0.36498839411820133,-1.1162546350526632,1.6280709369542474
1773063768376572416,2.666572332382202,0.6385692358016968,-0.054253216832876205,0.12692096829414368,-0.8406406044960022,-0.35670143365859985,-0.4075383245944977,-0.1357082724571228,-0.06456318497657776,0.007040858268737793,-0.6403833802540747,-0.4859451346978531,0.2451288731550004,-0.541920926013745,0.3647346841597349,-1.1193865702884658,1.63468129672486
1773063768386628352,2.676628351211548,0.5106953978538513,-0.023165123537182808,0.1501029133796692,-0.8412032127380371,-0.35818612575531006,-0.4050678312778473,-0.1747879981994629,-0.14681875705718994,-0.10143238306045532,-0.6385968518824415,-0.48781708740362395,0.24392738907889436,-0.5428885916839029,0.3663243834914129,-1.1220304454776968,1.6408874947511587
1773063768396683520,2.686683416366577,0.348876953125,-0.04363125190138817,0.10898370295763016,-0.8418378233909607,-0.35865098237991333,-0.4033345580101013,-0.026143133640289307,0.028008222579956055,0.0007008910179138184,-0.637084056998602,-0.4890768885013667,0.24318002004720027,-0.5438670284222692,0.3668223345822722,-1.1239983659691868,1.6458288964059238
1773063768406739456,2.696739435195923,0.25732743740081787,-0.05239321291446686,-0.02814984880387783,-0.8421810865402222,-0.3595574200153351,-0.40180763602256775,-0.008816838264465332,0.01638728380203247,0.005720019340515137,-0.6362253322216017,-0.4901167251853164,0.24265566782945602,-0.5441701112290338,0.3677935600693912,-1.12563303656967,1.6487546422642163
1773063768416794368,2.706794261932373,0.3272135555744171,0.015401013195514679,-0.0884680449962616,-0.8420289158821106,-0.3612511157989502,-0.4006057679653168,-0.052288711071014404,-0.025040417909622192,-0.00729215145111084,-0.6356468254953115,-0.491172780362408,0.24175693328409054,-0.5442940543022785,0.3696092682431513,-1.1267260480763872,1.651329421202539
1773063768426850304,2.7168502807617188,0.38667237758636475,0.01897517219185829,-0.13972632586956024,-0.8415061831474304,-0.3636980652809143,-0.39948856830596924,-0.06968766450881958,0.0035906732082366943,-0.011979937553405762,-0.6351267330359863,-0.4923943336654308,0.2404236680556831,-0.5443880369448996,0.37223477774327746,-1.1275679820609588,1.6542206174572764
1773063768436905472,2.726905345916748,0.4195901155471802,0.0705997496843338,-0.18126071989536285,-0.8407814502716064,-0.3666406273841858,-0.3983229100704193,-0.05501621961593628,0.02788025140762329,0.008064091205596924,-0.6345790279562664,-0.49377777028234693,0.2387929308748802,-0.5444914030622556,0.3753956320375915,-1.1283657725425649,1.6575107053736888
1773063768446960384,2.7369604110717773,0.3737033009529114,0.15812872350215912,-0.2687763571739197,-0.839496374130249,-0.3701664209365845,-0.39777207374572754,-0.0508233904838562,-0.03503069281578064,0.012838631868362427,-0.6343449046180506,-0.49502238699258233,0.2367843033337635,-0.5445112447742869,0.37918816651747256,-1.1283093544111564,1.6603480671090942
1773063768457016576,2.747016429901123,0.24970784783363342,0.21117889881134033,-0.3005489408969879,-0.8376545310020447,-0.37388211488723755,-0.39817970991134644,-0.06499439477920532,-0.07878512144088745,0.049058616161346436,-0.6345649832477277,-0.4958638967290785,0.23458290667961648,-0.5444420585579631,0.38319119905570065,-1.1270618406706456,1.662134579167283
1773063768467071488,2.7570714950561523,0.18092858791351318,0.15828785300254822,-0.26426732540130615,-0.8358210325241089,-0.3770790100097656,-0.3990170955657959,-0.04813587665557861,-0.029354125261306763,0.1018216609954834,-0.6350628189935053,-0.49632070378235005,0.23271701272370043,-0.5442460953085176,0.3866404525251912,-1.1253953981415985,1.6627828715467252
1773063768477127424,2.767127275466919,0.20113666355609894,0.12111811339855194,-0.291439026594162,-0.8342390656471252,-0.3801470994949341,-0.3994162082672119,-0.00864112377166748,0.021229922771453857,0.0381644070148468,-0.635489874560377,-0.4968843288329084,0.23107978330003734,-0.54393077959772,0.38995533776992447,-1.1242691456236733,1.6633785839023112
1773063768487182336,2.7771823406219482,0.21160657703876495,0.11185385286808014,-0.36004868149757385,-0.832497239112854,-0.38371792435646057,-0.3996359407901764,0.01322239637374878,0.012456357479095459,0.02143159508705139,-0.6360043701301863,-0.4975940004345782,0.2293081828119038,-0.5434302278740737,0.39381906477310796,-1.1232399824954467,1.6638781840127332
1773063768497238272,2.787238359451294,0.2243114560842514,0.03223145753145218,-0.32014280557632446,-0.8308699131011963,-0.387450635433197,-0.3994210362434387,0.03289628028869629,0.01628059148788452,0.05463343858718872,-0.6364948533002992,-0.49847080990506754,0.22763199854796776,-0.542756687445825,0.39786460952013286,-1.1226861973211881,1.6643450494908747
1773063768507293440,2.7972934246063232,0.25907206535339355,-0.011576151475310326,-0.31420964002609253,-0.8296160697937012,-0.3910491466522217,-0.39851945638656616,0.07372617721557617,0.014797955751419067,0.017995774745941162,-0.6367450202656012,-0.4995925691056795,0.2261582179953256,-0.5420475298902369,0.40177124385775426,-1.1229788363218711,1.6652646386057885
1773063768517349376,2.807349443435669,0.363160640001297,-0.031085403636097908,-0.3556758463382721,-0.8283891677856445,-0.3950673043727875,-0.39710596203804016,0.06519031524658203,-0.04289042949676514,-0.03943276405334473,-0.6368499742200883,-0.5010230345610309,0.22455053400673602,-0.5412717125165668,0.4061411193219756,-1.1237875005151414,1.6667340883093058
1773063768527404288,2.817404270172119,0.4203840494155884,-0.06776972860097885,-0.3218114972114563,-0.8272260427474976,-0.3994905650615692,-0.395100474357605,-0.0015093088150024414,-0.06375101208686829,0.08545386791229248,-0.6367322227050444,-0.5028099972926244,0.22278210727276235,-0.540483448175261,0.4109610811468765,-1.12521171899562,1.6689979829786796
1773063768537460224,2.827460289001465,0.5590604543685913,-0.08832614123821259,-0.2731376886367798,-0.8263370394706726,-0.40386900305747986,-0.39250078797340393,-0.04767113924026489,0.05429014563560486,0.19062703847885132,-0.636226126772772,-0.504898835888725,0.2209678005942347,-0.5398765269059317,0.4157421840928161,-1.1273571718238602,1.6723891154264312
1773063768547515392,2.837515354156494,0.7266867160797119,-0.04741683602333069,-0.2855948507785797,-0.8254848718643188,-0.4087151288986206,-0.38926416635513306,-0.04638701677322388,0.1425866186618805,0.19604215025901794,-0.6352434763177965,-0.5074711325196432,0.21872578243012522,-0.5395347563664479,0.4210457900515581,-1.1301599345466773,1.6775547877254862
1773063768557571328,2.84757137298584,0.7333586812019348,-0.02269444614648819,-0.2936333417892456,-0.8244026303291321,-0.4140264093875885,-0.38593050837516785,-0.013716816902160645,0.1267034411430359,0.03917452692985535,-0.6341058724654811,-0.5102422192228375,0.2160731854571279,-0.5393282623655331,0.4268729899037835,-1.132965313598194,1.6835785539836232
1773063768567626496,2.857626438140869,0.5492771863937378,-0.07523112744092941,-0.2643454670906067,-0.8233868479728699,-0.41887861490249634,-0.38285088539123535,0.05843323469161987,0.042200177907943726,0.014824151992797852,-0.6331442206679975,-0.5127387040774455,0.2137137857394229,-0.5390304513025973,0.432210022646078,-1.1355626255656595,1.6888064333383979
1773063768577682432,2.867682456970215,0.2783993184566498,-0.2212354838848114,-0.21679151058197021,-0.8229324221611023,-0.422432541847229,-0.3799118101596832,0.1144058108329773,-0.001716017723083496,0.05058133602142334,-0.6325712213846868,-0.5146965167101754,0.2124419868162089,-0.5383395948344883,0.4361274039670008,-1.138291543249955,1.6918382928089513
1773063768587737344,2.877737283706665,0.20539529621601105,-0.3536521792411804,-0.18892064690589905,-0.8231940269470215,-0.42495501041412354,-0.3765166401863098,0.12200695276260376,0.004972130060195923,0.0885680615901947,-0.6322317998022248,-0.5164175113667502,0.21226078364625017,-0.5371603307976909,0.4389121728374564,-1.1418180078757971,1.6931236906955547
1773063768597792512,2.8877923488616943,0.3474094271659851,-0.33386409282684326,-0.14854633808135986,-0.8237855434417725,-0.4273710250854492,-0.372466504573822,0.06887227296829224,0.027224570512771606,0.06555125117301941,-0.6316185619821465,-0.5183958181685779,0.21220867737604018,-0.5359955290648856,0.44158287295476756,-1.1461640976100067,1.6950554592378333
1773063768607848448,2.89784836769104,0.6245371699333191,-0.2513248324394226,-0.09698329865932465,-0.8243405222892761,-0.4301932454109192,-0.36796268820762634,0.020003974437713623,0.10266333818435669,0.040570080280303955,-0.630388016648993,-0.5208429399083474,0.21152137207903668,-0.5353431825869381,0.4447068336375208,-1.150963379368136,1.6993596284843973
1773063768617903360,2.9079034328460693,0.8389477133750916,-0.21529066562652588,-0.03156834468245506,-0.8249108791351318,-0.4334416091442108,-0.3628365397453308,0.019735097885131836,0.16304060816764832,0.02757042646408081,-0.6283634709438927,-0.5238764516538952,0.21008376298424833,-0.5353294410016043,0.4483082757409611,-1.1564156453475778,1.706645191383657
1773063768627959552,2.917959451675415,0.8899370431900024,-0.18174906075000763,0.008454518392682076,-0.8255935311317444,-0.43670186400413513,-0.357332706451416,0.00943148136138916,0.1816207468509674,0.0823998749256134,-0.6258648772723387,-0.5271922606886214,0.20833137362663248,-0.5356859194031593,0.45192920675021353,-1.1623214415215988,1.715567035655541
1773063768638014208,2.9280142784118652,0.7219637036323547,-0.15179169178009033,0.03590531647205353,-0.82626873254776,-0.43946516513824463,-0.3523498773574829,0.0022025704383850098,0.14033180475234985,0.03353273868560791,-0.6234537494378031,-0.5301943757548454,0.20668571184058088,-0.5361720194196339,0.4550031596397277,-1.1677108805417975,1.7241059344215541
1773063768648070400,2.938070297241211,0.39840948581695557,-0.16080445051193237,0.056781258434057236,-0.8270378112792969,-0.4410549998283386,-0.348538339138031,0.034496307373046875,0.06530728936195374,-0.017504751682281494,-0.6216544640300362,-0.5323365271887018,0.20578787361003148,-0.5364838775291396,0.4567738525839972,-1.1719535952572293,1.730129707052783
1773063768658125312,2.9481253623962402,0.029954485595226288,-0.15823636949062347,0.08314228802919388,-0.827888548374176,-0.4412154257297516,-0.3463084399700165,0.08417516946792603,0.0356520414352417,-0.04456067085266113,-0.6207356899659503,-0.533345417841905,0.20588452642441668,-0.5365085986214992,0.45695261666031517,-1.1746115511455515,1.7326311057516388
1773063768668181504,2.958181381225586,-0.05686556175351143,-0.2479817271232605,0.12586843967437744,-0.8290368318557739,-0.440228134393692,-0.344814658164978,0.09438717365264893,0.047283828258514404,-0.010028481483459473,-0.6203670861235934,-0.5336532647339355,0.2068982120424229,-0.5362387898260238,0.45585275220621996,-1.1766399004177326,1.732631069427379
1773063768678236416,2.9682364463806152,0.13291023671627045,-0.2889949381351471,0.21518579125404358,-0.830735981464386,-0.4389321208000183,-0.34236839413642883,0.07406800985336304,0.048780202865600586,0.01869902014732361,-0.6195269655099139,-0.5343261799284355,0.20811375817677027,-0.536069398842633,0.4544098395942214,-1.1798799008604777,1.733727129041167
1773063768688292608,2.978292465209961,0.29417091608047485,-0.2922385632991791,0.2728271782398224,-0.8328096270561218,-0.43760570883750916,-0.33901247382164,0.057785212993621826,0.11054882407188416,-0.023383736610412598,-0.6179863906165086,-0.535510834784388,0.2090978388903235,-0.5362827105132452,0.45293414935197723,-1.1842093413974866,1.736982198031572
1773063768698347264,2.988347291946411,0.512866735458374,-0.2913256287574768,0.3291817903518677,-0.8351296186447144,-0.4364343583583832,-0.3347889482975006,0.061371684074401855,0.16301211714744568,-0.018497765064239502,-0.6157807820964085,-0.5372292456973139,0.2097385537847495,-0.5368505768546372,0.45163186563155544,-1.18952929145423,1.7424070466822146
1773063768708403456,2.998403310775757,0.6371476054191589,-0.24728330969810486,0.35754328966140747,-0.8375787138938904,-0.435476154088974,-0.3298823833465576,0.07024478912353516,0.131276935338974,0.0019252598285675049,-0.6129573098848621,-0.5394272301634938,0.20994539353475114,-0.5377959688382219,0.4505671526865034,-1.1956008068809105,1.74994958287162
1773063768718458368,3.008458375930786,0.48324406147003174,-0.19275908172130585,0.31423869729042053,-0.8397480249404907,-0.4345438778400421,-0.32556843757629395,0.04529917240142822,0.116108238697052,-0.03463050723075867,-0.610256171640377,-0.5414212403488433,0.2099495699952914,-0.5388613560454537,0.44953178852368403,-1.2009400920796585,1.7573163859409422
1773063768728514560,3.018514394760132,0.2397221028804779,-0.2612493634223938,0.3410181701183319,-0.8418776392936707,-0.43297991156578064,-0.32213446497917175,0.06422871351242065,0.12717851996421814,-0.060418665409088135,-0.6081764188409017,-0.5427748286449137,0.21054276346850895,-0.5396191090090724,0.44779601367322863,-1.2053461080927494,1.7623199491760415
1773063768738569472,3.028569459915161,0.11445632576942444,-0.3159688115119934,0.36535200476646423,-0.8443896770477295,-0.4304639995098114,-0.31891530752182007,0.11915469169616699,0.0774519145488739,-0.02478891611099243,-0.6064319401911351,-0.5436998761001326,0.21197357313890572,-0.5400907647877106,0.44500678336368626,-1.2096717003240545,1.7654801120708774
1773063768748625408,3.038625478744507,0.09424489736557007,-0.2792023718357086,0.3091496527194977,-0.8468174934387207,-0.42790406942367554,-0.3159085810184479,0.1012425422668457,0.021135300397872925,-0.04200160503387451,-0.6049036346123043,-0.5444691746689728,0.21353930326337942,-0.540412689790293,0.4421725393161504,-1.2137329219951027,1.7678879424439835
1773063768758680320,3.048680305480957,0.16035307943820953,-0.23813694715499878,0.26429083943367004,-0.8488481640815735,-0.42585739493370056,-0.31321263313293457,0.07496821880340576,0.05442798137664795,-0.08350059390068054,-0.6035391492378278,-0.5452172937818422,0.21478310648181795,-0.5406909882489372,0.43990927870640456,-1.2173090733249732,1.7701910318070102
1773063768768735488,3.0587353706359863,0.3335209786891937,-0.17374247312545776,0.2739635705947876,-0.850659966468811,-0.4243406057357788,-0.31034302711486816,0.07438433170318604,0.0662931501865387,-0.053090810775756836,-0.601895313823511,-0.5462559752558015,0.21548293534853397,-0.5411964608685865,0.4382335682771979,-1.220974852754528,1.77382026750945
1773063768778791424,3.068791389465332,0.39434731006622314,-0.09625620394945145,0.19971702992916107,-0.852109432220459,-0.42342180013656616,-0.3076094388961792,0.032956600189208984,0.0010585188865661621,-0.0326005220413208,-0.6000660097598219,-0.5474830953301815,0.215540118448165,-0.5419645255193128,0.4372190993074997,-1.224357907260502,1.778625264335788
1773063768788846592,3.0788464546203613,0.29852747917175293,-0.05163590982556343,0.10302741825580597,-0.8529468774795532,-0.42326000332832336,-0.3055037558078766,-0.015323936939239502,-0.05115094780921936,-0.013420194387435913,-0.5986072620980071,-0.5485856155428072,0.21517888192458695,-0.5426058932365342,0.43704051845977093,-1.226857819374981,1.782905236321465
1773063768798902528,3.088902473449707,0.22417066991329193,-0.08621279150247574,0.07817906141281128,-0.8535309433937073,-0.4232776463031769,-0.3038436472415924,-0.016937196254730225,-0.05919000506401062,0.06142723560333252,-0.597606719319292,-0.5494316350455285,0.21494896498778335,-0.5429438384196191,0.4370599816840766,-1.2288002307656944,1.7858341707916967
1773063768808957440,3.0989573001861572,0.3191940188407898,-0.07266554236412048,0.04963812604546547,-0.8540671467781067,-0.42352721095085144,-0.30198314785957336,-0.00553661584854126,-0.0888780951499939,0.05941423773765564,-0.5966031215503576,-0.5503904955175632,0.2146595516940596,-0.5431907536531868,0.4373354590967833,-1.2309335921933555,1.7888525397251946
1773063768819014144,3.1090140342712402,0.41779303550720215,-0.000960193807259202,0.01022840291261673,-0.854293942451477,-0.4244195222854614,-0.3000835180282593,-0.009674072265625,-0.11284253001213074,0.0016520917415618896,-0.5954555872373897,-0.5515770675227771,0.21382466199646902,-0.5435756711074433,0.43832071025060426,-1.2329950574499722,1.7928610802944818
1773063768829069056,3.1190690994262695,0.44956934452056885,0.029348835349082947,0.023394495248794556,-0.8542991876602173,-0.4256170392036438,-0.2983675003051758,-0.003565192222595215,-0.04198858141899109,-0.02594280242919922,-0.5942239145158195,-0.5528210828040162,0.21261491685518866,-0.5441339481772345,0.4396436473789154,-1.2347861542999508,1.7974927143154995
1773063768839125248,3.1291251182556152,0.48186787962913513,-0.013277187943458557,0.07711072266101837,-0.8544781804084778,-0.42656219005584717,-0.2964994013309479,0.004349887371063232,-0.007474124431610107,0.001272350549697876,-0.5928204927351044,-0.5541071609077244,0.21146052330405624,-0.5448061024493249,0.44068839793445974,-1.2368013396475703,1.8025007497201206
1773063768849180160,3.1391801834106445,0.5748412609100342,-0.06294459104537964,0.13245929777622223,-0.8550439476966858,-0.42722153663635254,-0.2939075529575348,-0.03040832281112671,-0.07404494285583496,0.0654529333114624,-0.5910160451182466,-0.5556708645975037,0.2104189053527101,-0.5455766091760987,0.44141750618059244,-1.2397146935878691,1.808439736395057
1773063768859236352,3.1492362022399902,0.6633724570274353,-0.08724620193243027,0.15535475313663483,-0.855932891368866,-0.4277513027191162,-0.2905297577381134,-0.08170437812805176,-0.1082288920879364,0.11172732710838318,-0.5887803258466512,-0.5575789354630247,0.2093820596280828,-0.5464453368718112,0.4420035392188528,-1.2435683565983298,1.815508713444928
1773063768869291008,3.1592910289764404,0.6934282183647156,-0.022836340591311455,0.12165627628564835,-0.8566685318946838,-0.42859354615211487,-0.28710058331489563,-0.08914762735366821,-0.05961146950721741,0.04842260479927063,-0.5864270617447119,-0.5596178886605699,0.20803250561710626,-0.5474063094287676,0.4429355126683615,-1.2474241107374746,1.8232220425894228
1773063768879347200,3.169347047805786,0.6476055979728699,-0.029739519581198692,0.18756525218486786,-0.8573852777481079,-0.4292169511318207,-0.2840127944946289,-0.07126462459564209,-0.048032164573669434,-0.0030355453491210938,-0.5840891543212992,-0.5614991707102547,0.20666949398640763,-0.5484945635111523,0.44362564176630664,-1.2509178219979178,1.8308647045020914
1773063768889402112,3.1794021129608154,0.49754929542541504,-0.08801644295454025,0.20290414988994598,-0.8584262132644653,-0.4291110336780548,-0.2810128629207611,-0.05699431896209717,-0.12231108546257019,0.099631667137146,-0.5818293149598234,-0.5631470707032816,0.20581288515199092,-0.5495280880239536,0.4435083538623777,-1.2544329882610576,1.8377027813005535
1773063768899458048,3.189458131790161,0.39837846159935,-0.15271927416324615,0.2104712575674057,-0.8596265912055969,-0.4286096692085266,-0.2780933678150177,-0.08902764320373535,-0.16872620582580566,0.1344623863697052,-0.5799100996276937,-0.564548561666683,0.20551942394948072,-0.5502281644356385,0.4429533749739542,-1.2579173376896466,1.843028496411206
1773063768909513216,3.1995131969451904,0.4450227916240692,-0.194883331656456,0.29674243927001953,-0.8612039685249329,-0.42758074402809143,-0.27477702498435974,-0.09785670042037964,-0.1324320137500763,0.12037339806556702,-0.5778526360898489,-0.5659840356970335,0.20560534360726918,-0.5508854718369018,0.4418148381716962,-1.2619449324832295,1.8482721642403126
1773063768919568128,3.2095680236816406,0.570469081401825,-0.17237508296966553,0.3270271122455597,-0.8630878329277039,-0.42620664834976196,-0.2709749937057495,-0.0786694884300232,-0.04446601867675781,0.10161766409873962,-0.5753254110763742,-0.5676454637330645,0.2056480609327452,-0.551804564623683,0.44029532478535527,-1.266581956635796,1.8547332541568105
1773063768929624064,3.2196240425109863,0.6827735304832458,-0.18490399420261383,0.31591638922691345,-0.8649256229400635,-0.4251222610473633,-0.2667856216430664,-0.09775125980377197,0.0028505921363830566,0.0808573067188263,-0.5724742978001311,-0.5696019989899013,0.20533081747936474,-0.5528706007537387,0.43909695934392595,-1.2716060923579304,1.8624097844322556
1773063768939679232,3.2296791076660156,0.7234882116317749,-0.19869491457939148,0.334778755903244,-0.8668302297592163,-0.42418548464775085,-0.26205405592918396,-0.10266757011413574,-0.02803933620452881,0.08483847975730896,-0.5693120250310542,-0.5718564317568854,0.2048247723165215,-0.5539955093416511,0.4380622437026348,-1.2772188362072385,1.8710803727012262
1773063768949735168,3.2397351264953613,0.5820870995521545,-0.23325422406196594,0.30018457770347595,-0.868762731552124,-0.42308712005615234,-0.2573883831501007,-0.08385872840881348,-0.033730506896972656,0.08922123908996582,-0.5663055375521833,-0.5739946521588871,0.20453838859589366,-0.5549705561622387,0.43684971822312185,-1.2827650046332595,1.8790747484743
1773063768959790336,3.2497901916503906,0.5142952799797058,-0.2861086428165436,0.27665022015571594,-0.870641827583313,-0.42198559641838074,-0.2528061866760254,-0.07515895366668701,-0.003383636474609375,0.06703042984008789,-0.5636762140903906,-0.5759684559291963,0.204590444927416,-0.5555827492805386,0.43563435447501997,-1.2881998529230272,1.8857305707783953
1773063768969846272,3.2598462104797363,0.5308113694190979,-0.3111611008644104,0.2745453417301178,-0.8725694417953491,-0.42087990045547485,-0.24795696139335632,-0.06651747226715088,-0.04802265763282776,0.03949141502380371,-0.561079733160017,-0.5780014392107481,0.20478245244203708,-0.556028793453235,0.4344151062045487,-1.2939261460905274,1.8921425027421086
1773063768979901184,3.2699010372161865,0.5128371715545654,-0.3598916232585907,0.27071624994277954,-0.8745247721672058,-0.4197908639907837,-0.24286235868930817,-0.06039649248123169,-0.05127847194671631,0.05025064945220947,-0.5584537523607472,-0.5801151912783911,0.2050248441912236,-0.5563817202717185,0.4332148808708541,-1.299914434002647,1.8985614304720186
1773063768989957120,3.2799570560455322,0.4848606586456299,-0.463858962059021,0.30187615752220154,-0.8767293095588684,-0.41846826672554016,-0.23712866008281708,-0.07639569044113159,0.003795415163040161,0.10013526678085327,-0.5557747213721217,-0.5823673541604538,0.2056305763238097,-0.5564878903381932,0.4317581514628307,-1.3066468144962273,1.9047035870180309
1773063769000012032,3.2900121212005615,0.5216676592826843,-0.5077129602432251,0.29490959644317627,-0.8791503310203552,-0.41698718070983887,-0.23068663477897644,-0.1172332763671875,0.020136624574661255,0.09659238159656525,-0.5529595527807042,-0.5848237665764539,0.20648932584632626,-0.5563982508564934,0.430128033854281,-1.3141841131282914,1.9108957346217268
1773063769010068224,3.3000681400299072,0.5839528441429138,-0.5102139115333557,0.26498594880104065,-0.8814849257469177,-0.4157746434211731,-0.22386570274829865,-0.14411932229995728,0.0025361180305480957,0.05452364683151245,-0.5500161357574744,-0.5874905693613972,0.20717620178434895,-0.5562509889598264,0.4287944006742862,-1.322090050090799,1.9175982092348394
1773063769020123136,3.3101232051849365,0.5580581426620483,-0.5316156148910522,0.2671082019805908,-0.8837440609931946,-0.41471052169799805,-0.21682214736938477,-0.12000972032546997,0.02587074041366577,0.04256674647331238,-0.5470096958841542,-0.5902722882023742,0.20776803079170664,-0.5560499785166517,0.42762464449018056,-1.330203658029014,1.924548175796018
1773063769030179328,3.3201792240142822,0.45272111892700195,-0.5663962364196777,0.22593365609645844,-0.8859637379646301,-0.413560152053833,-0.20984801650047302,-0.0822826623916626,0.06674319505691528,0.030023232102394104,-0.5442314037965421,-0.5929254059283363,0.20860357504651214,-0.5556402916824779,0.4263608091761281,-1.3382238779420694,1.9306271690245158
1773063769040233984,3.3302340507507324,0.2967885136604309,-0.5795415639877319,0.18276673555374146,-0.888003408908844,-0.41253986954689026,-0.20312707126140594,-0.08288276195526123,0.06320521235466003,0.008760645985603333,-0.5419334448658838,-0.5953555800121463,0.20973363371384074,-0.5548617366703325,0.42524048866962766,-1.34591942570522,1.9351858493340868
1773063769050290176,3.340290069580078,0.1761249452829361,-0.5991989374160767,0.14423052966594696,-0.889858067035675,-0.41154053807258606,-0.19694465398788452,-0.106098473072052,0.015269726514816284,0.033034712076187134,-0.5401697608915249,-0.5974383945280722,0.21117537023901511,-0.553795131412725,0.42414371910188836,-1.3529859464262401,1.938055803939023
1773063769060345088,3.3503451347351074,0.10215990990400314,-0.6318010687828064,0.11140574514865875,-0.891592264175415,-0.4106718897819519,-0.1908186823129654,-0.13167732954025269,-0.06601265072822571,0.0639265924692154,-0.5387317058474504,-0.599405404988284,0.2128469350525086,-0.5524286935816803,0.42319083022343285,-1.3599569415869672,1.9398715709551324
1773063769070401280,3.360401153564453,0.0763481855392456,-0.6457703113555908,0.05249986797571182,-0.8931483626365662,-0.4100606441497803,-0.18476051092147827,-0.13578230142593384,-0.06468605995178223,0.08046668767929077,-0.5375650209851128,-0.6013024170227097,0.21460463763511683,-0.5508213968563399,0.4225205485053372,-1.3668092819738507,1.9409412331652203
1773063769080456192,3.3704562187194824,0.18367330729961395,-0.6301189064979553,-0.0422961488366127,-0.8943546414375305,-0.41021600365638733,-0.17847277224063873,-0.14368551969528198,-0.018952667713165283,0.07074570655822754,-0.5364727502774876,-0.6034053691352463,0.2160221621943194,-0.5490294511433415,0.4226909139212318,-1.3738288700384889,1.9422947542723312
1773063769090511104,3.3805110454559326,0.26763683557510376,-0.5828768610954285,-0.11688481271266937,-0.8950819969177246,-0.41136544942855835,-0.172065868973732,-0.15783542394638062,0.0013770759105682373,0.0825120359659195,-0.5353412886668726,-0.605786677850088,0.21677076761688274,-0.5472135020574826,0.42395164109974504,-1.3808783708194647,1.9446100424068378
1773063769100567040,3.3905670642852783,0.2999787926673889,-0.5191900134086609,-0.18679571151733398,-0.8954053521156311,-0.41319429874420166,-0.1658911406993866,-0.1682695746421814,0.01573336124420166,0.09606695175170898,-0.5342582707685325,-0.6082468535632112,0.21700274643681483,-0.545448203719619,0.4259590326419566,-1.3876041553613083,1.9474637521870988
