time,seconds_elapsed,rotationRateX,rotationRateY,rotationRateZ,gravityX,gravityY,gravityZ,accelerationX,accelerationY,accelerationZ,quaternionW,quaternionX,quaternionY,quaternionZ,pitch,roll,yaw
1773065888335678976,0.029006004333496094,0.4099569618701935,-0.4327206313610077,-0.21118749678134918,-0.08937053382396698,0.48875418305397034,0.8678320050239563,-0.09935018420219421,0.014404386281967163,-0.15686392784118652,0.14916295472846064,-0.4100294218258537,-0.875095348654934,0.20936678293381655,-0.510661196778422,-3.0389730220005906,-0.8495432230724237
1773065888345716224,0.03904318809509277,0.21130284667015076,-0.5179661512374878,-0.2517036199569702,-0.08659352362155914,0.49119818210601807,0.8667325973510742,-0.10681161284446716,-0.05824542045593262,-0.13144224882125854,0.14800199522538393,-0.40808600443331094,-0.8756895134509263,0.21149226087152206,-0.5134648000467487,-3.0420150862769613,-0.8460248078069065
1773065888355754240,0.04908108711242676,0.06210538372397423,-0.5425716042518616,0.15691262483596802,-0.0823192298412323,0.4923325181007385,0.8665056824684143,0.0958537757396698,-0.09769454598426819,-0.14546692371368408,0.1460365033689541,-0.4071679724987713,-0.8760519829695035,0.21312077402313773,-0.5147675398633197,-3.0468755451574476,-0.8451979952344207
1773065888365792000,0.05911898612976074,-0.10779985040426254,-0.5846765041351318,0.5022934675216675,-0.07566927373409271,0.49241065979003906,0.8670675158500671,0.2686929702758789,-0.14641761779785156,-0.13806354999542236,0.14311801884776634,-0.4080752312567682,-0.8757901347968285,0.21443769301188972,-0.514857318570631,-3.054542860918046,-0.849147477182461
1773065888375830272,0.06915712356567383,-0.3487142026424408,-0.5983467698097229,0.5602004528045654,-0.06780821830034256,0.49086540937423706,0.8685926198959351,0.31025511026382446,-0.18973320722579956,-0.11570876836776733,0.13947091527018474,-0.4100112875965032,-0.8753211145179459,0.2150617044407432,-0.5130827782948798,-3.0636838955258394,-0.8556727316177319
1773065888385867008,0.0791940689086914,-0.632777214050293,-0.6184241771697998,0.45362913608551025,-0.05998425558209419,0.48685553669929504,0.8714205026626587,0.2652454972267151,-0.17199039459228516,-0.07309591770172119,0.1352191264631538,-0.41193339539859164,-0.8752263380713073,0.21448907525278368,-0.5084861955951144,-3.072866038022663,-0.8619352113333374
1773065888395905280,0.08923220634460449,-0.7550703883171082,-0.633274257183075,0.3431164622306824,-0.05255582928657532,0.48088470101356506,0.8752073049545288,0.17314603924751282,-0.09042754769325256,-0.03159463405609131,0.1305739417605607,-0.41348054531883577,-0.8755783816877374,0.2129478828259718,-0.5016634559326975,-3.081615101740559,-0.8670109749828585
1773065888405943040,0.09927010536193848,-0.6429701447486877,-0.6424750685691833,0.24272632598876953,-0.0455341562628746,0.4747391641139984,0.8789479732513428,0.1014270931482315,0.028312593698501587,-0.03866171836853027,0.1259700023742493,-0.4145359724136438,-0.8761471945253532,0.21132348639565976,-0.4946676351198851,-3.089833633177459,-0.8707792066167033
1773065888415981056,0.10930800437927246,-0.31082895398139954,-0.656261146068573,0.1007140725851059,-0.03895862028002739,0.4704996645450592,0.8815398812294006,0.05247790738940239,0.14383453130722046,-0.07741689682006836,0.12190758077018125,-0.4149178929396607,-0.8767058131204261,0.2106387201959693,-0.4898569368317027,-3.097427563889544,-0.8730299482345499
1773065888426018304,0.11934518814086914,0.11708700656890869,-0.6633272171020508,-0.04772746190428734,-0.03298622742295265,0.469616562128067,0.8822538256645203,0.026394441723823547,0.2174408733844757,-0.12393796443939209,0.11876141120671174,-0.41439121455258704,-0.8771583940556786,0.21158618181862146,-0.4888564192257218,-3.104221470790617,-0.8733678746795441
1773065888436056064,0.12938308715820312,0.4838077425956726,-0.6349637508392334,-0.13582509756088257,-0.027654515579342842,0.4723755121231079,0.8809633851051331,0.02222239039838314,0.21455985307693481,-0.13364899158477783,0.11663722218344845,-0.4130737851780216,-0.8774119594467444,0.214275605581049,-0.4919840073365587,-3.1102117379103693,-0.8721302751694416
1773065888446094080,0.1394209861755371,0.5118011832237244,-0.569591224193573,-0.12096638977527618,-0.02295665815472603,0.4769952893257141,0.8786062598228455,0.03528573736548424,0.13416507840156555,-0.07091259956359863,0.11521150578173295,-0.4115203389862666,-0.8774703034171756,0.21776893523241977,-0.4972328495064138,-3.115470103386458,-0.8704263414650149
1773065888456132096,0.1494591236114502,0.1690526008605957,-0.4671967029571533,-0.06338538229465485,-0.01880887895822525,0.48010313510894775,0.877010703086853,0.04171230271458626,0.0501856803894043,0.06502139568328857,0.11375050855141271,-0.4103385747721638,-0.8775691524492001,0.2203533950719785,-0.5007722713285729,-3.120149363244399,-0.8692785047985558
1773065888466169088,0.15949606895446777,-0.2678343653678894,-0.35568296909332275,-0.04517441987991333,-0.015409868210554123,0.4796621799468994,0.8773181438446045,0.01833954080939293,0.0034464001655578613,0.18219125270843506,0.1118861339383536,-0.40969809619459063,-0.8779558921499638,0.22095820618175988,-0.5002696829284708,-3.1240297162733435,-0.8687398230336845
1773065888476207360,0.16953420639038086,-0.5711814761161804,-0.24101921916007996,-0.09849436581134796,-0.013087754137814045,0.47585752606391907,0.879425048828125,-0.03232240304350853,-0.004971325397491455,0.22480779886245728,0.10975118648778713,-0.40929977936976203,-0.8787412593375927,0.21964101478750062,-0.495938754818921,-3.1267115807613033,-0.8680293658632728
1773065888486245120,0.17957210540771484,-0.6771837472915649,-0.14991088211536407,-0.17157471179962158,-0.012019723653793335,0.470239520072937,0.8824571967124939,-0.08546868711709976,0.031957775354385376,0.19722437858581543,0.1077459598463482,-0.4088384256964928,-0.8798180218618348,0.2171688612250873,-0.48956217193066737,-3.1279727518673814,-0.8665955734502748
1773065888496283136,0.18961000442504883,-0.6230800747871399,-0.06870018690824509,-0.23044708371162415,-0.011975675821304321,0.46434828639030457,0.8855715990066528,-0.11937197297811508,0.10846659541130066,0.15268206596374512,0.1061174789148388,-0.40818818986062555,-0.8810040843257603,0.21436704101638435,-0.48289860576240107,-3.1280703748598024,-0.8644234962324536
1773065888506321152,0.19964814186096191,-0.39903756976127625,0.016586750745773315,-0.30425313115119934,-0.012987295165657997,0.45968055725097656,0.8879891633987427,-0.13126929104328156,0.18509474396705627,0.117015540599823,0.10522136745522019,-0.40724007399781376,-0.8821281701981561,0.2119759085320241,-0.4776354644696847,-3.1269681853867892,-0.8614492503471848
1773065888516358144,0.2096850872039795,-0.1450825035572052,0.0934290662407875,-0.3659804165363312,-0.015007451176643372,0.4572448432445526,0.8892142176628113,-0.14553026854991913,0.2086944580078125,0.07569056749343872,0.10526659575691666,-0.4059499497060334,-0.883069499083318,0.2105037692234362,-0.4748947590021636,-3.1247170501812023,-0.8577034268149708
1773065888526396160,0.21972298622131348,0.00012106634676456451,0.17790254950523376,-0.36817070841789246,-0.01790420152246952,0.45663982629776,0.8894715905189514,-0.16301926970481873,0.1725868582725525,0.06957387924194336,0.10612727578336298,-0.40447723428852855,-0.8838178250411651,0.2097647792551862,-0.4742145777824332,-3.1214663405975687,-0.8535274234280702
1773065888536434176,0.22976112365722656,-0.05380501598119736,0.26687368750572205,-0.3179599940776825,-0.021462421864271164,0.45645201206207275,0.889488935470581,-0.16937924921512604,0.10102775692939758,0.10385805368423462,0.10744675137125236,-0.40319215644547013,-0.8844097141314347,0.20907088186256428,-0.4740034690274386,-3.117468397709535,-0.8496525321446634
1773065888546472192,0.23979902267456055,-0.2315242439508438,0.3316236734390259,-0.2739265263080597,-0.025492887943983078,0.4551427960395813,0.8900537490844727,-0.15652921795845032,0.03556472063064575,0.14791035652160645,0.10880853577153246,-0.4022762274615803,-0.8849862699505411,0.20768718263460142,-0.4725325644347633,-3.1129585167584337,-0.8463788515813825
1773065888556509184,0.24983620643615723,-0.38643312454223633,0.36987465620040894,-0.2534140348434448,-0.029834840446710587,0.452271431684494,0.8913815021514893,-0.1405295580625534,-0.006943553686141968,0.17876338958740234,0.11001364406007721,-0.40164967614873465,-0.885645696339839,0.20544194320154818,-0.4693104924496088,-3.1081348057163174,-0.8435399652482728
1773065888566547200,0.2598741054534912,-0.43810001015663147,0.39629146456718445,-0.24437327682971954,-0.03437848761677742,0.4484268128871918,0.8931584358215332,-0.12269550561904907,-0.02815386652946472,0.1606748104095459,0.11111948002596113,-0.4011689260622463,-0.8863648897473746,0.20266565210042614,-0.46500447544720164,-3.1031207289610827,-0.8409177968922007
1773065888576584960,0.2699120044708252,-0.3357563316822052,0.4122597873210907,-0.24650274217128754,-0.03907351940870285,0.4447973072528839,0.8947785496711731,-0.09790462255477905,-0.01750543713569641,0.11521589756011963,0.11236179671206067,-0.40072555707765717,-0.887022160452761,0.19996389533156142,-0.46094792736462986,-3.097952010495908,-0.8383999377691402
1773065888586623232,0.2799501419067383,-0.16576558351516724,0.41874298453330994,-0.2877918481826782,-0.04400691017508507,0.4424029290676117,0.8957357406616211,-0.07369937002658844,0.015238553285598755,0.0742957592010498,0.11397449828957296,-0.4001016970155552,-0.8875733719317231,0.19784288683989398,-0.4582763158455214,-3.0925027781335297,-0.8355555942067231
1773065888596660224,0.28998708724975586,0.0839449092745781,0.3766477406024933,-0.3286047875881195,-0.04894806072115898,0.44187116622924805,0.8957419991493225,-0.06421111524105072,0.04566231369972229,0.04323798418045044,0.11596212339691889,-0.39913890623212295,-0.8880085203088387,0.19667670221117786,-0.4576834473319022,-3.087001682614071,-0.8321184196197152
1773065888606697984,0.30002498626708984,0.3079867660999298,0.3444919288158417,-0.33942389488220215,-0.053689975291490555,0.44351428747177124,0.8946580290794373,-0.06459617614746094,0.03693932294845581,0.00860142707824707,0.11830849891126648,-0.3978742361969577,-0.8882708587364182,0.19665763079676046,-0.4595159184113655,-3.0816528138274513,-0.8282225553769358
1773065888616736256,0.31006312370300293,0.392695814371109,0.31117019057273865,-0.3223775327205658,-0.05812423303723335,0.4465530812740326,0.8928674459457397,-0.07146868109703064,-0.009465008974075317,-0.010405778884887695,0.12082053593580058,-0.3965058902647066,-0.8883787451250473,0.19740508621240452,-0.4629092595892041,-3.0765859873364314,-0.8242619657441321
1773065888626774016,0.3201010227203369,0.33486366271972656,0.29414913058280945,-0.31173980236053467,-0.06225259229540825,0.44968435168266296,0.8910157680511475,-0.06331202387809753,-0.06664282083511353,0.006033360958099365,0.12321520843048876,-0.3951501968243706,-0.8884617104504149,0.19826814993090475,-0.46641190696264395,-3.0718390120595274,-0.8203971386070015
1773065888636811264,0.3301382064819336,0.18135322630405426,0.26621150970458984,-0.2878459095954895,-0.06612405180931091,0.4518216550350189,0.8896540999412537,-0.04189290106296539,-0.1303342878818512,0.02391993999481201,0.1252823618998851,-0.3939182568941485,-0.8886256013101929,0.19868865028908225,-0.4688062596559262,-3.0674034899825284,-0.8167951126348898
1773065888646849280,0.3401761054992676,0.007158514112234116,0.25433406233787537,-0.23774918913841248,-0.06963755190372467,0.4524858891963959,0.8890486359596252,-0.02293754369020462,-0.1887986958026886,0.04544556140899658,0.12688921158548333,-0.39294018326054286,-0.8888882544935752,0.1984311030395956,-0.46955096430096604,-3.063424086441787,-0.8137538004370283
1773065888656887040,0.35021400451660156,-0.15775640308856964,0.24801145493984222,-0.18324095010757446,-0.07282870262861252,0.4516544044017792,0.889215886592865,-0.02201995998620987,-0.22908958792686462,0.06368052959442139,0.12806634055204422,-0.39230083923464204,-0.8892176282372517,0.19746197085205333,-0.46861877407107244,-3.0598728918826827,-0.8114661025900197
1773065888666925312,0.36025214195251465,-0.272356241941452,0.22794213891029358,-0.1546362042427063,-0.07569774985313416,0.449585497379303,0.890023946762085,-0.04293932020664215,-0.23663386702537537,0.056783854961395264,0.1288601253310388,-0.3919331958278969,-0.8896068450594826,0.19591597256707935,-0.4663012446178663,-3.056745480679301,-0.8098069362486796
1773065888676963072,0.37029004096984863,-0.35210007429122925,0.20397475361824036,-0.13728517293930054,-0.07828602939844131,0.44667142629623413,0.8912663459777832,-0.07320322096347809,-0.2113351821899414,0.035262465476989746,0.12935157267036473,-0.39169495686324773,-0.8900607977573571,0.1939972643528494,-0.4630415492722576,-3.053980658546962,-0.808475245970538
1773065888692019200,0.3853461742401123,-0.35379597544670105,0.19070741534233093,-0.08316387981176376,-0.08165837824344635,0.441683828830719,0.8934468030929565,-0.08444879204034805,-0.17404469847679138,0.013932287693023682,0.1297582784500511,-0.3915819750548972,-0.8907227219102435,0.1908909573322199,-0.4574746327627822,-3.050448857169269,-0.8071482683271909
1773065888702057216,0.3953840732574463,-0.29773908853530884,0.19839490950107574,-0.05830806493759155,-0.08372818678617477,0.43867769837379456,0.8947353363037109,-0.08205854147672653,-0.08633705973625183,0.007226824760437012,0.13005651816269723,-0.3916703768953645,-0.891045447481209,0.1889909965267358,-0.4541267112859653,-3.0482856643675134,-0.8067077322771158
1773065888712095232,0.4054222106933594,-0.22980041801929474,0.21034583449363708,-0.03653059899806976,-0.08576849102973938,0.4362472891807556,0.8957298994064331,-0.07348748296499252,0.0025344491004943848,0.01608949899673462,0.13048943799363308,-0.39182102250743367,-0.8912582240121664,0.18737009065435328,-0.45142394349578785,-3.046131065004946,-0.806452225905618
1773065888722132224,0.41545915603637695,-0.13451197743415833,0.22310583293437958,-0.013682807795703411,-0.08782728016376495,0.4345598518848419,0.8963508009910583,-0.06639333069324493,0.049540579319000244,0.009930014610290527,0.13111871093505964,-0.3920364822041419,-0.8913376476039263,0.186098506388131,-0.44954950845871994,-3.043921274930684,-0.8063797142907957
1773065888732169984,0.42549705505371094,-0.004618695005774498,0.24334825575351715,-2.53189355134964e-05,-0.08994552493095398,0.43391844630241394,0.8964506983757019,-0.05885813385248184,0.07506886124610901,0.005801200866699219,0.13202476574322713,-0.39227040677180397,-0.8912627418122178,0.18532112302669662,-0.44883746768985494,-3.041592169464947,-0.8063848787836672
1773065888742208256,0.435535192489624,0.12322981655597687,0.25293242931365967,0.01199166290462017,-0.09215430170297623,0.4344787299633026,0.8959552645683289,-0.055062487721443176,0.0641326904296875,-0.005665957927703857,0.13325194538601143,-0.39248793671274346,-0.891027966726234,0.1851115719824348,-0.4494594538976105,-3.039097162237696,-0.8063838121970764
1773065888752246016,0.445573091506958,0.17848068475723267,0.2667791247367859,0.03523559868335724,-0.09437081962823868,0.4359090328216553,0.8950295448303223,-0.05322747677564621,0.03468737006187439,-0.006647348403930664,0.13469217574353434,-0.39272654877121094,-0.8906630328185026,0.18531961335532676,-0.45104808973038607,-3.0365420269176777,-0.8064613765939707
1773065888762284032,0.455610990524292,0.1367473602294922,0.28462472558021545,0.04103782773017883,-0.09667197614908218,0.43740808963775635,0.8940520882606506,-0.05722819268703461,0.006576955318450928,-0.0028775930404663086,0.1362084729153354,-0.3930521855770455,-0.8902449222629659,0.18552985485169673,-0.45271439560451743,-3.0338832211982933,-0.8067142183816999
1773065888772321280,0.46564817428588867,0.08608023077249527,0.2878211736679077,0.04327128827571869,-0.09905193746089935,0.43841707706451416,0.8932970762252808,-0.06349996477365494,-0.009873896837234497,0.00294339656829834,0.1376622755872614,-0.39344571929528777,-0.889858983576845,0.18547423150719883,-0.4538367208076301,-3.0311602373432773,-0.8070804761693192
1773065888782359040,0.47568607330322266,0.04557914286851883,0.296170711517334,0.0401306226849556,-0.10148012638092041,0.4390486180782318,0.892713725566864,-0.0672057569026947,-0.020896822214126587,-0.00886380672454834,0.13905361651830236,-0.3938529969856876,-0.8895148632061864,0.18522188983860471,-0.4545394968827507,-3.0284025452725203,-0.807451649144615
1773065888792397312,0.48572421073913574,-0.0040400344878435135,0.2842726409435272,0.03397326171398163,-0.10392476618289948,0.439290314912796,0.8923136591911316,-0.06453225761651993,-0.025426208972930908,-0.022150695323944092,0.1403631975508043,-0.3942711914845839,-0.8892171001566076,0.1847737608200731,-0.4548085190114261,-3.025648375213167,-0.8078304330216163
1773065888802435072,0.4957621097564697,-0.04180126264691353,0.27529966831207275,0.022994911298155785,-0.10633284598588943,0.43909481167793274,0.8921259641647339,-0.05455579608678818,-0.028709769248962402,-0.018301069736480713,0.14154852947860025,-0.39467393044753546,-0.8889856442565331,0.18412208294248528,-0.4545909084091065,-3.022961914061498,-0.8081702382649775
1773065888812472064,0.5057990550994873,-0.05679543316364288,0.24564017355442047,0.009861133992671967,-0.10858066380023956,0.43865713477134705,0.8920705914497375,-0.04229822754859924,-0.034985870122909546,-0.0275687575340271,0.1425863801832914,-0.3950120392583986,-0.8888198852871119,0.18339511440910655,-0.4541038075871911,-3.0204708869562,-0.8083969827082321
1773065888822510336,0.5158371925354004,-0.06479290872812271,0.20978522300720215,0.02649017795920372,-0.1105262041091919,0.43812254071235657,0.8920942544937134,-0.02750478684902191,-0.04536136984825134,-0.04309546947479248,0.14345490927153895,-0.395340860038834,-0.8886803361030949,0.1826840126192646,-0.453509039222502,-3.018325602396339,-0.8086726029252379
1773065888832548096,0.5258750915527344,-0.0783122256398201,0.1758047640323639,0.059391267597675323,-0.11207441240549088,0.43751227855682373,0.8922010064125061,-0.0028395652770996094,-0.043865978717803955,-0.04921388626098633,0.14413313990082344,-0.39575544831708415,-0.8885258106416044,0.1820033315684288,-0.4528302357922848,-3.016631522739062,-0.809233184166282
1773065888842586112,0.5359129905700684,-0.0829988569021225,0.1458577960729599,0.08758749067783356,-0.11316823959350586,0.4368534982204437,0.8923856019973755,0.023019328713417053,-0.03881275653839111,-0.05272489786148071,0.1446102986797523,-0.39630542138863306,-0.8883325979478641,0.18137001710150008,-0.45209774898147803,-3.0154505808269145,-0.8102033704075847
1773065888852623104,0.545950174331665,-0.07950003445148468,0.12529592216014862,0.10585184395313263,-0.11394015699625015,0.43623217940330505,0.8925912380218506,0.032015711069107056,-0.02963116765022278,-0.043576955795288086,0.1449578986320477,-0.39693217155137084,-0.8881106249116297,0.18080814734885495,-0.4514071647087234,-3.0146283102169784,-0.8114224677151802
1773065888862661120,0.555988073348999,-0.03714459016919136,0.11146639287471771,0.09222497791051865,-0.11455907672643661,0.4357917308807373,0.8927273154258728,0.02122102677822113,-0.01321476697921753,-0.028637170791625977,0.14526845644506242,-0.397525849867979,-0.8878833501325952,0.1803704257092801,-0.45091774195217715,-3.013965335051291,-0.8126075748031892
1773065888872699136,0.5660262107849121,0.017849285155534744,0.08941981196403503,0.06565608829259872,-0.11511638015508652,0.43577563762664795,0.892663300037384,-0.0004994794726371765,0.0008546113967895508,-0.02646768093109131,0.14562192780520203,-0.39797706875055155,-0.8876631775749498,0.18017378181500954,-0.45089986565018564,-3.0133421360601087,-0.813496903555414
1773065888882737152,0.5760641098022461,0.0767565444111824,0.06959497928619385,0.03513732925057411,-0.11559857428073883,0.4362531006336212,0.8923677206039429,-0.018648236989974976,0.016017407178878784,-0.028964459896087646,0.14601914503325078,-0.39823778035308366,-0.8874629795774029,0.18026239954112186,-0.4514304051024617,-3.0127686445011808,-0.8139863703048468
1773065888892774144,0.5861010551452637,0.14423474669456482,0.050783999264240265,-0.0011061630211770535,-0.11606620252132416,0.4372675120830536,0.8918101191520691,-0.027045950293540955,0.02501264214515686,-0.03879821300506592,0.14649478639514593,-0.39828361365845943,-0.8872853101475394,0.1806490886237795,-0.4525580654386354,-3.0121733279064107,-0.8140076834039726
1773065888902812160,0.5961391925811768,0.18505381047725677,0.04251648485660553,-0.029996667057275772,-0.11655601859092712,0.4387263357639313,0.8910294771194458,-0.020666249096393585,0.021448135375976562,-0.04442626237869263,0.1470481684612782,-0.39813377592123783,-0.887132583727644,0.18127879410486267,-0.4541808268047905,-3.011520686779022,-0.8135930378773422
1773065888912850176,0.6061770915985107,0.20424650609493256,0.026059746742248535,-0.042051199823617935,-0.11701974272727966,0.44043654203414917,0.8901249766349792,-0.01341240108013153,0.011940836906433105,-0.03308439254760742,0.14762305749630572,-0.39785324534731137,-0.8870035503264131,0.1820578446680085,-0.45608485078741867,-3.010877864139934,-0.8128949668349686
1773065888922887936,0.6162149906158447,0.19544368982315063,0.02151985466480255,-0.030251797288656235,-0.11740994453430176,0.44218751788139343,0.8892048597335815,-0.003638043999671936,-0.009387165307998657,-0.027144193649291992,0.14817055834945128,-0.39756115730305963,-0.8868751707791064,0.1828745473264674,-0.4580361151955743,-3.01031281649672,-0.8121877618002753
1773065888932926208,0.6262531280517578,0.12630119919776917,0.015026803128421307,-0.0069395508617162704,-0.11765526235103607,0.4436231255531311,0.8884569406509399,0.010065555572509766,-0.036442339420318604,-0.01586782932281494,0.14859324508398902,-0.3973664824334559,-0.8867515750172501,0.18355262786566093,-0.459637338395802,-3.0099321991119776,-0.8117257628031328
1773065888942963200,0.6362900733947754,0.032128624618053436,0.01300546433776617,0.02538030594587326,-0.11773217469453812,0.44431108236312866,0.888102650642395,0.031123317778110504,-0.04990202188491821,-0.002421736717224121,0.14879542685072947,-0.3973646270972594,-0.886652505515146,0.18387080131322317,-0.46040513411697886,-3.0097951727812373,-0.8117199364663412
1773065888953001216,0.6463282108306885,-0.04972993582487106,0.017322715371847153,0.051820170134305954,-0.11769882589578629,0.4442535936832428,0.8881361484527588,0.047874607145786285,-0.0503632128238678,-0.003217935562133789,0.1488067001107504,-0.39756278682372753,-0.8865731316995861,0.1838165206050558,-0.4603409491016874,-3.0098369889941696,-0.8121734198549336
1773065888963039232,0.6563661098480225,-0.10169513523578644,0.010922871530056,0.07582909613847733,-0.11753062158823013,0.4436193108558655,0.8884754180908203,0.05579357594251633,-0.03938347101211548,-0.0041675567626953125,0.14864850616369793,-0.39792552441861395,-0.8865060624062733,0.18348280313428597,-0.4596330874581114,-3.0100727793096236,-0.8130157760072249
1773065888973076992,0.6664040088653564,-0.08987682312726974,0.0076554398983716965,0.08702902495861053,-0.11724524199962616,0.44282257556915283,0.8889104127883911,0.05205969512462616,-0.016202092170715332,-0.020807385444641113,0.14841422430175877,-0.39838114685963444,-0.8864240904319669,0.183079249038199,-0.4587442857811274,-3.01045193555275,-0.8140908603813927
1773065888983114240,0.6764411926269531,-0.017228983342647552,-0.007528573274612427,0.08179405331611633,-0.1168610006570816,0.44241857528686523,0.8891623616218567,0.043038927018642426,0.004633545875549316,-0.04858601093292236,0.14822184538878322,-0.39881001930832866,-0.8863022887648164,0.18289124468043735,-0.4582937496102731,-3.010913451279442,-0.815137949360476
1773065888993152256,0.6864790916442871,0.08745202422142029,-0.03712654486298561,0.077599436044693,-0.11632119119167328,0.44282791018486023,0.8890289664268494,0.035724297165870667,0.017575472593307495,-0.07837545871734619,0.14812631865200454,-0.39911564514939635,-0.8861270621194609,0.1831502872368794,-0.45875024489558747,-3.0114909874748252,-0.8159632160744129
1773065889003190016,0.6965169906616211,0.1630929857492447,-0.06617284566164017,0.07983142882585526,-0.11550610512495041,0.4440576136112213,0.8885221481323242,0.04453743249177933,0.013507813215255737,-0.09591937065124512,0.14807576379503906,-0.39931322303952627,-0.8858950335370014,0.1838820460552982,-0.4601222027213816,-3.0123196120633606,-0.8166308782792139
1773065889013228288,0.7065551280975342,0.18500521779060364,-0.10447656363248825,0.09473714232444763,-0.11436625570058823,0.4457365572452545,0.8878287076950073,0.06295937299728394,-0.0016141235828399658,-0.10625803470611572,0.14797508706662293,-0.3994882851930975,-0.8856203875244838,0.1849031059111572,-0.4619969003653677,-3.0134824652207484,-0.8173383631542623
1773065889023265024,0.7165920734405518,0.16706083714962006,-0.15256153047084808,0.12300766259431839,-0.11273765563964844,0.4474281370639801,0.88718581199646,0.08711813390254974,-0.020914405584335327,-0.10935366153717041,0.14765741879632216,-0.3997212616492363,-0.8853337409308506,0.1860227930456534,-0.4638874802474463,-3.0151967501962402,-0.8182967428332097
1773065889033303296,0.7266302108764648,0.1267859786748886,-0.19849932193756104,0.14627210795879364,-0.11057776212692261,0.4488829970359802,0.8867223858833313,0.11214941740036011,-0.038207948207855225,-0.10667788982391357,0.1470487828626888,-0.4000431068113689,-0.8850574579758069,0.18712418255929714,-0.46551494462429965,-3.0175291855054334,-0.819581005747236
1773065889043341056,0.7366681098937988,0.08926257491111755,-0.24665966629981995,0.1752430498600006,-0.10786774754524231,0.45000824332237244,0.8864858746528625,0.14294767379760742,-0.04728296399116516,-0.10816550254821777,0.14611993902569068,-0.4004632248444353,-0.8848006295649138,0.18816494810556222,-0.4667745807490017,-3.0205077507982683,-0.8212151760155068
1773065889053379072,0.7467060089111328,0.08868928253650665,-0.30011624097824097,0.2220909744501114,-0.10456185042858124,0.45096996426582336,0.8863930106163025,0.18186289072036743,-0.04449114203453064,-0.11779272556304932,0.14489740593657627,-0.40101555318384374,-0.8845241818797633,0.1892304029476652,-0.4678517850167705,-3.0241719904145943,-0.823293153075296
1773065889063417088,0.7567441463470459,0.14880535006523132,-0.36085814237594604,0.2914447486400604,-0.100431889295578,0.452247679233551,0.8862197995185852,0.2176956832408905,-0.04509744048118591,-0.1293228268623352,0.14340321045082544,-0.4017584429548202,-0.8841380303965791,0.19059285100625661,-0.4692838547265722,-3.028747928981717,-0.8260233677820864
1773065889073452544,0.7667794227600098,0.21213127672672272,-0.4468722343444824,0.3391042649745941,-0.09539902955293655,0.4542084336280823,0.8857733011245728,0.23910626769065857,-0.07087701559066772,-0.16270482540130615,0.1416830305216132,-0.4026497464163737,-0.8836061541663537,0.19245630814849868,-0.4714835012331266,-3.034304806838792,-0.8293553078558916
1773065889083490560,0.7768175601959229,0.19922161102294922,-0.5207534432411194,0.36369457840919495,-0.08948078751564026,0.4563983976840973,0.885265052318573,0.24521195888519287,-0.11464723944664001,-0.19460630416870117,0.13961869845240757,-0.40360424862266037,-0.8830266991835725,0.1946130246824936,-0.47394320668733897,-3.0408568270028695,-0.8330861862469868
1773065889093528576,0.7868554592132568,0.10262954980134964,-0.5811458826065063,0.4056159257888794,-0.08279099315404892,0.45810818672180176,0.8850322961807251,0.2499510496854782,-0.16951879858970642,-0.19824963808059692,0.1370999096376742,-0.40465645514719767,-0.882479061377483,0.19669104691695788,-0.4758657578024273,-3.0483183612608626,-0.837237486590024
1773065889103566336,0.7968933582305908,-0.08214748650789261,-0.6383439302444458,0.46433916687965393,-0.075351282954216,0.45856592059135437,0.8854600787162781,0.2549777626991272,-0.21215176582336426,-0.17763537168502808,0.13398492202301737,-0.4059691252156316,-0.8819972266451683,0.19828771295319486,-0.4763807581172671,-3.056698735565687,-0.8421222206711373
1773065889113603584,0.8069305419921875,-0.2667796015739441,-0.6809176802635193,0.47392532229423523,-0.0672914907336235,0.4573405683040619,0.886742353439331,0.2560732066631317,-0.21756383776664734,-0.15303850173950195,0.13022685334901213,-0.4075243468635887,-0.8816434010426641,0.19917313203985845,-0.4750024003216308,-3.0658516408154894,-0.8476170313567144
1773065889123641600,0.8169684410095215,-0.3967176377773285,-0.7423914074897766,0.42209622263908386,-0.058891747146844864,0.4546089470386505,0.8887420296669006,0.23937270045280457,-0.18057644367218018,-0.1506897211074829,0.1259367693281699,-0.40902885774595654,-0.8815136978791371,0.19942141310690129,-0.4719331355312349,-3.075425219498306,-0.8529672421007561
1773065889133679616,0.8270065784454346,-0.39594730734825134,-0.8149192333221436,0.3531748056411743,-0.05016152560710907,0.45120754837989807,0.8910084366798401,0.22267739474773407,-0.1123097836971283,-0.16649043560028076,0.12126554946643728,-0.41021360285453157,-0.8816059236187035,0.19947574290231265,-0.4681179957557236,-3.0853545383485037,-0.857600994704288
1773065889143717632,0.8370444774627686,-0.33375608921051025,-0.8700339198112488,0.2698386609554291,-0.0411868542432785,0.4480876624584198,0.8930405378341675,0.211307093501091,-0.033018022775650024,-0.17906641960144043,0.11646604770696795,-0.4109806466605964,-0.8818249206112099,0.1997885689615569,-0.4646250831012664,-3.0955055072126534,-0.8613475282892764
1773065889153754368,0.8470814228057861,-0.28315451741218567,-0.9259056448936462,0.1347961574792862,-0.032229095697402954,0.4453607499599457,0.8947707414627075,0.19520823657512665,0.05706527829170227,-0.14771592617034912,0.11164846960590066,-0.4111604385215308,-0.882231518338105,0.20037251272629336,-0.4615771458461138,-3.1055888264646825,-0.8637737012522586
1773065889163792640,0.8571195602416992,-0.14322806894779205,-0.987337052822113,-0.01785917766392231,-0.023348350077867508,0.4434053897857666,0.89601731300354,0.18185663223266602,0.14006030559539795,-0.12593650817871094,0.1068904059334917,-0.41057878120260544,-0.8828554285373496,0.2014098248366172,-0.4593944038150092,-3.1155406260900045,-0.864518537583371
1773065889173830400,0.8671574592590332,0.05095495283603668,-1.0493985414505005,-0.1606774479150772,-0.01458269078284502,0.44296836853027344,0.8964189887046814,0.17988114058971405,0.1913548707962036,-0.13387596607208252,0.1023680817467457,-0.40916496336663455,-0.8836252111093253,0.20325218409427073,-0.4589069067450084,-3.125326370508958,-0.8635114034839484
1773065889183868416,0.8771953582763672,0.2411251664161682,-1.1283140182495117,-0.2843128442764282,-0.005777898244559765,0.44427984952926636,0.8958691358566284,0.18244417011737823,0.2181498408317566,-0.14919579029083252,0.0980668354381985,-0.4069764751471112,-0.8844799115349427,0.206029590933975,-0.46037027097454336,-3.135143253593342,-0.8609819661369598
1773065889193905664,0.8872325420379639,0.36057209968566895,-1.1794086694717407,-0.4162343740463257,0.0030589650850743055,0.44703617691993713,0.8945103883743286,0.19202466309070587,0.22352644801139832,-0.15087354183197021,0.09391925033499327,-0.4040824453745418,-0.8854222530341073,0.2095801927362609,-0.4634492550919371,3.1381729580241124,-0.857088252432472
1773065889203943424,0.8972704410552979,0.3527994155883789,-1.1676512956619263,-0.5614632368087769,0.011445470154285431,0.45033666491508484,0.8927855491638184,0.18369919061660767,0.21191003918647766,-0.10404348373413086,0.08992454992501615,-0.40048941424963846,-0.886566970555698,0.21335612799062217,-0.46714235356058476,3.1287734013598234,-0.8516342300935957
1773065889213981696,0.9073085784912109,0.33515334129333496,-1.1435920000076294,-0.6678326725959778,0.01899871788918972,0.453441858291626,0.8910831212997437,0.15437164902687073,0.20222818851470947,-0.038056015968322754,0.08611354527471256,-0.39634140558639847,-0.8879499118892974,0.21689349807939803,-0.4706232329990885,3.1202749564893035,-0.8447492766638314
1773065889224019456,0.9173464775085449,0.4345768690109253,-1.125252366065979,-0.7207505106925964,0.025981122627854347,0.45703333616256714,0.8890699744224548,0.1102493405342102,0.17193388938903809,0.01972818374633789,0.08256472165172152,-0.3918265160898858,-0.8893857333143497,0.22056303817337602,-0.47465693309398366,3.112378159101777,-0.8370165862097034
1773065889234057472,0.9273843765258789,0.4543505311012268,-1.0940024852752686,-0.7712207436561584,0.03249093145132065,0.4613202214241028,0.8866386413574219,0.07975271344184875,0.12615838646888733,0.028385162353515625,0.07930755560723397,-0.3870781527988123,-0.8907804512359184,0.22447943883974508,-0.47948266009853635,3.1049639751373643,-0.8287981382644517
1773065889244094720,0.9374215602874756,0.38791903853416443,-1.0311827659606934,-0.8805272579193115,0.038125332444906235,0.4653598368167877,0.8842999339103699,0.05248134955763817,0.11844134330749512,0.06693285703659058,0.07629383221990707,-0.3820265984934205,-0.8923035604030777,0.22809910358156318,-0.4840411005490121,3.0985057598759167,-0.8196843241369278
1773065889254132480,0.9474594593048096,0.4316903054714203,-0.9708642363548279,-1.018052339553833,0.04255223274230957,0.4692601263523102,0.8820338845252991,0.03235316649079323,0.14084720611572266,0.09223955869674683,0.07365478088710034,-0.37647276968220494,-0.8940275150521323,0.23142581291670136,-0.48845274064398086,3.0933867213485597,-0.8091361889274817
1773065889264170496,0.9574973583221436,0.516706109046936,-0.9811270236968994,-1.1327162981033325,0.04605546221137047,0.47399088740348816,0.8793244957923889,0.03911909461021423,0.15581560134887695,0.056680142879486084,0.07144572810865804,-0.37031925132422844,-0.8958381073842517,0.23501758946005116,-0.4938176428464783,3.0892645108176393,-0.7971626070236155
1773065889274208512,0.9675354957580566,0.45904791355133057,-0.9895638823509216,-1.22301185131073,0.04910646006464958,0.47897598147392273,0.8764535188674927,0.06771482527256012,0.16737112402915955,0.059459686279296875,0.06933145222174124,-0.36365759490745453,-0.8977638420880297,0.23867644023897935,-0.4994877958934871,3.085622577932081,-0.7840193485388832
1773065889284245504,0.9775724411010742,0.23031486570835114,-0.8933995366096497,-1.3020899295806885,0.051355522125959396,0.48268595337867737,0.8742862939834595,0.0916651114821434,0.16001421213150024,0.1858484148979187,0.06720098718415832,-0.35669436148528727,-0.8999512711478475,0.24153837089769917,-0.503719010386102,3.082920136391472,-0.7698109985997281
1773065889294283520,0.9876105785369873,-0.009069547057151794,-0.784918487071991,-1.3825737237930298,0.052205804735422134,0.4843309223651886,0.8733258247375488,0.06461547315120697,0.1462079882621765,0.2701525092124939,0.06523085528116529,-0.34958107608522315,-0.9024721449410178,0.24306788190885645,-0.5055982543747873,3.0818855523316167,-0.7545522171527907
1773065889304321536,0.9976484775543213,-0.15390901267528534,-0.6910430788993835,-1.5079036951065063,0.05164535343647003,0.4842815697193146,0.8733866810798645,0.013036645948886871,0.13810917735099792,0.2858235836029053,0.06349471037852841,-0.34216868855080834,-0.9053253144984341,0.24346484302615834,-0.5055418410365381,3.082529139667993,-0.7379708462901594
1773065889314359552,1.0076863765716553,-0.26693785190582275,-0.6102774143218994,-1.6994531154632568,0.049601998180150986,0.483293741941452,0.8740519285202026,-0.028453312814235687,0.14353731274604797,0.23869526386260986,0.062124164606264784,-0.3341393314667004,-0.9085025380306506,0.24313498370361036,-0.5044131412197694,3.0849039675790153,-0.719483533772934
1773065889324396544,1.017723560333252,-0.28056445717811584,-0.5693150758743286,-1.8057433366775513,0.04619591310620308,0.4815867841243744,0.8751803636550903,-0.04830162972211838,0.15687158703804016,0.18901360034942627,0.06111966071481385,-0.32546371132630647,-0.9119559008673085,0.24222790085574772,-0.5024643945927506,3.0888571473769506,-0.6991289830913182
1773065889334434560,1.027761459350586,-0.09381022304296494,-0.5595536828041077,-1.7979353666305542,0.04248274862766266,0.48068901896476746,0.8758615851402283,-0.010576631873846054,0.13669690489768982,0.1337515115737915,0.060390749733726413,-0.316561995412274,-0.9152700722352424,0.24170690763411282,-0.5014403080337598,3.0931266841601808,-0.6783917023482541
1773065889344472320,1.03779935836792,-0.02205880545079708,-0.5510358214378357,-1.8288676738739014,0.03866991400718689,0.48107802867889404,0.8758247494697571,0.014171276241540909,0.10997122526168823,0.08315980434417725,0.059953733208941866,-0.3075880332397735,-0.9183147407966852,0.24185386238143716,-0.5018839809852332,3.097468739547042,-0.657719535984028
1773065889354510592,1.047837495803833,-0.10709722340106964,-0.5529829859733582,-1.933746576309204,0.0344521701335907,0.4812055826187134,0.8759307861328125,-0.006360739469528198,0.13816404342651367,0.1022951602935791,0.05959266420787401,-0.2982845629500832,-0.9214074658527905,0.24183353493188348,-0.5020294873497834,3.1022808498054757,-0.636242105321808
1773065889364547584,1.0578744411468506,-0.09960761666297913,-0.5676332712173462,-2.0938992500305176,0.029648665338754654,0.48084259033203125,0.8763057589530945,-0.03210534155368805,0.17592626810073853,0.10936641693115234,0.059273016933261174,-0.28830604271005383,-0.9246796718641173,0.2415242013015256,-0.5016154193803607,3.1077718545404345,-0.6131419505596462
1773065889374585600,1.0679125785827637,0.06383342295885086,-0.5878821015357971,-2.1889102458953857,0.024390699341893196,0.4812707304954529,0.8762327432632446,-0.058951858431100845,0.1619483232498169,0.06296110153198242,0.059152121231838446,-0.27763123899803005,-0.9279209415353417,0.24162929834504304,-0.5021037897165689,3.113763972187486,-0.5885775148241028
1773065889384623616,1.0779504776000977,0.14798346161842346,-0.5860152244567871,-2.179888963699341,0.018977390602231026,0.48271292448043823,0.875572919845581,-0.052394136786460876,0.10665777325630188,0.02762526273727417,0.059210518367591676,-0.2666610876436219,-0.9309555906082165,0.242296537841915,-0.5037497954874438,3.1199217913534834,-0.5635142610772927
1773065889394661376,1.0879883766174316,0.17247051000595093,-0.5372106432914734,-2.0540356636047363,0.013657891191542149,0.4844849705696106,0.8746932744979858,-0.03445563465356827,0.039334118366241455,0.054445087909698486,0.059353675970522414,-0.2559882502177839,-0.9337112205976044,0.24316795371988514,-0.5057743437205033,3.125979429664102,-0.5392090747010725
1773065889404699648,1.0980265140533447,0.2823794484138489,-0.47627168893814087,-1.8939908742904663,0.00850148405879736,0.4866252541542053,0.8735694885253906,-0.03125234320759773,-0.03627735376358032,0.11156845092773438,0.0596603602232612,-0.24605357183183982,-0.9360781925720552,0.2442456079842358,-0.5082226039963937,3.1318610684904358,-0.5166098830125961
1773065889414736384,1.1080634593963623,0.4256051182746887,-0.43268877267837524,-1.8517686128616333,0.003322782926261425,0.48991042375564575,0.8717663288116455,-0.055416278541088104,-0.10305440425872803,0.18739187717437744,0.0602667079971492,-0.23661887305817222,-0.9380270094250541,0.24593638955344838,-0.511987008816506,3.137781119740891,-0.4951910871955112
1773065889424774400,1.1181013584136963,0.430370569229126,-0.38102105259895325,-1.9458810091018677,-0.0024337114300578833,0.49373143911361694,0.8696108460426331,-0.09452062845230103,-0.14364910125732422,0.23909258842468262,0.061183819638347126,-0.22705197399421553,-0.9398153213494053,0.2478931777294752,-0.5163754501697514,-3.13879403956434,-0.47336058140319
1773065889434812672,1.1281394958496094,0.28838592767715454,-0.30318379402160645,-2.0330188274383545,-0.00935305841267109,0.49688291549682617,0.8677669167518616,-0.10710201412439346,-0.14474067091941833,0.2507326006889343,0.062472614940664306,-0.2171070011919281,-0.9416729851742504,0.24942652483657224,-0.5200032112456723,-3.130814764323833,-0.4503227892658923
1773065889444850432,1.1381773948669434,0.017142439261078835,-0.2669363021850586,-2.0056824684143066,-0.01699203811585903,0.49795839190483093,0.8670343160629272,-0.07990126311779022,-0.1267884075641632,0.2064366340637207,0.0638292370222296,-0.20711677648253443,-0.943726543251162,0.24981716389945735,-0.5212429259038872,-3.121997276321756,-0.4268575731412885
1773065889454887680,1.14821457862854,-0.22829820215702057,-0.1721498817205429,-1.9082210063934326,-0.02483743615448475,0.4966048300266266,0.8676213026046753,-0.016468102112412453,-0.1280745565891266,0.1386348009109497,0.06511941120440766,-0.19758994120292533,-0.9459222319806023,0.24889516330884628,-0.5196827740397468,-3.112973422472838,-0.4042411192839603
1773065889464925440,1.158252477645874,-0.3832949995994568,-0.06976331770420074,-1.7052370309829712,-0.032862696796655655,0.4933328926563263,0.8692195415496826,0.015452422201633453,-0.16479593515396118,0.08733862638473511,0.0665321314931461,-0.18893057188161919,-0.9481112928633834,0.24690824628356406,-0.5159172302042713,-3.1038035207953136,-0.38341668378736865
1773065889474963456,1.168290376663208,-0.4246819317340851,0.0017092667985707521,-1.4506232738494873,-0.04024809971451759,0.4892113208770752,0.8712362051010132,0.022349536418914795,-0.2040398120880127,0.039972901344299316,0.0678929111318594,-0.18152574504755808,-0.9500876280436558,0.24448413944861366,-0.5111852622349721,-3.0954289334513407,-0.3655087775924939
1773065889485001472,1.178328514099121,-0.5096141695976257,0.0910777673125267,-1.312092900276184,-0.04737928509712219,0.4845817983150482,0.8734620213508606,-0.023421503603458405,-0.21175464987754822,0.06274104118347168,0.06938822140881748,-0.1751980102303013,-0.9518595763275726,0.2417732937977874,-0.505885030276405,-3.087402660053325,-0.3500327356844802
1773065889495038464,1.1883654594421387,-0.6319937705993652,0.1691809445619583,-1.306745171546936,-0.05476111173629761,0.4788832664489746,0.8761686682701111,-0.1111019104719162,-0.16200417280197144,0.11868894100189209,0.07105634887664677,-0.1693353484166427,-0.9536298468218369,0.23846704189635012,-0.49938220435217606,-3.0791731980468358,-0.33555233600499773
1773065889505076480,1.1984033584594727,-0.6151202917098999,0.2790240943431854,-1.3755066394805908,-0.06312675774097443,0.4724899232387543,0.8790722489356995,-0.15812566876411438,-0.06819307804107666,0.1636064648628235,0.07318979292769673,-0.1634242252494832,-0.9554206611002525,0.23474892779124315,-0.49211381294737494,-3.069905050035279,-0.3208086942267495
1773065889515114496,1.2084414958953857,-0.3901234567165375,0.3539161682128906,-1.4189457893371582,-0.0725136399269104,0.4669792652130127,0.8812900185585022,-0.1613578051328659,0.010513991117477417,0.1365169882774353,0.07592754377720329,-0.15727438041639236,-0.9570317515215448,0.2314951121410911,-0.48587159450363815,-3.0594963441019796,-0.3054027917673395
1773065889525152512,1.2184793949127197,-0.06595977395772934,0.4344286024570465,-1.3791154623031616,-0.08254142105579376,0.4639051556587219,0.8820310235023499,-0.10627081990242004,0.04033675789833069,0.1018708348274231,0.07926031648576717,-0.15105900918725135,-0.9582258055504648,0.2295696852276664,-0.4823983423095825,-3.048283316853081,-0.2897467417628234
1773065889535190528,1.2285175323486328,0.13692831993103027,0.509703516960144,-1.2706750631332397,-0.0928945317864418,0.46314021944999695,0.8814033269882202,-0.0387430414557457,0.029886513948440552,0.07878649234771729,0.08309309803135617,-0.1452018683931465,-0.9589671991162174,0.2288971210151065,-0.48153504517186163,-3.0365864119260753,-0.27474224450448104
1773065889545227520,1.2385544776916504,0.14816232025623322,0.5744529962539673,-1.173279047012329,-0.1033424362540245,0.46330955624580383,0.8801504969596863,0.006891600787639618,0.008278638124465942,0.09538984298706055,0.08720819007131406,-0.13989514959452415,-0.9594293083818244,0.22873470751351524,-0.48172614655485657,-3.0247132950409163,-0.2608408627548197
1773065889555265536,1.2485923767089844,0.018825599923729897,0.6353686451911926,-1.1517133712768555,-0.11409071832895279,0.46282902359962463,0.8790749907493591,0.0036170706152915955,-0.01637205481529236,0.11993324756622314,0.09152304883474678,-0.13497034756554568,-0.9598544227417661,0.22822378904978355,-0.48118396435304106,-3.012529118806409,-0.2476926459148457
1773065889565303552,1.2586305141448975,-0.09310173988342285,0.6731671690940857,-1.162415623664856,-0.12522675096988678,0.4610569179058075,0.8784903883934021,-0.021074563264846802,-0.035443395376205444,0.11986196041107178,0.09596897922153652,-0.13016466298863705,-0.9603657365283303,0.22703505678771274,-0.4791858985398706,-2.99999889609797,-0.2347876053372886
1773065889575341568,1.2686684131622314,-0.047658927738666534,0.7368615865707397,-1.1261645555496216,-0.13673223555088043,0.45872923731803894,0.8779934048652649,-0.03514282405376434,-0.06798198819160461,0.10755676031112671,0.10060485181131096,-0.1254650169921362,-0.9608617173777232,0.22557068237073094,-0.47656456754592635,-2.9871009715708374,-0.2220859422201928
1773065889585378304,1.278705358505249,0.06657789647579193,0.5692201256752014,-1.2907021045684814,-0.14810697734355927,0.4571860134601593,0.8769524693489075,-0.039881348609924316,-0.09205833077430725,0.18393027782440186,0.10516408721144764,-0.12034669563687171,-0.9612454966984806,0.22464276960527294,-0.4748285847078869,-2.9742832025165504,-0.20852698249683105
1773065889595416576,1.288743495941162,0.38855695724487305,0.35871466994285583,-0.8390229344367981,-0.15737074613571167,0.4573928415775299,0.8752294182777405,-0.07842333614826202,-0.14037618041038513,-0.2589726448059082,0.10880837121227267,-0.11531030224254413,-0.9614147161711122,0.22482461931194578,-0.47506117349848764,-2.9636884706092985,-0.19555789989139544
1773065889605454336,1.298781394958496,1.0791798830032349,0.37770912051200867,0.21800221502780914,-0.16191470623016357,0.4631427526473999,0.8713679909706116,0.03761664032936096,-0.3629230558872223,-0.3142392039299011,0.11129121354806955,-0.11386190761887226,-0.960582877257556,0.22788199376362886,-0.4815379043221718,-2.957871345336487,-0.19073828786145758
1773065889615492608,1.3088195323944092,1.4776172637939453,0.3670754134654999,0.6652865409851074,-0.1628432720899582,0.4756697118282318,0.8644190430641174,0.10586696863174438,-0.6824263334274292,-0.2017451524734497,0.11330014096830485,-0.1159414994600097,-0.9585233927982313,0.2344216792066275,-0.49572522666222557,-2.955390248217247,-0.19349790624971105
1773065889625529600,1.3188564777374268,0.6967417001724243,0.2743678390979767,0.4257277250289917,-0.16288648545742035,0.4865378737449646,0.8583410382270813,-0.021302402019500732,-0.75347501039505,-0.10954636335372925,0.11485551634924152,-0.11842487935208403,-0.9566326714683219,0.24007876443230297,-0.5081225815852606,-2.954053712315048,-0.197501493254847
1773065889635567360,1.3288943767547607,-0.38082554936408997,0.29412516951560974,-0.059222329407930374,-0.1643339991569519,0.48806607723236084,0.8571968078613281,-0.12111219763755798,-0.5536788105964661,0.15311837196350098,0.11603063475902711,-0.1195677797298674,-0.9561913718369573,0.2407044383447835,-0.5098726111166236,-2.9521799092043817,-0.19930009889273165
1773065889645605632,1.3389325141906738,-1.0067988634109497,0.30176231265068054,-0.40784236788749695,-0.16816700994968414,0.4813289940357208,0.8602570295333862,-0.16470344364643097,-0.3524227738380432,0.196169912815094,0.11734943988438892,-0.11916447296944498,-0.957041456873744,0.23685559117383723,-0.5021702805572208,-2.9485425589436423,-0.1980905342296667
1773065889655643392,1.3489704132080078,-1.0927479267120361,0.21703875064849854,-0.5042414665222168,-0.17262378334999084,0.47115907073020935,0.8649917244911194,-0.14272965490818024,-0.1872844398021698,0.06402462720870972,0.11848532465585195,-0.11784669537753949,-0.9584404056828937,0.2312260927364543,-0.4906043818804478,-2.9446134935524744,-0.19522284765249776
1773065889665681664,1.359008550643921,-0.7472410798072815,0.0832013338804245,-0.40704861283302307,-0.17616349458694458,0.4621920585632324,0.869106113910675,-0.06234671175479889,-0.03779923915863037,-0.119456946849823,0.11922065189720789,-0.11634245410514822,-0.9596965675051695,0.22634821051809692,-0.4804655295475592,-2.9416070737546653,-0.19213621411616053
1773065889675718656,1.3690454959869385,-0.4227987229824066,-0.0621032677590847,-0.1949753761291504,-0.17765574157238007,0.4566683769226074,0.871718168258667,0.023633509874343872,0.08373689651489258,-0.300276517868042,0.11928348773917395,-0.11523667097732422,-0.9605100756250907,0.2234108304503509,-0.4742466528882409,-2.940546399504828,-0.1900659991679377
1773065889685756416,1.3790833950042725,-0.42502325773239136,-0.13703663647174835,-0.021454710513353348,-0.17719392478466034,0.45297250151634216,0.8737384676933289,0.09356044232845306,0.1874389946460724,-0.28719037771224976,0.11866001055316537,-0.11488713995587943,-0.9610776109289461,0.22147403416409064,-0.4700966908456332,-2.9415065021689752,-0.189883902944594
1773065889695794688,1.3891215324401855,-0.5726366639137268,-0.17955227196216583,-0.07074037194252014,-0.17594417929649353,0.44847846031188965,0.8763049840927124,0.11098755896091461,0.2337419092655182,-0.12636619806289673,0.11764187212172911,-0.11487353783408993,-0.9617466158554533,0.21910687642419632,-0.46506228239017505,-2.9434475687032298,-0.19068969360173432
1773065889705832448,1.3991594314575195,-0.5131176710128784,-0.23078136146068573,-0.2319905012845993,-0.1748201698064804,0.44329720735549927,0.8791617751121521,0.0656893402338028,0.18893539905548096,-0.053371429443359375,0.11649573950631531,-0.11423148970658659,-0.9625653491176519,0.21644361131673157,-0.45927371932163213,-2.9453043607994345,-0.19021891797166782
1773065889715869440,1.409196376800537,-0.3186451196670532,-0.2585166096687317,-0.2733619213104248,-0.17380186915397644,0.4391508996486664,0.8814416527748108,0.02907225489616394,0.10107123851776123,-0.08198791742324829,0.11535058752797935,-0.11294643031861033,-0.963308843572433,0.21441411074427055,-0.4546533356456051,-2.9469109692945565,-0.18826115566615753
1773065889725907456,1.4192345142364502,-0.1377248615026474,-0.2421429455280304,-0.2107832282781601,-0.17265227437019348,0.43676185607910156,0.8828533887863159,0.03715425729751587,0.040243059396743774,-0.0706738829612732,0.11427215277371208,-0.11161750106037442,-0.9638299736619886,0.21334277616733513,-0.45199590001510603,-2.9484683409851224,-0.18604984536148025
1773065889735945472,1.4292724132537842,-0.07260458171367645,-0.2367328703403473,-0.17078720033168793,-0.17134059965610504,0.4355718493461609,0.8836967945098877,0.049361810088157654,0.010091662406921387,-0.058760643005371094,0.11325728091748519,-0.1105215287038489,-0.9641749781724148,0.2128955373623317,-0.45067344366318934,-2.950078259996412,-0.1842315597381378
1773065889745983488,1.4393105506896973,-0.09668967872858047,-0.2193181812763214,-0.2089308649301529,-0.17013326287269592,0.43452855944633484,0.8844432830810547,0.052777886390686035,4.1812658309936523e-05,-0.019208788871765137,0.11231008601003843,-0.10942803966951015,-0.9644932053110518,0.21252032306094865,-0.44951477142672125,-2.951552009279745,-0.1823754223098524
1773065889756020480,1.4493474960327148,-0.20449864864349365,-0.21892470121383667,-0.2679458260536194,-0.16923344135284424,0.43280932307243347,0.8854580521583557,0.06524480879306793,-0.01664113998413086,-0.006078898906707764,0.11142534042967067,-0.10811636852553105,-0.9649040832921123,0.21179075555442708,-0.44760679496671696,-2.952744843494187,-0.18006040685027666
1773065889766058496,1.4593853950500488,-0.3407193422317505,-0.18846692144870758,-0.29728934168815613,-0.1686112880706787,0.42990538477897644,0.8869903087615967,0.10070966184139252,-0.043110281229019165,0.02112138271331787,0.11057103430419644,-0.1066716640581338,-0.9654617064797947,0.21042563326349703,-0.4443879694437812,-2.9537402452762413,-0.1775235567121205
1773065889776096512,1.469423532485962,-0.4810352325439453,-0.11174299567937851,-0.27934032678604126,-0.1685210019350052,0.4256991446018219,0.8890336751937866,0.1329527646303177,-0.0618380606174469,0.04192030429840088,0.10992587827938943,-0.10533066161457068,-0.9661378155892951,0.20832535214528486,-0.4397343826261561,-2.95425999061768,-0.1752052201538804
1773065889786134528,1.479461431503296,-0.49893617630004883,-0.058816131204366684,-0.18209286034107208,-0.16876229643821716,0.4208557605743408,0.8912908434867859,0.14428722858428955,-0.059863388538360596,0.047902703285217285,0.1094981345116161,-0.10438077397769255,-0.966824740391964,0.2058267317881905,-0.43438847964088323,-2.954462053670105,-0.17368168953604432
1773065889796171520,1.4894983768463135,-0.4606418311595917,0.013214255683124065,-0.08198636770248413,-0.16910135746002197,0.41630688309669495,0.8933609127998352,0.1366916447877884,-0.04568606615066528,0.04406297206878662,0.10926618644898568,-0.10398896998016777,-0.9674020685526586,0.20342210256834184,-0.42937969030178563,-2.9545192265602833,-0.17325862875824216
1773065889806209536,1.4995365142822266,-0.3990572988986969,0.08924084901809692,-0.082426056265831,-0.16989274322986603,0.41230309009552,0.8950654864311218,0.09175252914428711,-0.02070164680480957,0.07917749881744385,0.10937653387599149,-0.10391615169260297,-0.9678502809849846,0.20125587938259837,-0.4249805871334562,-2.954013695509116,-0.17333333686881575
1773065889816247552,1.5095744132995605,-0.32530638575553894,0.11542211472988129,-0.17441217601299286,-0.1713460236787796,0.4088321924209595,0.8963800072669983,0.022816911339759827,-0.00659516453742981,0.09519731998443604,0.10981891059408486,-0.10360539880040374,-0.9682230817567622,0.19937374053191198,-0.42117404469397707,-2.952717809586466,-0.1727120885330302
1773065889826285568,1.5196125507354736,-0.2515333592891693,0.13364240527153015,-0.24731168150901794,-0.17334125936031342,0.4058913588523865,0.8973320722579956,-0.024000629782676697,-0.005134552717208862,0.06413942575454712,0.11048787254097656,-0.10284144074436824,-0.9685503015057039,0.1978038163567586,-0.41795392889027894,-2.9507690500720893,-0.17098261580152452
1773065889836322560,1.5296494960784912,-0.19995667040348053,0.17284026741981506,-0.2326846718788147,-0.1757110208272934,0.4034261107444763,0.897982656955719,-0.02720034122467041,-0.007384300231933594,0.04134833812713623,0.11135595225463756,-0.10192752848663225,-0.9688147875699821,0.19649041777131915,-0.4152581111698442,-2.9483610402305933,-0.16881709532169525
1773065889846360320,1.5396873950958252,-0.15801109373569489,0.1992465704679489,-0.1817636936903,-0.17821617424488068,0.40147605538368225,0.898362934589386,0.00373193621635437,-0.005052745342254639,0.041258037090301514,0.11237207239186765,-0.10121061039317965,-0.9689880731381306,0.19542529969062422,-0.4131279280322355,-2.945756419789961,-0.166980949332453
1773065889856398592,1.5497255325317383,-0.14255347847938538,0.23282504081726074,-0.1846311092376709,-0.1808743178844452,0.39983150362968445,0.8985647559165955,0.03400854766368866,0.014063030481338501,0.059168100357055664,0.1135207838626433,-0.10064602187849403,-0.9690989418277403,0.1945006136090059,-0.41133301388005084,-2.9429546471045986,-0.16539858186628825
1773065889866436608,1.5597634315490723,-0.1430799812078476,0.24795499444007874,-0.22340461611747742,-0.18385560810565948,0.39816612005233765,0.8986998200416565,0.02626281976699829,0.05143412947654724,0.07418549060821533,0.1148192208354095,-0.09999378770576348,-0.969201294065583,0.19356335938699482,-0.40951680621668046,-2.939797578157495,-0.16357206722286752
1773065889876474624,1.5698015689849854,-0.09789133816957474,0.24329513311386108,-0.2717759907245636,-0.18703927099704742,0.3965871334075928,0.8987410068511963,-0.0026275068521499634,0.07852587103843689,0.06273078918457031,0.11618198453015316,-0.09909959824522288,-0.9693037640279687,0.1926949903348803,-0.40779611729898335,-2.9364088847170255,-0.161198656625192
1773065889886511616,1.579838514328003,0.002571085700765252,0.225072979927063,-0.3225821852684021,-0.19033828377723694,0.39558839797973633,0.8984884023666382,-0.03501880168914795,0.06582218408584595,0.04195666313171387,0.11758709482980886,-0.09790854358100262,-0.9693596376603121,0.19216956530883667,-0.4067084257470453,-2.9328361622781247,-0.15812707787276062
1773065889896549376,1.589876413345337,0.0784698873758316,0.17988407611846924,-0.33636873960494995,-0.1935061514377594,0.39534127712249756,0.8979201912879944,-0.06075103580951691,0.024290651082992554,0.016478002071380615,0.11892478879509148,-0.09645557437105522,-0.9693587707275967,0.1920854136962032,-0.40643936830240474,-2.9293340029941324,-0.15445927776934673
1773065889906587648,1.59991455078125,0.047553785145282745,0.13447211682796478,-0.3222561180591583,-0.196213036775589,0.39531296491622925,0.8973450660705566,-0.06727571785449982,-0.010410070419311523,0.01258230209350586,0.12003034166213201,-0.09495829804387582,-0.9693582634863321,0.19214630724144402,-0.4064085550148577,-2.926321305564121,-0.15077581196754794
1773065889916625408,1.609952449798584,-0.08187122642993927,0.08656343072652817,-0.3226068317890167,-0.19846540689468384,0.39457428455352783,0.8971749544143677,-0.06317709386348724,-0.028363287448883057,0.027034759521484375,0.12086462682420337,-0.09351368250778042,-0.9694548342047928,0.19184457364306104,-0.4056045060968225,-2.9238870853826833,-0.1473884380965773
1773065889926662400,1.6199893951416016,-0.26210013031959534,0.04945628345012665,-0.35059770941734314,-0.20039568841457367,0.39236167073249817,0.8977158665657043,-0.06117045879364014,-0.03584003448486328,0.03984510898590088,0.12143476900518502,-0.09205323261997815,-0.9697340599411591,0.19077639272015923,-0.40319773773710615,-2.9219650689694663,-0.14422523956675476
1773065889936700672,1.6300275325775146,-0.4133164584636688,0.021142352372407913,-0.38859647512435913,-0.2021246701478958,0.38853609561920166,0.898991584777832,-0.05983826518058777,-0.027543574571609497,0.03556370735168457,0.12178300198821038,-0.09049785461729165,-0.970209225498512,0.18887363483688777,-0.3990423249801647,-2.9204353838254553,-0.14111888103874035
1773065889946738432,1.6400654315948486,-0.4856202006340027,0.014617874287068844,-0.4334520995616913,-0.2038765698671341,0.3835669457912445,0.9007282257080078,-0.05756758153438568,0.004662513732910156,0.02366471290588379,0.12204940049459603,-0.08878874512663255,-0.9708144326941776,0.18638665474970853,-0.39365556790986,-2.918997082337619,-0.13784405421370044
1773065889956776704,1.6501035690307617,-0.41450026631355286,-0.006945607252418995,-0.4766836166381836,-0.20565249025821686,0.37846463918685913,0.9024807214736938,-0.05779048800468445,0.04464629292488098,-0.010604560375213623,0.1222889079447344,-0.0868594431550069,-0.9714400645618865,0.1838614372288962,-0.38813697302539624,-2.917543761809157,-0.1341388859444721
1773065889966813440,1.6601405143737793,-0.26035329699516296,-0.04377312958240509,-0.48892563581466675,-0.20725397765636444,0.3743840456008911,0.903815746307373,-0.05223701894283295,0.06915852427482605,-0.055854082107543945,0.12246399660481329,-0.08468046164309051,-0.9719758758815029,0.18191986538416485,-0.3837324333078413,-2.916179707003629,-0.12983808629119595
1773065889976851456,1.6701784133911133,-0.13200697302818298,-0.07410173863172531,-0.47854170203208923,-0.20850108563899994,0.37159329652786255,0.904680073261261,-0.03948479890823364,0.07638958096504211,-0.08825838565826416,0.12251788677735904,-0.08237983805711596,-0.9723957980182837,0.18069148554142328,-0.38072460810636993,-2.91507847687319,-0.12520437896697834
1773065889986889728,1.6802165508270264,-0.07622279226779938,-0.0932309627532959,-0.4705221354961395,-0.20949462056159973,0.36970850825309753,0.9052225947380066,-0.02756597101688385,0.07102638483047485,-0.08548986911773682,0.122494218585351,-0.08005546495254431,-0.9727293608023465,0.17995541836098344,-0.37869527426413024,-2.914167631250466,-0.12046319719104882
1773065889996927488,1.6902544498443604,-0.08288287371397018,-0.10860925167798996,-0.48910367488861084,-0.2103455811738968,0.36802470684051514,0.90571129322052,-0.021557509899139404,0.05493369698524475,-0.07174205780029297,0.1224035986055718,-0.07768430062793774,-0.9730471731578392,0.1793371612495016,-0.3768837387883727,-2.913394505552737,-0.1156329751211648
1773065890006964480,1.700291395187378,-0.18178388476371765,-0.11333103477954865,-0.5251460671424866,-0.21117620170116425,0.365790992975235,0.9064224362373352,-0.012990698218345642,0.0348590612411499,-0.05524134635925293,0.12225449346633838,-0.07519152452876958,-0.9734256333253145,0.1784450656403244,-0.3744825678950347,-2.912698035532337,-0.11063235668347718
1773065890017002496,1.710329532623291,-0.27277886867523193,-0.10806623101234436,-0.5590034127235413,-0.21218286454677582,0.36252087354660034,0.9075005054473877,-0.006612926721572876,0.029019653797149658,-0.034957170486450195,0.12212629584782221,-0.07257763879097046,-0.9739007893002579,0.17701679296294776,-0.3709713368580274,-2.911908532423441,-0.10548801198462196
1773065890027040512,1.720367431640625,-0.29329586029052734,-0.11190757155418396,-0.5575360059738159,-0.2132103592157364,0.3587186634540558,0.908769965171814,-0.0015876591205596924,0.023239433765411377,-0.03785908222198486,0.12198245815823668,-0.06991477673373021,-0.9744213161018447,0.17531528302469973,-0.3668948213633424,-2.911146311678442,-0.10031551660394175
1773065890037078528,1.730405569076538,-0.30092912912368774,-0.11440788209438324,-0.5380995869636536,-0.21411356329917908,0.3548360764980316,0.9100807309150696,0.004274696111679077,0.023169904947280884,-0.046128034591674805,0.1217937748078842,-0.06732136808755038,-0.9749401060735549,0.17356831139092893,-0.36273871426409293,-2.9105260258160475,-0.09532754927565727
1773065890047116544,1.740443468093872,-0.2996407151222229,-0.09854582697153091,-0.5388948321342468,-0.215030238032341,0.3509269654750824,0.9113795757293701,0.006213665008544922,0.039026737213134766,-0.050722599029541016,0.12163337980516972,-0.06479275237762713,-0.9754443579528701,0.17180120486971867,-0.3585608306248546,-2.909890759278801,-0.09047973547656644
1773065890057153536,1.7504804134368896,-0.24657300114631653,-0.09241723269224167,-0.5625677704811096,-0.21608977019786835,0.34721383452415466,0.9125503301620483,0.0038399845361709595,0.055709779262542725,-0.06063675880432129,0.12155387760664663,-0.06218913143491817,-0.9759137656588127,0.17014575073657875,-0.35459844519187017,-2.909077808538994,-0.08543113937568686
1773065890067192576,1.7605195045471191,-0.1465097963809967,-0.08302319794893265,-0.582942545413971,-0.2172880619764328,0.344145268201828,0.9134278297424316,0.009615883231163025,0.05262911319732666,-0.06311631202697754,0.1215564375969455,-0.059418893317512586,-0.9763110729983421,0.16884974997862182,-0.3513282848630202,-2.9080512580274926,-0.07993576334416705
1773065890077230336,1.7705574035644531,-0.10526301711797714,-0.065802663564682,-0.5819212198257446,-0.21860522031784058,0.34175175428390503,0.9140118360519409,0.016838252544403076,0.04534846544265747,-0.06257140636444092,0.12164474322537767,-0.05657062069272658,-0.9766297562935929,0.16791865714664206,-0.3487802488039335,-2.9068315641762372,-0.07417416864404221
1773065890087268608,1.7805955410003662,-0.07640393823385239,-0.03452623635530472,-0.572095513343811,-0.22007156908512115,0.3396534323692322,0.9144417643547058,0.018579289317131042,0.038566142320632935,-0.03492534160614014,0.12183618630885847,-0.053762827523441276,-0.976898376424616,0.1671376024413453,-0.3465483874480163,-2.9054216328799845,-0.06843336671986194
1773065890097305600,1.7906324863433838,-0.027894366532564163,0.00377907557412982,-0.5569974780082703,-0.22186289727687836,0.33793431520462036,0.914646327495575,0.015670806169509888,0.01425391435623169,-0.01955026388168335,0.12222526283658687,-0.051004649706430844,-0.9770986108101157,0.16654726377140497,-0.34472122262287025,-2.9036220201238065,-0.06268711338266794
1773065890107343616,1.8006706237792969,-0.029157236218452454,0.04237600415945053,-0.5137520432472229,-0.2238914966583252,0.33651870489120483,0.9146735072135925,0.021575212478637695,-0.016313016414642334,-0.0029914379119873047,0.1227807742914303,-0.048407096381029836,-0.9772376911157749,0.16609663325977703,-0.3432175302255971,-2.901535296736085,-0.05718828621826422
1773065890117381632,1.8107085227966309,-0.07105422019958496,0.10027752071619034,-0.4581381678581238,-0.22617143392562866,0.33495375514030457,0.9146867394447327,0.034063369035720825,-0.02665001153945923,0.05212503671646118,0.12351595651790451,-0.04611154746771796,-0.9773520858605325,0.16553028349622234,-0.3415561542933273,-2.8991882955459176,-0.052285936009366374
1773065890127419392,1.8207464218139648,-0.0912066251039505,0.1655619889497757,-0.4273624122142792,-0.22886262834072113,0.33318087458610535,0.9146649837493896,0.031047746539115906,-0.021276026964187622,0.08240514993667603,0.12451106107875971,-0.0441134776265756,-0.9774387410149149,0.1648162818572554,-0.3396752021728826,-2.8964119232967622,-0.04795062553120806
1773065890137456640,1.8307836055755615,-0.08178889006376266,0.22075572609901428,-0.4287448525428772,-0.23205313086509705,0.33136695623397827,0.9145203232765198,0.015637710690498352,-0.01581519842147827,0.0867462158203125,0.1257869080157325,-0.042228523851244995,-0.977484988121629,0.16406562735556907,-0.33775202936444265,-2.8930942757004217,-0.04376680117075722
1773065890147494656,1.8408215045928955,-0.03938737511634827,0.2605910301208496,-0.44048964977264404,-0.23569735884666443,0.3297806680202484,0.9141618013381958,0.002527773380279541,-0.016609251499176025,0.09152984619140625,0.1273079639435097,-0.040330196555732875,-0.9774734590402583,0.16343766498737752,-0.3360712386686314,-2.889259253467591,-0.03944591722158094
1773065890157532416,1.8508594036102295,0.010404108092188835,0.29367268085479736,-0.42302292585372925,-0.23967717587947845,0.3285976052284241,0.9135527014732361,-0.0025561153888702393,-0.030089914798736572,0.09537374973297119,0.1290201554819278,-0.03842926707137215,-0.9773942608457064,0.16302598135231838,-0.3348183550740107,-2.8850178682895593,-0.03500435786080301
1773065890167570688,1.8608975410461426,0.06958114355802536,0.3271033465862274,-0.3834930956363678,-0.2438332438468933,0.32796409726142883,0.9126800894737244,0.00019615888595581055,-0.04532554745674133,0.10164785385131836,0.13086941869250182,-0.036675087549835055,-0.9772384498277046,0.16289003289598242,-0.33414766993999534,-2.880528072779531,-0.030751395903845118
1773065890177607424,1.8709344863891602,0.1555229127407074,0.3349590003490448,-0.3599090576171875,-0.24810096621513367,0.3280792832374573,0.9114877581596375,-0.004706621170043945,-0.05729684233665466,0.10480862855911255,0.13282515766800643,-0.03505491228857045,-0.9769928523800151,0.1631367733539131,-0.3342695858246432,-2.8758375676720265,-0.026636778085205457
1773065890187645696,1.8809726238250732,0.27543920278549194,0.3280813694000244,-0.3278592526912689,-0.25227704644203186,0.3291304409503937,0.9099609851837158,-0.024608850479125977,-0.06199491024017334,0.07558870315551758,0.1347730442047073,-0.03349163055467905,-0.9766569573566461,0.16387684166925684,-0.3353825745371318,-2.8711456696358852,-0.022502858661048075
1773065890197683456,1.8910105228424072,0.42450016736984253,0.31163489818573,-0.234236478805542,-0.25615042448043823,0.33160534501075745,0.907978355884552,-0.04733157157897949,-0.06793352961540222,0.022899210453033447,0.13663658755164562,-0.03210643195847482,-0.9761958638724789,0.1653518173733979,-0.33800469559894586,-2.8666277587938467,-0.018548634671467692
1773065890207721472,1.9010484218597412,0.5307171940803528,0.2725362479686737,-0.06122955307364464,-0.259328693151474,0.33557650446891785,0.9056143760681152,-0.06432551145553589,-0.09355682134628296,-0.013097167015075684,0.13827689127447185,-0.03128028740450983,-0.9756171090923974,0.1675482259001591,-0.3422171649769034,-2.8626992290191615,-0.015604528487545741
1773065890217758720,1.911085605621338,0.5024139285087585,0.2563621699810028,0.04093769192695618,-0.26170814037323,0.34039801359176636,0.9031268358230591,-0.07886800169944763,-0.14163702726364136,-0.008122563362121582,0.13964132488593603,-0.031121672650046922,-0.9749845499600299,0.1701084699494566,-0.3473401460800446,-2.859538129667593,-0.014015364471934922
1773065890227796480,1.9211235046386719,0.3050808906555176,0.21086715161800385,0.02351662516593933,-0.26373738050460815,0.34419459104537964,0.9010949730873108,-0.12173008918762207,-0.1893332302570343,0.010724186897277832,0.1408398590293973,-0.03122769802353562,-0.9744600184696712,0.17209448711074174,-0.35138083978338003,-2.8568598907161076,-0.013191118418899693
1773065890237834496,1.9311614036560059,0.10689185559749603,0.13249550759792328,-0.0575016587972641,-0.26533421874046326,0.34600481390953064,0.8999325633049011,-0.15728849172592163,-0.21337538957595825,0.014618277549743652,0.1417196006696206,-0.031151575814412434,-0.9741641860802673,0.17305873733051072,-0.3533095509780291,-2.8548784467847788,-0.01240861357367503
1773065890247872512,1.941199541091919,-0.07834884524345398,0.0656629428267479,-0.08667925000190735,-0.26650163531303406,0.34591278433799744,0.8996226787567139,-0.16523051261901855,-0.19858920574188232,-0.021906733512878418,0.14227282180482165,-0.03083683313698421,-0.9740946706892506,0.17305212820949017,-0.353211466696016,-2.8535916023706855,-0.011547891127317942
1773065890257910528,1.951237440109253,-0.21927675604820251,0.01919265277683735,-0.05714719370007515,-0.2671224772930145,0.3443387448787689,0.9000424742698669,-0.13317662477493286,-0.13253149390220642,-0.03595256805419922,0.142510722733476,-0.03061878137183549,-0.9742092849361805,0.17224827159768188,-0.3515343612399386,-2.85308456654269,-0.011252089947035677
1773065890267947776,1.9612746238708496,-0.325265496969223,-0.005289254244416952,-0.03615269809961319,-0.2673397958278656,0.3417377173900604,0.9009688496589661,-0.0828951895236969,-0.058229416608810425,-0.03399491310119629,0.1425416455100312,-0.030604276508684882,-0.9744474296908727,0.17087271571113674,-0.3487653236582534,-2.853143318838294,-0.011632114757183887
1773065890277985536,1.9713125228881836,-0.34304508566856384,-0.02505616843700409,-0.07310046255588531,-0.26737913489341736,0.33849048614501953,0.90218186378479,-0.049316972494125366,0.007029503583908081,-0.02342844009399414,0.1424576392073967,-0.030576900689595482,-0.9747594566000339,0.16915899730299624,-0.3453122278815368,-2.8534699625624973,-0.012130615951535726
1773065890288023552,1.9813504219055176,-0.25618183612823486,-0.05369899794459343,-0.1254129409790039,-0.2673734724521637,0.33546921610832214,0.9033114314079285,-0.02571728825569153,0.04589366912841797,-0.04251748323440552,0.14231021636571986,-0.030273585275848208,-0.9750585809593435,0.16760671281756326,-0.3421032566315388,-2.853816438578979,-0.012030149544264767
1773065890298061568,1.9913885593414307,-0.17033877968788147,-0.081379234790802,-0.14487040042877197,-0.26720017194747925,0.3331991732120514,0.9042027592658997,0.0028568804264068604,0.0664743185043335,-0.06289398670196533,0.14205165538179526,-0.029692486424110195,-0.9753049450439567,0.16649327952790247,-0.3396946127906885,-2.854261004505982,-0.011260876387054381
1773065890308098560,2.0014255046844482,-0.1402362585067749,-0.08236513286828995,-0.12975935637950897,-0.26693060994148254,0.331420361995697,0.9049357771873474,0.032876044511795044,0.08535820245742798,-0.06036174297332764,0.1417476707946539,-0.02904501672450802,-0.9755123200170708,0.16564948179449945,-0.33780860747085856,-2.8547551724875775,-0.010288321043299195
1773065890318136576,2.0114634037017822,-0.09427659213542938,-0.07717569172382355,-0.108840212225914,-0.2665833830833435,0.33000627160072327,0.9055546522140503,0.049984872341156006,0.09751448035240173,-0.04595077037811279,0.1414285167482891,-0.02847721181317948,-0.975687637389505,0.16498686065759832,-0.33631020687017427,-2.8552934575352547,-0.009430471885678172
1773065890328174592,2.0215015411376953,-0.047221723943948746,-0.05197953060269356,-0.12506313621997833,-0.2663555443286896,0.32906779646873474,0.9059630632400513,0.05409055948257446,0.09938374161720276,-0.03796684741973877,0.1411878662846898,-0.027917814898672774,-0.9758084407519102,0.1645735351713639,-0.3353162285391345,-2.855647032768487,-0.008486020388710136
1773065890338212608,2.0315394401550293,0.0015285471454262733,-0.029474884271621704,-0.1779285967350006,-0.26649290323257446,0.3284466564655304,0.9061480760574341,0.03924375772476196,0.0978991687297821,-0.020268559455871582,0.1411152413911591,-0.027164939012667907,-0.9758770919922898,0.16435466087169784,-0.33465853840826154,-2.8555627883818278,-0.007023064569450182
1773065890348249600,2.041576623916626,0.07163359969854355,-0.0357237234711647,-0.21917271614074707,-0.2668483853340149,0.3282368779182434,0.9061195850372314,0.029558897018432617,0.07969161868095398,-0.025641560554504395,0.14112057958747867,-0.026127057718073422,-0.9758981371218026,0.16439355973397146,-0.33443642161660814,-2.8551932362349732,-0.00486566305703518
1773065890358287616,2.05161452293396,0.12875334918498993,-0.04263303056359291,-0.2213679552078247,-0.2672312259674072,0.3285972774028778,0.9058763384819031,0.038883358240127563,0.044373393058776855,-0.0461348295211792,0.14113130755476444,-0.024944681522483476,-0.9758667525102913,0.16475421602143886,-0.33481799236463705,-2.8547316329276233,-0.0023096725651567535
1773065890368325376,2.061652421951294,0.02151024341583252,-0.050242748111486435,-0.2077200561761856,-0.26749294996261597,0.3288344144821167,0.9057125449180603,0.05321383476257324,0.011665403842926025,-0.062374651432037354,0.1410815915092198,-0.023802433030749942,-0.9758533219055628,0.165044400898074,-0.3350690959580112,-2.8544167291252474,0.00012080507375342399
1773065890378363648,2.071690559387207,-0.21787379682064056,-0.03723680227994919,-0.2045997679233551,-0.2677597403526306,0.3274243175983429,0.906144380569458,0.06538248062133789,0.002119719982147217,-0.06849813461303711,0.14102123785979342,-0.022835182048198382,-0.9759870690617716,0.16444061532501214,-0.3335763417771165,-2.8542754105143286,0.0019108876479912418
1773065890388400640,2.0817275047302246,-0.38629692792892456,-0.014118697494268417,-0.21753953397274017,-0.26821380853652954,0.32399749755859375,0.9072413444519043,0.06702670454978943,-0.004127532243728638,-0.06185871362686157,0.14103103959017385,-0.021995510168519153,-0.9762872916106756,0.16275608328283667,-0.329951865573125,-2.854143702093094,0.0031281910502231804
1773065890398438400,2.0917654037475586,-0.32262924313545227,-0.04328138008713722,-0.19039739668369293,-0.2686041295528412,0.3200790584087372,0.9085158109664917,0.06494513154029846,-0.02619481086730957,-0.08245086669921875,0.14101022772491356,-0.021223515206898223,-0.9766306684306162,0.16080469656755983,-0.32581293849413495,-2.854129981849567,0.004111453186864778
1773065890408476672,2.1018035411834717,-0.1228141337633133,-0.05696416646242142,-0.13163819909095764,-0.26866790652275085,0.31757646799087524,0.9093750715255737,0.06503933668136597,-0.048151999711990356,-0.10874629020690918,0.14087176663712955,-0.020545386823511497,-0.9768651051872219,0.15958596778636056,-0.3231725362572887,-2.8543224157719482,0.0050854525734633825
1773065890418514432,2.1118414402008057,-0.018354259431362152,-0.06699616461992264,-0.11125078052282333,-0.2684626877307892,0.3167252242565155,0.9097325205802917,0.0590815544128418,-0.048338353633880615,-0.12349271774291992,0.1406478324155894,-0.019954385406338714,-0.9769688169340303,0.15922316903550857,-0.3222749672972375,-2.8546366722087146,0.006113961740183741
1773065890428552704,2.1218795776367188,-0.13725268840789795,-0.07177813351154327,-0.14524416625499725,-0.26821643114089966,0.3157840073108673,0.9101318717002869,0.051755309104919434,-0.015201210975646973,-0.09705221652984619,0.14039676603173376,-0.019337573532467792,-0.9770834100497279,0.15881661121987004,-0.32128283904307525,-2.855004716989098,0.007172921550106803
1773065890438589696,2.1319165229797363,-0.2894086539745331,-0.07557419687509537,-0.21123915910720825,-0.26811888813972473,0.3133182227611542,0.9110127687454224,0.047720909118652344,0.03328520059585571,-0.03999519348144531,0.14016549665626074,-0.018572582380644083,-0.977323607705261,0.15763036973286015,-0.31868519934398776,-2.8553654665802655,0.008304046038565643
1773065890448627456,2.1419544219970703,-0.3922463655471802,-0.07078397274017334,-0.2563328444957733,-0.26819220185279846,0.30953124165534973,0.9122848510742188,0.048465579748153687,0.049386024475097656,-0.0434187650680542,0.13996377113826503,-0.017600692069629224,-0.9776669370482516,0.15578123267502839,-0.31470002239476635,-2.855669228102151,0.009667131150943333
1773065890458665728,2.1519925594329834,-0.3918699622154236,-0.04859664663672447,-0.2206912487745285,-0.2683772146701813,0.3052361011505127,0.9136763215065002,0.05557820200920105,0.05455085635185242,-0.041514575481414795,0.13981621795546065,-0.016641162939421642,-0.9780394894690742,0.15366592221312728,-0.3101863401740762,-2.8558949562207863,0.010940890308942653
1773065890468703488,2.1620304584503174,-0.3046642243862152,-0.006244130432605743,-0.1601397544145584,-0.26870784163475037,0.3014843165874481,0.9148241281509399,0.06465211510658264,0.05084109306335449,-0.025572478771209717,0.13980105384188526,-0.01593974464481367,-0.978344513773754,0.15180108719984273,-0.3062490129819093,-2.855901498017156,0.011804281665519313
1773065890478740480,2.172067403793335,-0.1747591346502304,0.04355218634009361,-0.126079261302948,-0.2693110704421997,0.2988826036453247,0.915500283241272,0.057305485010147095,0.045843929052352905,0.005062460899353027,0.13998606738326733,-0.015443124388396587,-0.9785252412110832,0.1505116765741661,-0.30352150939248246,-2.8554946930705962,0.012487202438609424
1773065890488778496,2.182105541229248,-0.019662758335471153,0.09785990417003632,-0.1474071741104126,-0.2703430950641632,0.2976363003253937,0.915601909160614,0.035022079944610596,0.043992698192596436,0.04202425479888916,0.14041842272122895,-0.014914208116019421,-0.9785594098987676,0.14993870146246555,-0.30221579953261135,-2.8544876391867016,0.013533160879407726
1773065890498816512,2.192143440246582,0.09962200373411179,0.1584894210100174,-0.19755584001541138,-0.27202552556991577,0.2975483238697052,0.9151321649551392,0.0015330016613006592,0.04842942953109741,0.08367753028869629,0.14117509251260346,-0.01413317024457673,-0.9784509853194107,0.15001151729436346,-0.3021236478583402,-2.852658183206251,0.015396488682837807
1773065890508854528,2.202181577682495,0.2237173169851303,0.2225075513124466,-0.23886625468730927,-0.27442875504493713,0.2984367907047272,0.914124608039856,-0.031631916761398315,0.049982309341430664,0.11933761835098267,0.14228486186379521,-0.013076415158840147,-0.978208214800301,0.15064055291339215,-0.30305440119697596,-2.849943795778524,0.018111106194095453
1773065890518891520,2.2122185230255127,0.3132980167865753,0.3043173551559448,-0.2538328170776367,-0.27756670117378235,0.30024799704551697,0.9125831127166748,-0.05202314257621765,0.027785450220108032,0.1346428394317627,0.14377076569132907,-0.011858791980567305,-0.9778297085032351,0.15178415610571314,-0.30495264919015097,-2.8463283317058994,0.021443432826862438
1773065890528929536,2.2222564220428467,0.3451584577560425,0.3414580523967743,-0.2446310669183731,-0.2813378870487213,0.302563339471817,0.9106615781784058,-0.058978915214538574,-0.018154770135879517,0.13908207416534424,0.14559533308301653,-0.0106329833272553,-0.9773524031527253,0.1532032467825563,-0.3073809127853768,-2.841956243217136,0.02500132440907267
1773065890538967552,2.2322945594787598,0.30986472964286804,0.33260422945022583,-0.2053501009941101,-0.2851034700870514,0.3049981892108917,0.9086758494377136,-0.04622584581375122,-0.08203679323196411,0.09468090534210205,0.14743922432130557,-0.009536941748881906,-0.9768556485161329,0.15467277416031583,-0.30993652327002286,-2.837562960357986,0.0283307219559213
1773065890549005568,2.2423324584960938,0.06662356853485107,0.35657480359077454,-0.1386517733335495,-0.28876471519470215,0.306321382522583,0.9070733785629272,-0.027443140745162964,-0.1245587170124054,0.05317741632461548,0.14926852024173876,-0.00881782432721077,-0.9764522248752278,0.15550630024705986,-0.31132624234643985,-2.833389276576648,0.03068362384957812
1773065890559042560,2.2523694038391113,-0.19711673259735107,0.350708931684494,-0.0680718794465065,-0.29231104254722595,0.3053479790687561,0.906265377998352,-0.024903923273086548,-0.12288334965705872,0.06730639934539795,0.15108437112209608,-0.00864309564163444,-0.9762468899413135,0.15505109151987764,-0.31030382498925096,-2.8295831348133547,0.03148463551219938
1773065890569080576,2.2624075412750244,-0.23743565380573273,0.32903480529785156,0.010401089675724506,-0.2954850196838379,0.30312052369117737,0.905983567237854,-0.027589261531829834,-0.12315839529037476,0.02582472562789917,0.15275785730225716,-0.008939526086420421,-0.9761720533798401,0.1538608620506865,-0.30796553064335064,-2.826322497546522,0.031017944937445755
1773065890579118592,2.2724454402923584,-0.07536991685628891,0.3058696985244751,0.10536235570907593,-0.29819822311401367,0.301788866519928,0.9055391550064087,-0.03705260157585144,-0.13588008284568787,-0.04024380445480347,0.15426140788128667,-0.009590026214046983,-0.9760520532768582,0.15308103968840658,-0.3065684516984595,-2.8234723158637913,0.02990693121501611
1773065890589156608,2.2824835777282715,0.15326538681983948,0.28707149624824524,0.18525664508342743,-0.3004419803619385,0.3025580942630768,0.9045405983924866,-0.0542791485786438,-0.1387244462966919,-0.06993043422698975,0.15559918261170516,-0.010502565272927115,-0.9757868625750838,0.15335813080833158,-0.3073753851470077,-2.8209086666091796,0.028571072807245898
1773065890599193600,2.292520523071289,0.294231116771698,0.2831481397151947,0.24538123607635498,-0.30234140157699585,0.30535563826560974,0.9029659628868103,-0.07654958963394165,-0.12585124373435974,-0.05932283401489258,0.15682683015864576,-0.011596617090261349,-0.9753709622382805,0.15466849422737938,-0.3103118821913196,-2.818494402907777,0.02719226996277933
1773065890609231360,2.302558422088623,0.21232134103775024,0.2933110296726227,0.2659192979335785,-0.30413752794265747,0.30857786536216736,0.9012659192085266,-0.09765690565109253,-0.10275205969810486,-0.032674551010131836,0.15804295919151246,-0.012872657274506856,-0.9749191010422448,0.15617142299881517,-0.31369757973320406,-2.8161363737733516,0.025511610876400595
1773065890619269632,2.312596559524536,-0.08443509787321091,0.31107097864151,0.21126149594783783,-0.3060995638370514,0.30996546149253845,0.9001245498657227,-0.10956507921218872,-0.07746732234954834,0.03707015514373779,0.15932846100624146,-0.014250252946041136,-0.9746072020685289,0.15669108823241581,-0.31515671126314027,-2.8137971723733237,0.02330366327273875
1773065890629307392,2.32263445854187,-0.34888407588005066,0.32676151394844055,0.12595218420028687,-0.3084545135498047,0.3084423840045929,0.8998438715934753,-0.10884281992912292,-0.03675967454910278,0.07424664497375488,0.16073880556972958,-0.015512805779238725,-0.9745159178649075,0.15569543215066184,-0.3135551326657246,-2.811358331406908,0.020834924991250833
1773065890639344384,2.3326714038848877,-0.43882620334625244,0.3350394368171692,0.05631318688392639,-0.31114858388900757,0.3050343990325928,0.9000779986381531,-0.08295539021492004,0.011982172727584839,0.04863715171813965,0.16224434558549122,-0.016536571180557673,-0.9745591515989572,0.15374565161242945,-0.30997454420209164,-2.808762021268973,0.01854167499331982
1773065890649382656,2.342709541320801,-0.33194050192832947,0.34161078929901123,0.04116033390164375,-0.3140783905982971,0.3015894889831543,0.9002217650413513,-0.039193183183670044,0.05741932988166809,0.0027021169662475586,0.16383454537642553,-0.017330670151552065,-0.9745822308360915,0.15181416586282978,-0.3063593422278171,-2.8059070172464944,0.01674490783914956
1773065890659420416,2.3527474403381348,-0.09385935217142105,0.3594498336315155,0.08569171279668808,-0.31702736020088196,0.29979437589645386,0.8997872471809387,0.010112076997756958,0.09008294343948364,-0.037574052810668945,0.16546697131221566,-0.01808740336114049,-0.9744570180025762,0.15075505355804306,-0.3044771083619866,-2.802838360919418,0.015345582315697095
1773065890669458688,2.362785577774048,0.17965394258499146,0.37758490443229675,0.09045024961233139,-0.3200787603855133,0.300482839345932,0.8984764814376831,0.04090392589569092,0.09473508596420288,-0.044045209884643555,0.1672051566949542,-0.018782910501694342,-0.9741075039143845,0.15101086910554867,-0.30519884872760605,-2.799364237422433,0.014580753796403412
1773065890679496448,2.372823476791382,0.40995144844055176,0.35868218541145325,0.05412353575229645,-0.3231908679008484,0.3034251034259796,0.8963711261749268,0.0435430109500885,0.053127020597457886,-0.04673111438751221,0.16898635176179028,-0.019165435272657412,-0.9735595722987203,0.1525061905513362,-0.30828518965802354,-2.7955460524984304,0.014929939754509378
1773065890689533440,2.3828604221343994,0.42728090286254883,0.3367513120174408,0.058382730931043625,-0.32612380385398865,0.3074909448623657,0.8939199447631836,0.04656749963760376,-0.013347238302230835,-0.06732070446014404,0.17066874030826934,-0.01931196639466466,-0.9729270389981942,0.15463598077025398,-0.31255510655149044,-2.7917727580844858,0.01597963166497023
1773065890699571712,2.3928985595703125,0.24491886794567108,0.359153687953949,0.13707980513572693,-0.32892119884490967,0.31088393926620483,0.8917183876037598,0.06279274821281433,-0.06999349594116211,-0.05086773633956909,0.17231153183334036,-0.019742160202756754,-0.9723525254899902,0.15636322124558624,-0.31612292624405125,-2.7882138868409094,0.01630218806146668
1773065890709609472,2.4029364585876465,-0.022404970601201057,0.37806424498558044,0.21350720524787903,-0.3316609263420105,0.3124694526195526,0.8901479840278625,0.07511496543884277,-0.09754946827888489,-0.0021935105323791504,0.17398094208141132,-0.02080094783709434,-0.971926595359493,0.15702396151719858,-0.31779155985862517,-2.7849358596414984,0.01495365659391528
1773065890719647744,2.4129745960235596,-0.22833958268165588,0.41270479559898376,0.22332707047462463,-0.3344671428203583,0.31200000643730164,0.8892624378204346,0.06884214282035828,-0.08736011385917664,0.05186915397644043,0.17570563530518404,-0.022320563317234567,-0.9716650786868395,0.1565129312006982,-0.31729738467803315,-2.781842645983598,0.012235231241521326
1773065890729684480,2.423011541366577,-0.2579320967197418,0.46876034140586853,0.18275834619998932,-0.33774250745773315,0.3104092478752136,0.8885812759399414,0.03213939070701599,-0.049819618463516235,0.0873405933380127,0.17765442555273853,-0.023884558024710806,-0.9714526067968878,0.15539762986431427,-0.3156235290382958,-2.778365385592659,0.00926658855340272
1773065890739722496,2.433049440383911,-0.1263359785079956,0.5416329503059387,0.1634829193353653,-0.34171563386917114,0.30921322107315063,0.8874785900115967,-0.0072987377643585205,0.0034241676330566406,0.09741544723510742,0.17996039862311267,-0.025289949262292385,-0.9711332157544815,0.15451579452600045,-0.3143655956321381,-2.7740481074345613,0.006828315922713882
1773065890749760512,2.443087577819824,0.08670544624328613,0.6102083325386047,0.15881146490573883,-0.34634917974472046,0.3095831573009491,0.885550856590271,-0.028315097093582153,0.054857730865478516,0.10352373123168945,0.1826450959949182,-0.02654858749217786,-0.970603213206554,0.1544839476711603,-0.3147546359135407,-2.768772132321437,0.00514811877340172
1773065890759798528,2.453125476837158,0.2617179751396179,0.6885596513748169,0.1446603685617447,-0.3516159653663635,0.3117229640483856,0.8827202320098877,-0.031501710414886475,0.07852056622505188,0.0843970775604248,0.18570025519275576,-0.02761742528509937,-0.969843997582853,0.1554197607750458,-0.3170058167753428,-2.7625247756667366,0.004371628417257455
1773065890769835520,2.463162422180176,0.2531026303768158,0.7588820457458496,0.13467377424240112,-0.3575926125049591,0.314578652381897,0.8792997002601624,-0.02111530303955078,0.08471333980560303,0.06758451461791992,0.1891579481009537,-0.028613504905530437,-0.9689329755342607,0.1567465083281911,-0.32001275194658935,-2.7553419133407235,0.004056512881864043
1773065890779873536,2.473200559616089,0.18466335535049438,0.8271765112876892,0.15769347548484802,-0.36409440636634827,0.31700825691223145,0.8757514953613281,0.000294417142868042,0.09185093641281128,0.10847073793411255,0.19291698580455974,-0.029737625664830746,-0.9679831651804912,0.15782013751876245,-0.3225733788608581,-2.7475821486710803,0.0035019564230665506
1773065890789911552,2.483238458633423,0.18825408816337585,0.9250788688659668,0.2246629297733307,-0.3711671829223633,0.31927111744880676,0.8719522356987,0.025265753269195557,0.08060064911842346,0.1498066782951355,0.19704008612143414,-0.03115531825782737,-0.9669568006230295,0.15874205224375504,-0.32496024010288316,-2.7391514581843537,0.002432724309221999
1773065890799949568,2.493276596069336,0.20505428314208984,1.0119037628173828,0.32542574405670166,-0.37873154878616333,0.32208091020584106,0.8676555156707764,0.040078043937683105,0.05291905999183655,0.17996704578399658,0.2015479197785629,-0.03306644782107322,-0.965781741351321,0.15984562416305098,-0.32792671510549065,-2.730021949832181,0.0005948619087293453
1773065890809986560,2.5033135414123535,0.1608085334300995,1.1044968366622925,0.3733176290988922,-0.38674235343933105,0.3250940442085266,0.8629856109619141,0.055550336837768555,0.02451533079147339,0.22128868103027344,0.2064098070739016,-0.03546856000639193,-0.9644867955932418,0.16094150703834267,-0.3311111616010559,-2.720282745242042,-0.0020917251427509023
1773065890820024576,2.5133514404296875,0.02474341168999672,1.1665582656860352,0.2359151840209961,-0.3955586850643158,0.32711827754974365,0.8582115173339844,0.056905120611190796,0.0007625818252563477,0.22847366333007812,0.2116836592398237,-0.03780544673909043,-0.9631596548259569,0.1615062980363458,-0.3332524782432209,-2.70970271345577,-0.004707902995585819
1773065890830062592,2.5233895778656006,0.0010753658134490252,1.0892083644866943,0.07728318125009537,-0.40483739972114563,0.3277600109577179,0.8536278009414673,0.029745787382125854,-0.028504610061645508,0.10267114639282227,0.2170579770723033,-0.03945069528329421,-0.9619030791307883,0.16146835728536107,-0.3339316231645281,-2.6987522010728813,-0.006138628517379512
1773065890840100608,2.5334274768829346,0.0803491473197937,0.9744824767112732,0.05569932982325554,-0.41347602009773254,0.32830002903938293,0.8492680191993713,0.030923008918762207,-0.07503470778465271,-0.09421759843826294,0.2219992740273566,-0.04050965278455552,-0.9607252314617347,0.16149976023306073,-0.33450327389663864,-2.6885108724298377,-0.0064914748852081434
1773065890850137600,2.543464422225952,0.1827586144208908,0.8789247870445251,0.1540280431509018,-0.4210200905799866,0.3298383057117462,0.8449552655220032,0.03593394160270691,-0.09785884618759155,-0.23614460229873657,0.22640956034854998,-0.04160651781053961,-0.9595553760036204,0.1620532212642157,-0.33613229094824054,-2.679325989929541,-0.006850119230360181
1773065890860175616,2.5535025596618652,0.35740551352500916,0.7868518829345703,0.2281225025653839,-0.4274122416973114,0.33286190032958984,0.8405485153198242,0.004591166973114014,-0.07202816009521484,-0.2823362350463867,0.23031168538526153,-0.04293105040238019,-0.9583481576169296,0.16334713228881598,-0.339336914272419,-2.671174521505894,-0.007470336482443394
1773065890870213632,2.563540458679199,0.6969598531723022,0.7211588621139526,0.2142125517129898,-0.4329604506492615,0.33820879459381104,0.8355595469474792,-0.05272671580314636,-0.03567284345626831,-0.2626531720161438,0.23384476857206374,-0.04404037324589099,-0.9569954132332252,0.16594204876829208,-0.3450128614838822,-2.6635162997665085,-0.0071020846453058156
1773065890880251648,2.5735785961151123,1.0127218961715698,0.7441845536231995,0.09397587925195694,-0.43850788474082947,0.34614190459251404,0.829395592212677,-0.08782884478569031,-0.03120046854019165,-0.18422329425811768,0.2374027118122717,-0.04439608642117382,-0.9553673618959376,0.17012429091200976,-0.35345564538950136,-2.6552434660920627,-0.004320291514156491
1773065890890289664,2.5836164951324463,1.0953197479248047,0.7656722664833069,-0.007386162877082825,-0.44467893242836,0.3552437722682953,0.8222302198410034,-0.07257875800132751,-0.04072961211204529,-0.10984313488006592,0.2412509961198935,-0.04393677690103699,-0.9535117501577022,0.17516522180765925,-0.3631748413363038,-2.6458243656804012,0.0007799775429368722
1773065890900326400,2.593653440475464,0.9040154814720154,0.7130333185195923,0.004139198921620846,-0.4507703483104706,0.36347511410713196,0.8152863383293152,-0.0005998313426971436,-0.037837326526641846,-0.10097670555114746,0.2450033788256737,-0.043318330167657716,-0.9517177591826267,0.1798058558959481,-0.3719954539139926,-2.6365270570732755,0.006067461603501871
1773065890910364672,2.603691577911377,0.6018385887145996,0.6597591638565063,0.07299496233463287,-0.4562438726425171,0.36978447437286377,0.80938321352005,0.07895505428314209,-0.04202568531036377,-0.05634665489196777,0.24842022383166856,-0.043208267880537325,-0.9501708506019516,0.18329170415047102,-0.3787770522967248,-2.62829718181641,0.00963968192192497
1773065890920402432,2.613729476928711,0.4906418025493622,0.6487909555435181,0.0895603597164154,-0.46115565299987793,0.37443065643310547,0.8044484257698059,0.08603358268737793,-0.06150341033935547,-0.014806032180786133,0.25153089089218894,-0.04354369832574614,-0.9488562341642939,0.18576338673944856,-0.3837826984911841,-2.621069295601159,0.011665925144850214
1773065890930439424,2.6237664222717285,0.5301306247711182,0.6975656747817993,0.08559411019086838,-0.4662471413612366,0.37896957993507385,0.7993720173835754,0.04659995436668396,-0.07016220688819885,0.021077752113342285,0.254768083507665,-0.04394476177402737,-0.9474992740119696,0.18816802877905695,-0.3886825745323446,-2.6135678644594704,0.013619431286653147
1773065890940477696,2.6338045597076416,0.45622479915618896,0.7178186178207397,0.10535170882940292,-0.4715636670589447,0.38340333104133606,0.7941218614578247,0.016332954168319702,-0.014140665531158447,0.05318337678909302,0.2581615612408535,-0.04442133998043777,-0.9460907254440515,0.19050370577273987,-0.3934784336093691,-2.6057313093987764,0.015492745099217331
1773065890950515456,2.6438424587249756,0.37289050221443176,0.7172588109970093,0.0974612906575203,-0.4768345057964325,0.3871520161628723,0.7891402244567871,0.020810335874557495,0.07267159223556519,0.09710550308227539,0.26154612005250744,-0.045091459524446036,-0.9447416926975631,0.192415037491721,-0.3975407079765801,-2.598057236730906,0.016758900405967895
1773065890960553728,2.6538805961608887,0.40599071979522705,0.6607570648193359,0.053859882056713104,-0.48204079270362854,0.39058923721313477,0.7842680811882019,0.01545765995979309,0.09912624955177307,0.026309192180633545,0.26486300452732986,-0.04561465707820005,-0.9434263791758537,0.19419955032678532,-0.401271577338242,-2.5904795294318577,0.018255466412657254
1773065890970591488,2.6639184951782227,0.5137118101119995,0.5305274128913879,0.02417842112481594,-0.4865698516368866,0.3943072557449341,0.7795969247817993,0.0032324790954589844,0.05402642488479614,-0.13608813285827637,0.26774829667121103,-0.04577033811439338,-0.9421802035209821,0.19624557412450483,-0.40531390313095184,-2.5836191903743098,0.020503570314859967
1773065890980628480,2.6739554405212402,0.661080002784729,0.42440274357795715,0.0024130712263286114,-0.4902397692203522,0.398983359336853,0.7749046683311462,0.01039665937423706,-0.041332632303237915,-0.18530505895614624,0.27011969959823307,-0.04548169356664052,-0.940948323247588,0.19895479471061833,-0.41040787315040234,-2.577514510458686,0.023876173529907233
1773065890990666752,2.6839935779571533,0.7148124575614929,0.35482257604599,0.039337530732154846,-0.49317213892936707,0.40444499254226685,0.7701985239982605,0.02593269944190979,-0.13018345832824707,-0.18195676803588867,0.2720874945642035,-0.04501306929796072,-0.9397196834263397,0.20216135217074624,-0.4163718907863978,-2.5720537454649324,0.02778934492101173
1773065891000704512,2.6940314769744873,0.6107578277587891,0.33302435278892517,0.12488652020692825,-0.49549245834350586,0.4100910425186157,0.7657105922698975,0.054208219051361084,-0.17164188623428345,-0.10241091251373291,0.27377890880611144,-0.04481335123642503,-0.9385345326599535,0.2054016858039591,-0.422553891896828,-2.5672577792943447,0.03109070744212632
1773065891010742784,2.7040696144104004,0.20994916558265686,0.3581230342388153,0.17610257863998413,-0.497437447309494,0.4141034781932831,0.7622825503349304,0.06752100586891174,-0.1444196105003357,0.006653785705566406,0.27530251876174106,-0.04531490452057633,-0.9375968423594463,0.20752676115320132,-0.4269576512483129,-2.56341774790163,0.03218540465858218
1773065891020779520,2.714106559753418,-0.13194775581359863,0.4455891251564026,0.08275970816612244,-0.49991002678871155,0.4149371385574341,0.7602086663246155,0.05355992913246155,-0.05963623523712158,0.16502320766448975,0.27703784335742987,-0.046349618401457356,-0.9369930880254055,0.2077154752101443,-0.4278736979074194,-2.559896202918139,0.031033774539606408
1773065891030817536,2.724144458770752,-0.18138454854488373,0.5287274122238159,-0.0958358645439148,-0.5036911964416504,0.4136051535606384,0.7584365010261536,-0.0028700828552246094,0.005446910858154297,0.17271578311920166,0.2793181363069783,-0.04705966360771365,-0.9364847246785841,0.2067924380172572,-0.4264102391864593,-2.5553567365806438,0.03007785408488059
1773065891040855552,2.734182596206665,-0.0503397099673748,0.5035051703453064,-0.16567300260066986,-0.5082568526268005,0.41193515062332153,0.7562962174415588,-0.04516404867172241,0.04170861840248108,0.008550405502319336,0.2818951626709295,-0.04711549556431532,-0.935910381497456,0.2058807581661559,-0.4245767398266026,-2.5498833176668896,0.030603343650899548
1773065891050893568,2.744220495223999,0.13854125142097473,0.4152469336986542,-0.09349600970745087,-0.5122907757759094,0.4116091728210449,0.7537477612495422,-0.0101853609085083,0.04275175929069519,-0.14599037170410156,0.2841997629836382,-0.046887843389151314,-0.935240837116708,0.20580695102983848,-0.42421902575452847,-2.544649851996113,0.0321308211781498
1773065891060930560,2.7542574405670166,0.19187279045581818,0.4092158079147339,0.009056059643626213,-0.5155219435691833,0.4127393662929535,0.7509214878082275,0.0492592453956604,0.021846145391464233,-0.2255309820175171,0.2861879444191777,-0.04686876735600373,-0.9344859925570489,0.20648400890861324,-0.4254595218484786,-2.539971693232527,0.03359042265593227
1773065891070968832,2.764295816421509,0.12831299006938934,0.47010552883148193,0.03370441496372223,-0.5187119841575623,0.41412675380706787,0.7479552626609802,0.07999122142791748,0.013546645641326904,-0.16551202535629272,0.28825695321860806,-0.047212501505705384,-0.9336747918742007,0.2071963953508572,-0.42698322698203856,-2.5352379271307974,0.034382402768173406
1773065891081007104,2.774333953857422,0.015613561496138573,0.5050795674324036,-0.013556174002587795,-0.5223290920257568,0.41474008560180664,0.7450924515724182,0.07286632061004639,0.034234434366226196,-0.06601530313491821,0.29055547638098733,-0.04767692765600094,-0.93288430466847,0.20743971846249995,-0.42765716100222534,-2.530178480929523,0.03472507028095372
1773065891091044864,2.784371852874756,-0.14458996057510376,0.6081390976905823,-0.06670860946178436,-0.526624321937561,0.4140290915966034,0.7424601316452026,0.03452831506729126,0.082095205783844,0.015306651592254639,0.2931681716823106,-0.04815834472345991,-0.9321538661876497,0.20693585534979053,-0.42687593313335936,-2.5246546804787995,0.0346694717274112
1773065891101081856,2.7944087982177734,-0.255164235830307,0.7173811793327332,-0.12293459475040436,-0.5319820046424866,0.4120089113712311,0.7397589087486267,-0.0224459171295166,0.09566619992256165,0.06111365556716919,0.29633860827631076,-0.04871125758694447,-0.9314003830195631,0.20567892245563668,-0.42465769762320466,-2.518143524700833,0.03420611486060286
1773065891111119872,2.8044469356536865,-0.25382837653160095,0.7116127610206604,-0.12537112832069397,-0.5378563404083252,0.40937596559524536,0.7369678616523743,-0.05358940362930298,0.03541767597198486,0.018372654914855957,0.29977280824946956,-0.04923083303021747,-0.9306235804639122,0.20408887380245988,-0.4217699848501521,-2.5111301319745643,0.0336878645834217
1773065891121157888,2.8144848346710205,-0.2969597280025482,0.6921119689941406,-0.05727875605225563,-0.543397843837738,0.4069013297557831,0.7342681884765625,-0.025648057460784912,-0.043498069047927856,-0.06773382425308228,0.3030635207376776,-0.049910094307722495,-0.9298618633421928,0.20252979804545332,-0.41905929845105605,-2.5044876652153696,0.032781694693586126
1773065891131195904,2.8245227336883545,-0.34311896562576294,0.6429257392883301,-0.018771309405565262,-0.5484651327133179,0.4042913019657135,0.731938898563385,0.01916825771331787,-0.076639324426651,-0.07681810855865479,0.3061425286761691,-0.05094793203344816,-0.9291790733341001,0.2007668137077347,-0.41620385063627124,-2.498519266402662,0.030888445771261937
1773065891141232896,2.834559917449951,-0.13374370336532593,0.5525354743003845,-0.02968374267220497,-0.5529495477676392,0.40233340859413147,0.7296401262283325,0.03036653995513916,-0.07726016640663147,-0.07979881763458252,0.30889075325607823,-0.051821513303373985,-0.9285120364569786,0.19941530699834253,-0.4140642109721299,-2.4930936045474765,0.029454275770126645
1773065891151270912,2.844597816467285,0.07714643329381943,0.4878915548324585,-0.025194719433784485,-0.5568641424179077,0.40201982855796814,0.7268303632736206,0.016687750816345215,-0.05068621039390564,-0.0961235761642456,0.31133202541739796,-0.05222802153498484,-0.9277324071623442,0.19914110480810523,-0.41372171793070683,-2.4878327788498793,0.029591293741685166
1773065891161308928,2.8546359539031982,0.14345620572566986,0.479406476020813,-0.034831367433071136,-0.5604863166809082,0.4026619791984558,0.7236835360527039,0.0036627650260925293,0.022844523191452026,-0.04672759771347046,0.31363618575082675,-0.05242604263886696,-0.9268728551324992,0.1994753476943839,-0.4144231496756465,-2.4826007297026558,0.03052952667669815
1773065891171346944,2.8646738529205322,0.2744999825954437,0.4534446597099304,-0.11374242603778839,-0.5640894174575806,0.4037613272666931,0.7202634811401367,0.003557920455932617,0.07312151789665222,0.06945496797561646,0.31589096636576397,-0.05223652365292684,-0.9259606227442838,0.20020248344685782,-0.4156244808702648,-2.4771978862365573,0.03252026152849145
1773065891181384704,2.874711751937866,0.3018527626991272,0.4596428871154785,-0.19276481866836548,-0.568045973777771,0.40506890416145325,0.71640944480896,-0.027870595455169678,0.07060852646827698,0.11928373575210571,0.31826757038742054,-0.05148965354863401,-0.9249613737460441,0.2012483604750266,-0.41705418192766014,-2.471191760529673,0.03593715584099483
1773065891191421952,2.884748935699463,0.2239294797182083,0.383398175239563,-0.1843865066766739,-0.5719307065010071,0.40579837560653687,0.7128972411155701,-0.05793672800064087,0.04465627670288086,0.1138542890548706,0.3205295447110659,-0.05060557756999713,-0.9240604437922453,0.202019913265332,-0.4178522057521721,-2.465473708935042,0.039378829632283834
1773065891201459968,2.894786834716797,0.05254947394132614,0.30354464054107666,-0.10685069859027863,-0.5750105381011963,0.40591955184936523,0.7103466391563416,-0.04223799705505371,-0.06551122665405273,0.08478891849517822,0.3223215547561313,-0.05005095255259948,-0.9234003539424925,0.20232532742863912,-0.417984789164132,-2.4610986263523023,0.041584505453821786
1773065891211497728,2.904824733734131,-0.07276982814073563,0.2603561580181122,-0.04172602668404579,-0.5773187875747681,0.405404657125473,0.7087664008140564,-0.008237123489379883,-0.1437622308731079,0.08459895849227905,0.32370541052361307,-0.05004217829905153,-0.9229729073811064,0.20206813162629128,-0.4174214664230519,-2.4580483609327883,0.042069487163104616
1773065891221536000,2.914862871170044,0.0441189743578434,0.1428862363100052,-0.01668698526918888,-0.5788286924362183,0.40497642755508423,0.7077792882919312,-0.0010205507278442383,-0.10834556818008423,0.06213343143463135,0.32463378054898095,-0.05017209230040005,-0.922698429313497,0.20180012236685996,-0.41695304526944504,-2.4560861321123286,0.04204860482364184
1773065891231572992,2.9248998165130615,0.15443269908428192,0.052239421755075455,-0.002195928478613496,-0.5795336961746216,0.40570154786109924,0.7067866921424866,-0.021265923976898193,-0.08252033591270447,-0.02601569890975952,0.32510676712897746,-0.050049282853125585,-0.9224361278510602,0.20226810428054154,-0.417746238923187,-2.4548015443625757,0.04288259939986294
1773065891241611008,2.9349379539489746,0.2221643328666687,-0.0414348728954792,0.007395712658762932,-0.5795578956604004,0.40704345703125,0.7059943675994873,-0.029862821102142334,-0.08004766702651978,0.02001875638961792,0.3251754493274336,-0.04976867223749531,-0.922236559107732,0.203134624094979,-0.4192148922251998,-2.4542310805578222,0.04414770853265066
1773065891251649024,2.9449758529663086,0.03191184252500534,-0.08854299783706665,0.003941060043871403,-0.5790197253227234,0.4081059694290161,0.7058227062225342,-0.016805529594421387,-0.08588606119155884,0.06598204374313354,0.3248721240974368,-0.049495848973151846,-0.922204710308818,0.2038301922488262,-0.4203784364280602,-2.454567428097771,0.04508628567519224
1773065891261686784,2.9550137519836426,-0.09195985645055771,-0.0547216534614563,-0.015596956014633179,-0.5785418748855591,0.4077420234680176,0.7064247727394104,-0.012553095817565918,-0.0845302939414978,0.1905326247215271,0.32453876134345205,-0.04947186146907259,-0.9223691927194781,0.20362288418149274,-0.41997981676564167,-2.455390181439113,0.04481241423273777
1773065891271724032,2.9650509357452393,-0.2037915736436844,-0.02969965524971485,0.04590555280447006,-0.5782009363174438,0.406823068857193,0.7072330713272095,-0.027283012866973877,-0.12053769826889038,0.20707350969314575,0.3242946640394202,-0.04968178688221034,-0.9225769589919145,0.20301829512897848,-0.41897363886419364,-2.456239550371868,0.043806730905574166
1773065891281761792,2.9750888347625732,-0.4441204071044922,-0.008379852399230003,0.16856582462787628,-0.5776293873786926,0.40517163276672363,0.7086467742919922,-0.001228034496307373,-0.11070752143859863,0.1897144317626953,0.3240228217413202,-0.050704120810745386,-0.9229043666077679,0.2017072709325174,-0.41716654892116806,-2.4577023039018404,0.040619086906605574
1773065891291799808,2.9851267337799072,-0.48862528800964355,-0.07514769583940506,0.17403090000152588,-0.5766459703445435,0.40273916721343994,0.7108312249183655,0.028229713439941406,-0.030745089054107666,0.13357514142990112,0.3235493729006125,-0.05228982429042579,-0.923407485110955,0.19975065147062798,-0.4145074851921444,-2.4600429513949895,0.03572073617854148
1773065891301837824,2.9951648712158203,-0.324246883392334,-0.15371401607990265,0.10743656009435654,-0.5752173066139221,0.4006117582321167,0.7131867408752441,0.018668293952941895,0.03682717680931091,-0.005209445953369141,0.32274263900749844,-0.05349680760559411,-0.9239758926431377,0.19810060684840353,-0.4121844411546496,-2.462873447996618,0.03166867184408324
1773065891311874816,3.005201816558838,-0.11300548911094666,-0.13441061973571777,0.04988645017147064,-0.5738547444343567,0.39951226115226746,0.714898943901062,0.00860828161239624,0.09903809428215027,-0.04779994487762451,0.321929657560992,-0.0540716969189229,-0.9244056022391006,0.1972606509321507,-0.41098474792218226,-2.4652029864341016,0.029500217613585157
1773065891321913088,3.015239953994751,0.08745747804641724,-0.14355485141277313,-0.02312091737985611,-0.5727888345718384,0.39953818917274475,0.7157389521598816,-0.02639329433441162,0.14028725028038025,-0.019922971725463867,0.32126274011140943,-0.05401703996253259,-0.924635950705988,0.19728352335498545,-0.4110130373019075,-2.4666833567972852,0.029312598735403365
1773065891331950848,3.025277853012085,0.14737407863140106,-0.12580221891403198,-0.04477348178625107,-0.5719606280326843,0.4002479016780853,0.7160046696662903,-0.05448901653289795,0.11066213250160217,0.01963675022125244,0.32069878360652837,-0.053482930595088456,-0.9247388302519849,0.19786347575700197,-0.4117873429087761,-2.46757013763755,0.030551954496841015
1773065891341988864,3.035315752029419,-0.008025365881621838,-0.09956422448158264,0.01731092855334282,-0.571219265460968,0.40074053406715393,0.7163207530975342,-0.029503941535949707,0.03205972909927368,0.06872862577438354,0.3202159818305092,-0.05316515622835668,-0.9248426102594524,0.19824554596349725,-0.41232496419247255,-2.468417693210954,0.03124743725599065
1773065891352026112,3.0453529357910156,-0.22377577424049377,-0.07862938195466995,0.04831278696656227,-0.5704180598258972,0.40009835362434387,0.7173174023628235,0.03217965364456177,-0.03602370619773865,0.08772099018096924,0.31972402650839715,-0.053425853060108844,-0.9250969505078269,0.19778213802650055,-0.4116241716601336,-2.469779162645763,0.030145376913749963
1773065891362063872,3.0553908348083496,-0.4266819357872009,-0.04758704453706741,0.05491635948419571,-0.5697371959686279,0.3980625569820404,0.718989372253418,0.07712244987487793,-0.060873836278915405,0.060917794704437256,0.31928317972884007,-0.05413300256030241,-0.9255075997168121,0.19637603751051724,-0.4094038816141675,-2.47149454991559,0.02747159007534729
1773065891372101888,3.0654287338256836,-0.48964357376098633,-0.0059767491184175014,0.018535450100898743,-0.5693621635437012,0.39484959840774536,0.721055269241333,0.0961260199546814,-0.018079519271850586,0.03285104036331177,0.31897494275324,-0.05505322099499805,-0.9260112196974556,0.19423544499450204,-0.4059041424341211,-2.473210957343408,0.023896456710228803
1773065891382139904,3.0754668712615967,-0.3412882387638092,0.046073004603385925,-0.030211718752980232,-0.5695295929908752,0.3917312026023865,0.722622275352478,0.05652904510498047,0.0484391450881958,-0.019344627857208252,0.3189535753073063,-0.055720783219274525,-0.9263942629567471,0.19224348206021516,-0.40251242099199236,-2.4741235860042696,0.021080891577068238
1773065891392176896,3.0855038166046143,-0.12150847166776657,0.08054469525814056,-0.03327728062868118,-0.5701198577880859,0.38985946774482727,0.7231683731079102,-0.01755702495574951,0.07319891452789307,-0.07766073942184448,0.31921369575091096,-0.055990474023000815,-0.9265253609392703,0.19109763386525366,-0.4004789726663078,-2.4739872335721786,0.01981808928837251
1773065891402214912,3.0955419540405273,0.018926890566945076,0.1538672298192978,-0.014033147133886814,-0.5710221529006958,0.3894050419330597,0.7227017283439636,-0.07587432861328125,0.05906608700752258,-0.04391449689865112,0.31974217138509287,-0.05605483799905533,-0.9263955539332175,0.19082498964819472,-0.39998555247448214,-2.4729043256439245,0.01973024118649031
1773065891412252928,3.1055798530578613,-0.017604755237698555,0.2211647778749466,0.009654872119426727,-0.572407603263855,0.3894156813621521,0.7215991020202637,-0.1048690676689148,0.009601712226867676,0.051548540592193604,0.3206237388457506,-0.05619979935728318,-0.92608916197057,0.1907903295264851,-0.3999971229311774,-2.47098191141972,0.019817297527808492
1773065891422290688,3.1156177520751953,-0.20424720644950867,0.2874448597431183,0.09262259304523468,-0.5740936398506165,0.38899174332618713,0.7204871773719788,-0.08648979663848877,-0.05114692449569702,0.10138159990310669,0.3217528110813276,-0.05682353487955394,-0.9257508711535672,0.19034575254631125,-0.3995368993774424,-2.468797940270107,0.018758063441386388
1773065891432328960,3.1256558895111084,-0.4662410020828247,0.35328832268714905,0.19338250160217285,-0.5758547186851501,0.3873301148414612,0.7199766635894775,-0.030148029327392578,-0.05511578917503357,0.14672237634658813,0.32300895292328874,-0.05835925147093835,-0.9255174434873419,0.18888297682893407,-0.397733870912888,-2.4669589753229073,0.015182436867904223
1773065891442365952,3.135692834854126,-0.5030564665794373,0.40904533863067627,0.22225888073444366,-0.5777994990348816,0.3849482834339142,0.7196962833404541,-0.006078124046325684,-0.010085612535476685,0.1853635311126709,0.3244367372666254,-0.060508566145977195,-0.9253036558062567,0.18679590410661795,-0.3951517720680944,-2.4651236445013827,0.01000009175203979
1773065891452403712,3.14573073387146,-0.4865107536315918,0.4944513142108917,0.23523354530334473,-0.5801369547843933,0.38272199034690857,0.7190026044845581,-0.007921457290649414,0.027037471532821655,0.19617372751235962,0.32613742714824207,-0.0627727650711072,-0.9249653331036242,0.18475119811652804,-0.39274083083582567,-2.462680634028277,0.004744547157432058
1773065891462441984,3.155768871307373,-0.5304659008979797,0.6269509196281433,0.20678764581680298,-0.5833422541618347,0.38032281398773193,0.7176811099052429,-0.0005351901054382324,0.07885986566543579,0.2782905101776123,0.3283866799124198,-0.06520458679221088,-0.9244397879779048,0.18254200783736507,-0.39014532723909484,-2.459086140110974,-0.0007208718218461562
1773065891472479744,3.165806770324707,-0.38657188415527344,0.5485192537307739,0.06116333603858948,-0.5871920585632324,0.37775543332099915,0.7158955335617065,0.006793498992919922,0.11099883913993835,0.23492538928985596,0.33092326573137854,-0.06716559105959517,-0.9238163009569933,0.18039414745426702,-0.38737089563053256,-2.454643296716339,-0.005080556952343887
1773065891482516992,3.1758439540863037,-0.06245185434818268,0.33602452278137207,-0.07104716449975967,-0.5903847813606262,0.37601161003112793,0.7141858339309692,0.01276332139968872,0.07331401109695435,-0.05299192667007446,0.3328967188098729,-0.06794056034742889,-0.9232968164805456,0.1791283221440324,-0.3854882468507215,-2.450809079765346,-0.00668691008589265
1773065891492555008,3.1858818531036377,0.3627393841743469,0.12067599594593048,-0.1714952141046524,-0.5925263166427612,0.3762650489807129,0.7122762799263,0.02990412712097168,0.0007796883583068848,-0.26545315980911255,0.33413101431022063,-0.0673089231383314,-0.9228259069336388,0.17949488058564528,-0.38576178564950186,-2.44771444038195,-0.004618653528126688
1773065891502592768,3.1959197521209717,0.6413949728012085,-0.2403533011674881,-0.09177134931087494,-0.5926592946052551,0.37917953729629517,0.71061772108078,0.012565970420837402,-0.11221182346343994,-0.4242561459541321,0.33417035444127274,-0.06570556287241129,-0.922492086231848,0.18171746401492495,-0.3889094692002884,-2.4464576419370774,0.0002414888086565006
1773065891512631040,3.2059578895568848,0.5615590214729309,-0.39166373014450073,0.1093606948852539,-0.5901914834976196,0.38364818692207336,0.7102733850479126,0.03675520420074463,-0.19041088223457336,-0.33068037033081055,0.33277962880472195,-0.06437366153821508,-0.9224926619872793,0.18471892200170367,-0.39374355021475077,-2.4482710657909657,0.004518717274057068
1773065891522667776,3.2159948348999023,0.2938344180583954,-0.22756387293338776,0.1896175742149353,-0.587273120880127,0.38763493299484253,0.7105278372764587,0.0491107702255249,-0.14741572737693787,-0.01054602861404419,0.33128002598628387,-0.06412725239629875,-0.9225787864460936,0.18705544454598802,-0.3980645274231447,-2.450882442725845,0.006086499533048026
1773065891532705792,3.2260327339172363,0.23393644392490387,-0.1109917089343071,0.022892514243721962,-0.5856807827949524,0.39005210995674133,0.7105190753936768,0.013659358024597168,-0.001059800386428833,0.19856905937194824,0.3305107736648642,-0.06411787019198861,-0.9225770658917545,0.1884226403169786,-0.4006881813764229,-2.452209331637243,0.0067812434015076485
1773065891542743808,3.2360708713531494,0.44550520181655884,-0.11588966846466064,-0.19512730836868286,-0.5852718949317932,0.39181143045425415,0.7098876237869263,-0.012369036674499512,0.13341131806373596,0.19071656465530396,0.33020008358547637,-0.0630499925065317,-0.9224795449074004,0.18979999006068438,-0.4025996310388326,-2.452115748481635,0.00980324615545576
1773065891552781824,3.2461087703704834,0.6888419389724731,-0.15584321320056915,-0.20494797825813293,-0.5851293206214905,0.39468246698379517,0.7084131836891174,0.003586411476135254,0.16859570145606995,0.06107217073440552,0.3299409408472209,-0.06095271545783429,-0.9222208890663055,0.1921778525397378,-0.4057222210240069,-2.45121464498285,0.015663105232071012
1773065891562819072,3.25614595413208,0.7622862458229065,-0.14139223098754883,-0.10686308145523071,-0.5846511721611023,0.3990037441253662,0.7063847780227661,0.044627249240875244,0.09156641364097595,-0.06299775838851929,0.32960178523552525,-0.058878393470803106,-0.9218056887752158,0.19537245744405607,-0.41043008673189585,-2.4502079504388505,0.02207645439272913
1773065891572856832,3.266183853149414,0.596538245677948,-0.1836043894290924,-0.04248383268713951,-0.5838553309440613,0.40351009368896484,0.7044806480407715,0.03318077325820923,-0.06221669912338257,-0.17367297410964966,0.32916643854546007,-0.057242938562568554,-0.9213921915610428,0.19851762886574423,-0.4153498888378323,-2.449551119945559,0.02754990194762751
1773065891582894848,3.276221752166748,0.2366073727607727,-0.20381686091423035,0.0179226566106081,-0.5824249982833862,0.4064067602157593,0.703999400138855,-0.00477910041809082,-0.19406536221504211,-0.22186726331710815,0.32833075638807907,-0.056286724012009744,-0.9213205231284288,0.20049777646444852,-0.41851794525196784,-2.4504203051943847,0.03058721581458026
1773065891592932864,3.286259889602661,0.0608198344707489,-0.06212577223777771,0.05653369799256325,-0.5812836289405823,0.40754351019859314,0.7042848467826843,-0.010955631732940674,-0.21221581101417542,-0.09535259008407593,0.3276854962820584,-0.05611630629020416,-0.9214083667501595,0.20119554050108793,-0.41976241804003217,-2.4515825940123066,0.031154947634533543
1773065891602969856,3.2962968349456787,0.12419978529214859,0.04786278307437897,0.08379460871219635,-0.5810036659240723,0.40853235125541687,0.703943133354187,-0.009252011775970459,-0.11765408515930176,-0.04923433065414429,0.32764231469821925,-0.056305992401139406,-0.9213040789625566,0.20169014499370355,-0.4208455372318632,-2.4515808376581325,0.031135967723092867
1773065891613007872,3.3063347339630127,0.19177855551242828,0.06377916038036346,0.06758075207471848,-0.5810965895652771,0.410163938999176,0.7029172778129578,0.0104178786277771,0.03931427001953125,-0.07738310098648071,0.32788526577650956,-0.05647123569430701,-0.9210155416245455,0.20256539919494138,-0.4226338047398841,-2.450786218623052,0.03159985793442665
1773065891623045888,3.316372871398926,0.23378726840019226,0.11906585097312927,-0.09268827736377716,-0.581709623336792,0.41154152154922485,0.7016037106513977,0.011564910411834717,0.14535856246948242,-0.044270217418670654,0.32833260894427974,-0.05619346340240012,-0.9206759170854173,0.20345987701153675,-0.4241447998566457,-2.4493495032943517,0.03306877010570006
1773065891633083904,3.3264107704162598,0.37191131711006165,0.14257968962192535,-0.18882520496845245,-0.5833427906036377,0.4128146469593048,0.6994963884353638,-0.02365177869796753,0.1108059287071228,-0.026751697063446045,0.3292250593189013,-0.0550903994089261,-0.9201702212927148,0.20460364395176092,-0.4255421499111925,-2.4464924123459033,0.03660858549946815
1773065891643120896,3.3364479541778564,0.22721879184246063,0.1546327769756317,-0.07103025168180466,-0.5849121809005737,0.41416236758232117,0.6973861455917358,-0.013186633586883545,-0.006523758172988892,-0.06915134191513062,0.33011125818708953,-0.05410626653006804,-0.9196551490373213,0.20575113772796294,-0.42702233397015926,-2.4436833816496235,0.039917433496475356
1773065891653158912,3.3464858531951904,0.04045450687408447,0.16741062700748444,0.02456817589700222,-0.5861422419548035,0.4150186777114868,0.6958426237106323,0.01766073703765869,-0.07738739252090454,-0.0368155837059021,0.3309310757789315,-0.053972729349380556,-0.9192433124584907,0.20630890233032845,-0.42796331732428117,-2.441557285302305,0.04103083875617521
1773065891663196928,3.3565237522125244,0.02104286104440689,0.11356935650110245,0.02370171621441841,-0.5870211720466614,0.41526421904563904,0.6949547529220581,0.0072939395904541016,-0.11370471119880676,-0.04639512300491333,0.3315600477768034,-0.05421655023768863,-0.918987448680735,0.2063750335909838,-0.4282332255319433,-2.4401895339517417,0.040907020346975735
