time,seconds_elapsed,rotationRateX,rotationRateY,rotationRateZ,gravityX,gravityY,gravityZ,accelerationX,accelerationY,accelerationZ,quaternionW,quaternionX,quaternionY,quaternionZ,pitch,roll,yaw
1772661247500458496,0.31908249855041504,-0.005575099959969521,0.01261717826128006,0.03834554925560951,-0.06234993785619736,0.5009695291519165,-0.8632160425186157,-0.006146792322397232,-0.0034415125846862793,0.0010944604873657227,0.8341680836829485,-0.20803708718396038,-0.15846937849670475,0.48556307829117695,-0.5247186837730424,-0.0721045988665467,1.0349248830365643
1772661247510496256,0.329120397567749,0.023894375190138817,0.025158802047371864,0.04078979790210724,-0.062007319182157516,0.5009199380874634,-0.8632695078849792,-0.0020490773022174835,0.004069685935974121,0.0020177364349365234,0.8341004836565421,-0.20807522430502975,-0.15833487762331744,0.48570673930481045,-0.5246613392902457,-0.07170530900783267,1.0353621968978663
1772661247520533248,0.3391573429107666,0.026461217552423477,0.020283887162804604,0.04090963676571846,-0.06163141876459122,0.5006909370422363,-0.8634293079376221,0.00322076678276062,0.008525371551513672,0.0030777454376220703,0.8340538759974905,-0.20803496673116012,-0.15813540779568303,0.4858689999108473,-0.524396771629785,-0.07125894888354879,1.0358314566574778
1772661247530570240,0.3491942882537842,0.013428773730993271,0.011241123080253601,0.047503624111413956,-0.061282843351364136,0.5005534291267395,-0.8635338544845581,0.00461168959736824,0.004680335521697998,0.0059593915939331055,0.8339823232314163,-0.20802759238472837,-0.1579797544205991,0.48604562833513004,-0.524237913606604,-0.07084872345435975,1.0363386040893783
1772661247540608512,0.35923242568969727,0.018408307805657387,0.01865815930068493,0.0486084409058094,-0.06092634052038193,0.5004780888557434,-0.8636026978492737,0.003354918211698532,0.0002085566520690918,0.01794534921646118,0.8338920423075882,-0.20804872181705486,-0.15784288540042876,0.4862358949903187,-0.5241509263919224,-0.07043234051092229,1.0368884885521221
1772661247550645248,0.36926937103271484,0.005207284353673458,0.018946578726172447,0.04301180690526962,-0.06055016070604324,0.5004175305366516,-0.8636642694473267,-0.000271383672952652,-0.0038965344429016113,0.01440584659576416,0.833804104992295,-0.20808337816495204,-0.15769967436659577,0.48641826080954,-0.5240809907939445,-0.06999392271592973,1.0374269840928527
1772661247560682240,0.3793063163757324,-0.019129658117890358,0.00903829000890255,0.05290571600198746,-0.06022027134895325,0.5005283355712891,-0.8636230826377869,-0.00336311012506485,-0.005991041660308838,0.010153234004974365,0.8336906066355448,-0.2081875646299855,-0.1576273773722407,0.48659164033071634,-0.5242089833967608,-0.06961711969477712,1.0379521755683336
1772661247570720512,0.3893444538116455,-0.02605334483087063,0.008230818435549736,0.06598423421382904,-0.05988767743110657,0.5007467269897461,-0.8635196685791016,-0.0005828961730003357,-0.004240989685058594,0.017267227172851562,0.8335313566219316,-0.20833376936895706,-0.15759826732220553,0.4868114254392466,-0.5244612436048735,-0.06924212540038593,1.0386033054242516
1772661247580757504,0.3993813991546631,-0.01592099294066429,-0.005964894779026508,0.05604611709713936,-0.05958332493901253,0.5009589195251465,-0.8634176254272461,0.006986290216445923,-0.006680965423583984,0.021819114685058594,0.8333631652995606,-0.20846683908081484,-0.15758411901319747,0.4870469448167107,-0.5247063690586063,-0.06889946414371112,1.039283480414331
1772661247590795264,0.40941929817199707,-0.002063233871012926,-0.0107620470225811,0.052099842578172684,-0.05939975753426552,0.5010910034179688,-0.8633536696434021,0.008923690766096115,-0.00563812255859375,0.0145072340965271,0.8332159922820577,-0.20853448293840607,-0.1575961387328046,0.4872659045823185,-0.5248589924122654,-0.06869293876797145,1.0398790111322338
1772661247600831488,0.41945552825927734,0.0193183533847332,-0.013629073277115822,0.06274595856666565,-0.05923466756939888,0.5010926723480225,-0.863364040851593,0.00552373006939888,0.012823343276977539,0.006644070148468018,0.8330694411583213,-0.20852970212946303,-0.15758602299305602,0.48752175831117356,-0.5248609480712068,-0.0685017943046915,1.040541287253836
1772661247610868480,0.4294924736022949,0.05373677983880043,-0.008188767358660698,0.07031280547380447,-0.05898681655526161,0.5007831454277039,-0.8635605573654175,0.00620666891336441,0.025217831134796143,0.0047959089279174805,0.8329405715765632,-0.20838943094692586,-0.15745976191169925,0.4878424763898799,-0.5245033084916118,-0.0682005831467773,1.0413435948377383
1772661247620906240,0.4395303726196289,0.03744378313422203,-0.006412838585674763,0.07908777892589569,-0.058685604482889175,0.5004010796546936,-0.8638024926185608,0.005035705864429474,0.02173936367034912,-0.0027898550033569336,0.8328040470360645,-0.20822259825271122,-0.15729623145551175,0.4881993419135053,-0.5240619629722266,-0.0678344462545929,1.0422388846527644
1772661247630943488,0.4495675563812256,0.021761227399110794,-0.0032135830260813236,0.09704840928316116,-0.058296192437410355,0.50022292137146,-0.8639320731163025,0.0019607655704021454,0.011678934097290039,0.00605243444442749,0.8326142009165038,-0.2081673242614251,-0.15716340450249075,0.4885895843714299,-0.5238562302115888,-0.06737561522997285,1.0432661088638102
1772661247640980480,0.45960450172424316,0.016662027686834335,0.0032713469117879868,0.11095743626356125,-0.057796552777290344,0.5001283884048462,-0.8640203475952148,-0.0011481493711471558,0.004327178001403809,0.0024938583374023438,0.8323796151259452,-0.208169488808573,-0.15702002502250925,0.48903416537744676,-0.5237470359321618,-0.06679307536516965,1.0444665673387552
1772661247651018496,0.46964240074157715,0.028277406468987465,0.013194551691412926,0.11631997674703598,-0.057159412652254105,0.49999383091926575,-0.8641405701637268,-0.0076446495950222015,0.010534733533859253,-0.005198359489440918,0.8321326524512285,-0.20818213900790838,-0.15681166956043174,0.4895155957211577,-0.5235916473382968,-0.06604974815916075,1.0457904754269076
1772661247661055232,0.4796793460845947,0.052516788244247437,0.02755165286362171,0.13751021027565002,-0.05635742470622063,0.4997158348560333,-0.8643540740013123,-0.013375256210565567,0.028131425380706787,-0.012950003147125244,0.8318804575391312,-0.20816096316899196,-0.15649917266547894,0.4900529330426086,-0.5232706774163998,-0.06510962200830649,1.0472780866835345
1772661247671092480,0.4897165298461914,0.10484203696250916,0.04087970778346062,0.17188230156898499,-0.05530023202300072,0.49912720918655396,-0.8647623658180237,-0.011334918439388275,0.05130305886268616,-0.011900842189788818,0.8316064078842755,-0.20803731006130377,-0.15601059964306507,0.4907259144541701,-0.5225912557622494,-0.06386151475022765,1.049125016861649
1772661247681130496,0.4997544288635254,0.16471318900585175,0.058507438749074936,0.20082128047943115,-0.053916215896606445,0.49806466698646545,-0.8654621243476868,-0.013970144093036652,0.07029467821121216,-0.013764560222625732,0.8313286636964191,-0.20775162649107234,-0.1552682008954927,0.4915523380239899,-0.5213654735666732,-0.06221720083419489,1.05137225460938
1772661247691167232,0.509791374206543,0.20091433823108673,0.0786726251244545,0.24551737308502197,-0.05222553759813309,0.4965965449810028,-0.8664088845252991,-0.017537634819746017,0.08567884564399719,-0.017197072505950928,0.8310215204807785,-0.2073278770019836,-0.1543071783224133,0.49255227727187667,-0.519673259131192,-0.06020531519226882,1.054069690142085
1772661247701205504,0.519829511642456,0.24460700154304504,0.09209136664867401,0.30452755093574524,-0.05011963099241257,0.4948361814022064,-0.8675397038459778,-0.017415780574083328,0.09773889183998108,-0.005003631114959717,0.8306320629970216,-0.2068382649816621,-0.15312764137189874,0.4937815236616973,-0.5176463140928541,-0.05770799936665044,1.057396259685649
1772661247711242496,0.5298664569854736,0.3090914487838745,0.1096075102686882,0.3641189932823181,-0.04761868715286255,0.49254441261291504,-0.8689835667610168,-0.020466040819883347,0.11254286766052246,-0.0025526881217956543,0.8301693326378705,-0.2061603782260569,-0.15167768962400552,0.4952883017467255,-0.5150109949485867,-0.05474339218118133,1.061427675816581
1772661247721279488,0.5399034023284912,0.3386208713054657,0.11838089674711227,0.4401036500930786,-0.04464472085237503,0.48987358808517456,-0.8706495761871338,-0.019518479704856873,0.14538031816482544,0.005842447280883789,0.8295995686719515,-0.20538688543937522,-0.14997143066317856,0.4970807796392605,-0.5119447293064755,-0.05123261375507919,1.0662239548104573
1772661247731317504,0.5499415397644043,0.39155253767967224,0.11999823153018951,0.5400515198707581,-0.04118752479553223,0.48692917823791504,-0.8724698424339294,-0.013118505477905273,0.19022539258003235,0.03847020864486694,0.8288364724758451,-0.204553978403172,-0.14806336048773316,0.4992645565821434,-0.5085705132518747,-0.04717294195561774,1.0720548668455832
1772661247741354496,0.5599784851074219,0.4814777970314026,0.12656638026237488,0.6256316900253296,-0.03727222979068756,0.4833306074142456,-0.8746441006660461,-0.0036976076662540436,0.207160085439682,0.05395013093948364,0.8279076617832872,-0.20347683454102888,-0.14585996056796197,0.5018874202349113,-0.5044552522923931,-0.0425884008486336,1.0789717809195105
1772661247751391488,0.5700154304504395,0.5300517082214355,0.12199826538562775,0.719899594783783,-0.03294455260038376,0.4791150391101837,-0.8771336674690247,-0.008696690201759338,0.20641657710075378,0.05772143602371216,0.8268219214907758,-0.2021746616330798,-0.14338265230023817,0.5049081946778643,-0.4996462190989261,-0.037541684846308696,1.0868637555226073
1772661247761429248,0.5800533294677734,0.6077392101287842,0.11144096404314041,0.8441964983940125,-0.02818264812231064,0.4743693470954895,-0.8798747062683105,-0.011947961524128914,0.230815589427948,0.06940412521362305,0.8254874773101283,-0.20068191148813386,-0.14067488654114255,0.5084366240147449,-0.49424749786558764,-0.03201934946752197,1.096012136990466
1772661247771466496,0.5900905132293701,0.759437084197998,0.11107610911130905,0.9695706963539124,-0.022897595539689064,0.46859320998191833,-0.8831172585487366,-0.01798069290816784,0.26468315720558167,0.05129963159561157,0.8239151406897212,-0.19878982074464066,-0.13756443638857913,0.5125645962442399,-0.4876976525857323,-0.025922340489841766,1.1065848124516642
1772661247781504512,0.6001284122467041,0.9468782544136047,0.11580640822649002,1.0830016136169434,-0.017098236829042435,0.46123477816581726,-0.8871133327484131,-0.044409945607185364,0.28823113441467285,0.01638585329055786,0.8221796018556837,-0.19626447506245592,-0.13387896950067688,0.5172787352529703,-0.4793863497464736,-0.01927162964083592,1.1184537243655375
1772661247791541248,0.6101653575897217,1.1611263751983643,0.1350024789571762,1.1822706460952759,-0.010773704387247562,0.45201462507247925,-0.891945481300354,-0.08140464127063751,0.29539138078689575,-0.009894728660583496,0.821951591221278,-0.19341579963346864,-0.1289092629933733,0.5199695261610641,-0.4690225719685199,-0.012078294993714178,1.1252111510635252
1772661247801578496,0.6202025413513184,1.4357333183288574,0.16546106338500977,1.2755305767059326,-0.003924260847270489,0.4404672682285309,-0.8977600932121277,-0.12119781970977783,0.2915426194667816,-0.037100136280059814,0.8200640540007366,-0.18924854947699943,-0.12371314215758876,0.5257137811306332,-0.4561190894732807,-0.004371140791600141,1.1391211682132965
1772661247811616512,0.6302404403686523,1.7449363470077515,0.20425665378570557,1.3520081043243408,0.0034792819060385227,0.42610254883766174,-0.9046681523323059,-0.16049222648143768,0.28689485788345337,-0.05788677930831909,0.8181733566956757,-0.18400919940185298,-0.1175012085507064,0.5319081845670546,-0.4401802699975336,0.0038459016900384588,1.1537748074994276
1772661247821653248,0.6402773857116699,2.1172399520874023,0.24384866654872894,1.3988617658615112,0.011309552006423473,0.4084058403968811,-0.9127303957939148,-0.19397251307964325,0.2915605902671814,-0.061268627643585205,0.8163575131036823,-0.17749220929595733,-0.11014225016544726,0.5384474615763433,-0.4207069147708207,0.012390267122537242,1.1687967342127983
1772661247831690240,0.6503143310546875,2.4981133937835693,0.306062251329422,1.42816162109375,0.01947966031730175,0.3869284987449646,-0.9219039678573608,-0.2200869768857956,0.3009835183620453,-0.06500399112701416,0.8146687459754817,-0.16953985628908225,-0.10150993957856862,0.5452216807852132,-0.3972982895318619,0.021126672085604276,1.1838386191432047
1772661247841728512,0.6603524684906006,2.8528237342834473,0.3604859411716461,1.4588572978973389,0.0279979445040226,0.36165550351142883,-0.9318913221359253,-0.2415446937084198,0.30208659172058105,-0.05446732044219971,0.8130701172844267,-0.16021094893767843,-0.09157943177678324,0.5521437369103227,-0.37004296540881704,0.03003518246785367,1.198723360005928
1772661247851765504,0.6703894138336182,3.1401283740997314,0.4314194917678833,1.4787828922271729,0.036844342947006226,0.33296433091163635,-0.9422193169593811,-0.2566166818141937,0.29011303186416626,-0.017482221126556396,0.8114765880266505,-0.14972211518439013,-0.08045887030353406,0.5591202112911435,-0.3394455636899365,0.03908387269334671,1.2133305563688577
1772661247861803520,0.6804275512695312,3.3054676055908203,0.48245540261268616,1.4904146194458008,0.04591069370508194,0.30164575576782227,-0.952314019203186,-0.26734623312950134,0.26209020614624023,0.024686455726623535,0.8097956120043814,-0.13842966889216296,-0.06841202166223888,0.5660282445035414,-0.30641833783383693,0.04817231962200507,1.2275177061210587
1772661247871840512,0.6904644966125488,3.3771378993988037,0.5228424668312073,1.4891788959503174,0.055021967738866806,0.26875248551368713,-0.961636483669281,-0.2810046374797821,0.20745903253555298,0.090542733669281,0.8079129069283801,-0.1267538551736233,-0.05581426820532447,0.5727956123672684,-0.2720976340807383,0.05715469999192145,1.2412834499870735
1772661247881877504,0.7005014419555664,3.3163223266601562,0.5302577018737793,1.4472302198410034,0.06385570019483566,0.23536570370197296,-0.9698069095611572,-0.31004101037979126,0.13263051211833954,0.15948891639709473,0.8058298267531613,-0.11506392122106626,-0.043091046648777165,0.5792597690458061,-0.23759482040942662,0.06574881884522134,1.2543631833647018
1772661247891915264,0.7105393409729004,3.16256046295166,0.5561265349388123,1.4051461219787598,0.07229973375797272,0.20272766053676605,-0.9765624403953552,-0.353595495223999,0.08532772958278656,0.2178497314453125,0.8035440078110888,-0.10382621094190604,-0.030641245598126008,0.585319006434279,-0.20414262846726428,0.07390010404175434,1.2666677912880064
1772661247901952512,0.7205765247344971,2.998821258544922,0.608660876750946,1.3800485134124756,0.08062925189733505,0.1714000701904297,-0.9818965792655945,-0.38545408844947815,0.07536505162715912,0.26323819160461426,0.8010319015395374,-0.09331962290049128,-0.01852419628162421,0.5910128853114913,-0.1722505914241468,0.08193200407660184,1.2783911065998137
1772661247911989504,0.7306134700775146,2.865163803100586,0.6444811820983887,1.3645702600479126,0.08898988366127014,0.14131909608840942,-0.9859562516212463,-0.39553895592689514,0.07913987338542938,0.28562361001968384,0.7982821453175211,-0.08353073023116811,-0.006670502057365363,0.5964258274487511,-0.14179376144847997,0.09001353775256125,1.289728775790261
1772661247922027264,0.7406513690948486,2.765580415725708,0.6667352318763733,1.3577743768692017,0.09723375737667084,0.11215564608573914,-0.9889219999313354,-0.38478565216064453,0.07308605313301086,0.30383288860321045,0.7953088300899962,-0.07425932528498529,0.004955424508066373,0.601618501861832,-0.11239211733528068,0.09800795890274716,1.3007619373889603
1772661247932064512,0.7506885528564453,2.6480906009674072,0.6775098443031311,1.3499023914337158,0.10525106638669968,0.08387860655784607,-0.9909018874168396,-0.3652760982513428,0.04881182312965393,0.3216666579246521,0.7921191206934042,-0.06544278149011631,0.016318348913235102,0.606628535330543,-0.08397727390485933,0.10582067472405049,1.3115610134570777
1772661247942101504,0.7607254981994629,2.485703468322754,0.6671929955482483,1.3541650772094727,0.11288751661777496,0.056849971413612366,-0.9919800758361816,-0.34688103199005127,0.016605835407972336,0.34642648696899414,0.788703673143787,-0.05716367317715099,0.027244672646595587,0.611503494979672,-0.056880639968419786,0.11331271298823793,1.322255982991953
1772661247952139264,0.7707633972167969,2.3186099529266357,0.6292973160743713,1.3683346509933472,0.1199653297662735,0.03137070685625076,-0.9922823309898376,-0.3262489140033722,-0.008314672857522964,0.37747520208358765,0.7850447325169633,-0.04947291475141324,0.03756690109704381,0.6163163940227478,-0.03137585592878757,0.12031446642100657,1.3330334870962954
1772661247962176256,0.7808003425598145,2.2073235511779785,0.575533390045166,1.3895031213760376,0.12621991336345673,0.007178131956607103,-0.9919763207435608,-0.3010398745536804,-0.031317535787820816,0.3983178734779358,0.7811580761270328,-0.04217116682435706,0.04725923299290548,0.6211121028376052,-0.00717819356799073,0.12656075576483958,1.3439677377221453
1772661247972214528,0.7908384799957275,2.131287097930908,0.5199769139289856,1.411070704460144,0.13158512115478516,-0.016222689300775528,-0.9911721348762512,-0.27349185943603516,-0.05430343747138977,0.4028695225715637,0.7770540459510066,-0.03503241155341584,0.056450571387947665,0.6259178728221348,0.016223400505157876,0.1319852994247414,1.3551004417527226
1772661247982251520,0.8008754253387451,2.0417912006378174,0.4615614116191864,1.4493365287780762,0.13605083525180817,-0.03891821950674057,-0.9899371266365051,-0.24815715849399567,-0.07717065513134003,0.4041216969490051,0.7727324427115716,-0.028011698967709983,0.06516727575073246,0.6307561250352635,0.038928050666117237,0.13657820474367197,1.366500391118764
1772661247992288256,0.8109123706817627,1.875243902206421,0.4227016270160675,1.5309072732925415,0.13967707753181458,-0.06046861782670021,-0.9883490800857544,-0.22659114003181458,-0.10640150308609009,0.4058600664138794,0.7680956333638758,-0.021302516360135203,0.07329170301977014,0.6357701662599091,0.06050552771807531,0.14039389660557475,1.3785803181407625
1772661248002326528,0.8209505081176758,1.6493306159973145,0.3939323127269745,1.6284643411636353,0.14258520305156708,-0.08021693676710129,-0.986526608467102,-0.19977514445781708,-0.13891452550888062,0.41172802448272705,0.7630345847467482,-0.015205773237445113,0.08065662898674163,0.6411252150718922,0.08030321495581447,0.14353856816064106,1.3918140597638191
1772661248012363520,0.8309874534606934,1.3645273447036743,0.3365609049797058,1.7299669981002808,0.14473600685596466,-0.09757388383150101,-0.9846475720405579,-0.18009062111377716,-0.1769164800643921,0.40226536989212036,0.7575456179919065,-0.009931017969146647,0.08704936301809124,0.6468759520987362,0.09772937598099536,0.14594752938285288,1.40636960566839
1772661248022400256,0.8410243988037109,1.0487487316131592,0.23887361586093903,1.8194409608840942,0.14568988978862762,-0.11204998940229416,-0.9829645156860352,-0.15901081264019012,-0.20560747385025024,0.38037967681884766,0.7516713105973365,-0.005505802648109608,0.09212722206706428,0.6530485642722598,0.11228579547104547,0.14714357762189728,1.4223253735347503
1772661248032438528,0.851062536239624,0.7919186353683472,0.11909954994916916,1.884931206703186,0.1452420949935913,-0.12376545369625092,-0.9816246032714844,-0.1385892778635025,-0.2143845558166504,0.3467369079589844,0.7462636028794686,-0.001670958732105396,0.09583794313386819,0.65871305182047,0.12408362561336143,0.1468951674340955,1.4371862959616213
1772661248042475520,0.8610994815826416,0.6440134048461914,0.03846781700849533,1.9519368410110474,0.14350402355194092,-0.13354337215423584,-0.9805981516838074,-0.1180218756198883,-0.20431672036647797,0.29424262046813965,0.7398619279166716,0.0016663099402564976,0.09847913227638715,0.6655100068121729,0.13394352595516024,0.14531186621821401,1.455320544346212
1772661248052513280,0.8711373805999756,0.5675101280212402,-0.054409392178058624,2.027040958404541,0.14065127074718475,-0.14230962097644806,-0.9797781109809875,-0.09612612426280975,-0.19117122888565063,0.22460538148880005,0.7331705298123197,0.004919450832264979,0.10043271683511554,0.6725697907705338,0.14279438953620496,0.14258010562793508,1.4744164204117138
1772661248062550272,0.8811743259429932,0.5754727721214294,-0.18082872033119202,2.0421407222747803,0.1364898383617401,-0.15069709718227386,-0.9791123270988464,-0.0794067233800888,-0.17124809324741364,0.17392128705978394,0.727005825553291,0.008530739673119512,0.10183846298795908,0.678983674981604,0.15127339041240973,0.13850902001513193,1.4919990949096618
1772661248072587520,0.8912115097045898,0.7008379101753235,-0.30244436860084534,1.9658797979354858,0.1309840977191925,-0.15958181023597717,-0.9784563183784485,-0.0885646790266037,-0.15386421978473663,0.13459956645965576,0.7209329412495921,0.012787210387951563,0.10299668654609588,0.6851888823552773,0.16026702112613903,0.13307692967422036,1.5092640798188726
1772661248082625280,0.9012494087219238,0.9007450342178345,-0.3673732876777649,1.8902771472930908,0.12445762008428574,-0.1698773056268692,-0.9775745272636414,-0.11638572067022324,-0.1298205554485321,0.09708142280578613,0.7150701578175526,0.017938989968261286,0.10435955460973982,0.6909862264951402,0.17070516055989798,0.12663142311114164,1.5256932411060926
1772661248092662272,0.9112863540649414,1.1744751930236816,-0.42431914806365967,1.8403178453445435,0.11730863898992538,-0.18224622309207916,-0.9762299656867981,-0.13825896382331848,-0.09615036845207214,0.07236039638519287,0.7093541286469967,0.02407960688244319,0.10632580074082515,0.6963704239775307,0.1832704511594183,0.11959154242842196,1.5413217082914528
1772661248102699520,0.9213235378265381,1.498550534248352,-0.45658254623413086,1.756535291671753,0.10950339585542679,-0.1973651498556137,-0.9741950631141663,-0.1566683053970337,-0.06877864897251129,0.04166942834854126,0.7037297057942514,0.03145273768653196,0.10914759791829363,0.7013287349191566,0.19866946782652264,0.11193413648971567,1.556211474284462
1772661248112737536,0.9313614368438721,1.777379035949707,-0.4244445562362671,1.6444319486618042,0.10165555030107498,-0.21521776914596558,-0.9712607860565186,-0.18683010339736938,-0.06253796815872192,0.026268720626831055,0.698281196564576,0.03984387304022185,0.11305788639096047,0.7057150848389246,0.2169148163985037,0.10428381273826862,1.5700207830918123
1772661248122774272,0.9413983821868896,1.9723361730575562,-0.38605111837387085,1.6010386943817139,0.09408033639192581,-0.23507876694202423,-0.9674124717712402,-0.19732129573822021,-0.06490902602672577,0.020543575286865234,0.6923520995588869,0.048766269158045016,0.1179644972285514,0.710179358950692,0.23729959779256968,0.09694461056137813,1.5846507523855624
1772661248132811264,0.9514353275299072,2.113635301589966,-0.3642491400241852,1.6080513000488281,0.08646931499242783,-0.2563352882862091,-0.9627124667167664,-0.16639484465122223,-0.061627358198165894,0.007695376873016357,0.6863001691305713,0.058159533289704836,0.12353639385442433,0.7143865921305992,0.25922888930429056,0.0895780530259566,1.5992108834497674
1772661248142849536,0.9614734649658203,2.2279889583587646,-0.32959797978401184,1.6080576181411743,0.07880505919456482,-0.27859970927238464,-0.957168698310852,-0.14615735411643982,-0.06481456756591797,-0.025588810443878174,0.6800510779415913,0.0678774398217036,0.12964680154161887,0.7184112738965648,0.2823357729474382,0.0821461444177001,1.6139624810564686
1772661248152886272,0.9715104103088379,2.291046619415283,-0.2538241147994995,1.6080634593963623,0.07127474248409271,-0.3014639914035797,-0.9508098363876343,-0.1599130630493164,-0.0837441086769104,-0.06518131494522095,0.67361053752576,0.07770655614759736,0.13622322534743805,0.7222560147218107,0.3062277118565504,0.07482220359833781,1.6289154842643543
1772661248162924544,0.981548547744751,2.2822320461273193,-0.14703786373138428,1.6354950666427612,0.06427401304244995,-0.3243676424026489,-0.9437448978424072,-0.17781466245651245,-0.11804565787315369,-0.1044270396232605,0.6669137948360513,0.08728580955773028,0.14320868580527088,0.7260153880119586,0.3303431462130687,0.06800027640197491,1.6442655526167336
1772661248172961536,0.9915854930877686,2.192934036254883,-0.05427809804677963,1.7094979286193848,0.05772138014435768,-0.34654170274734497,-0.9362569451332092,-0.1735355705022812,-0.15261906385421753,-0.13733619451522827,0.6598583503078025,0.09634008433738941,0.15030008067926917,0.7298734874140521,0.3538818367627637,0.061573284807022045,1.6604583730595117
1772661248182998528,1.0016224384307861,2.0772438049316406,0.02308473363518715,1.8081108331680298,0.05124637484550476,-0.3674618601799011,-0.9286256432533264,-0.14945194125175476,-0.17451506853103638,-0.15662521123886108,0.6523344982649236,0.10478582985574003,0.15718494684619178,0.734011225293466,0.3762784687582576,0.055129264739462225,1.6779917990592332
1772661248193036288,1.0116603374481201,2.00826358795166,0.0910446047782898,1.855007529258728,0.04481852799654007,-0.38730159401893616,-0.9208630323410034,-0.12730754911899567,-0.19332581758499146,-0.1845293641090393,0.6443862273865454,0.11269878383810981,0.16391295035804232,0.7383751770557062,0.39770295232036373,0.048631756768719475,1.6967295060158871
1772661248203073536,1.0216975212097168,1.9356435537338257,0.1362316608428955,1.8014649152755737,0.038548506796360016,-0.4062342643737793,-0.9129555225372314,-0.12483695894479752,-0.2130894660949707,-0.21553874015808105,0.636312485963899,0.12016089299971726,0.17053917630413354,0.7426871694863366,0.41832917125172164,0.042198796326844736,1.7158107431635412
1772661248213110528,1.0317344665527344,1.8373849391937256,0.18712733685970306,1.6607344150543213,0.03277204558253288,-0.4240747392177582,-0.9050340056419373,-0.14033125340938568,-0.23051202297210693,-0.21337413787841797,0.6285159359164934,0.12706783874792066,0.1770219048617494,0.746648926914444,0.4379399774762708,0.03619502941722626,1.7341290353709922
1772661248223148288,1.0417723655700684,1.738303542137146,0.28909778594970703,1.4882450103759766,0.028085025027394295,-0.44071534276008606,-0.8972074389457703,-0.15175752341747284,-0.23819392919540405,-0.17716383934020996,0.6212212137135446,0.13320337504305554,0.18344790641466244,0.7501252769564188,0.4563954321422903,0.031292492196623785,1.7509738727745372
1772661248233185536,1.051809549331665,1.658113956451416,0.30949971079826355,1.3611128330230713,0.0244587454944849,-0.45631933212280273,-0.8894798755645752,-0.12968336045742035,-0.22533655166625977,-0.1295630931854248,0.6144365146312342,0.1386405717377835,0.1898390182706456,0.7531320060803575,0.4738543630715714,0.027490879064658438,1.7663020457808631
1772661248243223552,1.061847448348999,1.6011221408843994,0.34439125657081604,1.3434101343154907,0.021048765629529953,-0.47106531262397766,-0.8818471431732178,-0.07920002192258835,-0.20778292417526245,-0.09402871131896973,0.6078747569445226,0.143708559916043,0.19602107913245,0.7559179699631868,0.4904981051097986,0.02386441843943034,1.7810815901683505
1772661248253260288,1.0718843936920166,1.6665637493133545,0.36515432596206665,1.3452296257019043,0.017738958820700645,-0.4856640696525574,-0.8739655017852783,-0.0398031622171402,-0.17952755093574524,-0.0652739405632019,0.6012116170426859,0.1486310786465361,0.20230187268860578,0.7586351247277748,0.5071226923449432,0.020294305288953613,1.7960421930772168
1772661248263297280,1.0819213390350342,1.7288271188735962,0.3428519368171692,1.3537861108779907,0.014151164330542088,-0.5007337331771851,-0.865485668182373,-0.04627091810107231,-0.13796865940093994,-0.06159257888793945,0.5944148099756867,0.15377861345734922,0.20882839142617637,0.761192364711046,0.5244462154000867,0.016349090242696027,1.8112336235963262
1772661248273335552,1.0919594764709473,1.7075889110565186,0.3662765622138977,1.4176490306854248,0.010165870189666748,-0.515792965888977,-0.8566529154777527,-0.07764022052288055,-0.08299243450164795,-0.049536049365997314,0.5873892649881435,0.15899966704254984,0.21538950588663294,0.7637408973751495,0.5419329570063806,0.011866407925651277,1.827075381153157
1772661248283372288,1.1019964218139648,1.6823985576629639,0.339391827583313,1.5323293209075928,0.005432096775621176,-0.5303791761398315,-0.8477431535720825,-0.09819028526544571,-0.03479117155075073,-0.01942908763885498,0.5799753498976036,0.1642236848307958,0.22171829127333942,0.7664856345979564,0.5590477381933946,0.006407627283129838,1.844243167047409
1772661248293409280,1.1120333671569824,1.714743971824646,0.3941546678543091,1.6920084953308105,-0.0002332200383534655,-0.5447607636451721,-0.8385915160179138,-0.08828303962945938,-0.022515296936035156,0.0020284056663513184,0.5719450101474642,0.16956055745797277,0.2279330129596745,0.7695289599711009,0.5761037745548443,-0.0002781092274203811,1.8633534169446364
1772661248303447552,1.1220715045928955,1.7568174600601196,0.4626923203468323,1.7564648389816284,-0.006216736044734716,-0.5592516660690308,-0.8289746642112732,-0.053429871797561646,-0.02970707416534424,-0.008168280124664307,0.5632044471809391,0.1748397992701333,0.23440077088813474,0.7728441986446709,0.5934828167692873,-0.0074991671111322164,1.8843718647801726
1772661248313484544,1.132108449935913,1.8496192693710327,0.46698907017707825,1.6338486671447754,-0.012103748507797718,-0.5739083886146545,-0.8188300728797913,-0.030437763780355453,-0.04520171880722046,-0.01710742712020874,0.5544585500803801,0.1801154803730884,0.24112938525489888,0.7758806916529676,0.6112705541371698,-0.014780682060403564,1.9053170969460342
1772661248323521280,1.1421453952789307,2.045910120010376,0.5898808836936951,1.5135936737060547,-0.01692904904484749,-0.5896087288856506,-0.8075116276741028,-0.03110562078654766,-0.07501834630966187,-0.05058163404464722,0.5458543419306418,0.1853470003684899,0.2487783886024754,0.7783308501469055,0.6305743102383762,-0.020961395382668127,1.9252152445029802
1772661248333559552,1.1521835327148438,2.125032424926758,0.5198626518249512,1.3239693641662598,-0.02093551866710186,-0.6061515212059021,-0.7950736284255981,-0.008712314069271088,-0.08607864379882812,-0.08313071727752686,0.537616178691316,0.1906372830171056,0.25713929808734276,0.7800678029053617,0.6512129244383066,-0.026325465249543233,1.9436111136858318
1772661248343596544,1.1622204780578613,2.109433650970459,0.47485673427581787,1.182189702987671,-0.02474125102162361,-0.6226522922515869,-0.782107412815094,-0.03240292891860008,-0.12127470970153809,-0.026867806911468506,0.5300268341502531,0.1960307711256226,0.2655526689501895,0.7811052565350093,0.6721276894404015,-0.031623536101029276,1.960257467417833
1772661248353634304,1.1722583770751953,2.0363376140594482,0.5179125666618347,1.1637049913406372,-0.028325505554676056,-0.6385114789009094,-0.7690908908843994,-0.08075959980487823,-0.18003100156784058,0.039064645767211914,0.522714207153756,0.20118002294021428,0.27382685634256654,0.7818666005501427,0.6925625661316511,-0.0368132142965371,1.976271140390131
1772661248363671296,1.182295322418213,1.9176034927368164,0.6059372425079346,1.1690316200256348,-0.03159954771399498,-0.6533103585243225,-0.7564305067062378,-0.11166523396968842,-0.2159828543663025,0.09949386119842529,0.5153111618300429,0.20575369955839706,0.28186906581374976,0.7827322193267935,0.7119487034358194,-0.04175028142774805,1.992673495977871
1772661248373708544,1.1923325061798096,1.7992180585861206,0.6784902215003967,1.1212295293807983,-0.03436451405286789,-0.6669130921363831,-0.7443426847457886,-0.12225167453289032,-0.23604100942611694,0.14012515544891357,0.507930806466011,0.20963599121847995,0.28962289237890426,0.7836948521119967,0.7300583244949468,-0.04613484243647071,2.0091165730763043
1772661248383746304,1.2023704051971436,1.7068873643875122,0.7189995050430298,1.0251824855804443,-0.03644793480634689,-0.6795236468315125,-0.7327476739883423,-0.0991416722536087,-0.24804288148880005,0.15241014957427979,0.500810175965209,0.21290382356356322,0.2971499889132389,0.7845782287528567,0.7471131227985263,-0.049700487732237494,2.0248390029100465
1772661248393783296,1.2124073505401611,1.5940263271331787,0.7105383276939392,0.9426872730255127,-0.03799932822585106,-0.6912177801132202,-0.7216467261314392,-0.05205804109573364,-0.2515007257461548,0.1567053198814392,0.494072534031905,0.21569644869882004,0.3043873834556146,0.7853124620907131,0.7631728825596431,-0.05260782511742745,2.039562141261452
1772661248403820544,1.2224445343017578,1.4249675273895264,0.6813887357711792,0.8970342874526978,-0.0394294299185276,-0.7017402648925781,-0.7113409042358398,0.0004890076816082001,-0.2497062087059021,0.17465883493423462,0.48773931297618,0.21810819660565012,0.31106005317021185,0.7859903184134416,0.7778372739359607,-0.055373057061478576,2.0535158290975306
1772661248413858304,1.2324824333190918,1.21183443069458,0.649050772190094,0.8797450661659241,-0.041001755744218826,-0.7107678055763245,-0.70223069190979,0.03193804994225502,-0.24679744243621826,0.19214469194412231,0.4817306932844677,0.22009870433381018,0.31692461133548305,0.7867978608978037,0.7905891440411599,-0.05832165322490387,2.0671517619013597
1772661248423895296,1.2425193786621094,0.9574103355407715,0.6040208339691162,0.8501092791557312,-0.04285202920436859,-0.718014121055603,-0.6947081685066223,0.03995285928249359,-0.24724161624908447,0.19707328081130981,0.47610902742944566,0.2216387819145766,0.32174860884093087,0.7878288711244547,0.8009449684504236,-0.06160544168155721,2.0804849290130525
1772661248433933568,1.2525575160980225,0.6852840185165405,0.5753814578056335,0.8196610808372498,-0.04482980817556381,-0.7233422994613647,-0.689032793045044,0.025283288210630417,-0.24842888116836548,0.19876796007156372,0.4709292264672553,0.22262446743626374,0.3254565133196821,0.7891400706877765,0.8086305883263549,-0.06497036384632147,2.0933295259731444
1772661248443970560,1.26259446144104,0.4092439115047455,0.5783929824829102,0.7971826791763306,-0.04673568159341812,-0.7267518639564514,-0.6853083372116089,0.008466619998216629,-0.2561277747154236,0.1931666135787964,0.4661747813902729,0.22295687938540837,0.3280793408269948,0.7907814095538744,0.8135813161554079,-0.06809114429398555,2.1055935331443436
1772661248454007296,1.2726314067840576,0.17517924308776855,0.5865055322647095,0.7868783473968506,-0.04854943975806236,-0.7283348441123962,-0.683499276638031,0.003902226686477661,-0.2692389488220215,0.17239093780517578,0.4617346598503207,0.22262442123241624,0.3296797418840956,0.7928118712742784,0.8158887096417144,-0.07091161558176126,2.117492745656544
1772661248464045568,1.2826695442199707,-0.04802677407860756,0.5410037636756897,0.7215635180473328,-0.0502186194062233,-0.7284355759620667,-0.6832713484764099,0.011049296706914902,-0.28665536642074585,0.1360301375389099,0.4576859549503427,0.22178405186935002,0.3304181481084322,0.7950844690891398,0.8160357070298184,-0.0733654137945548,2.128681534871649
1772661248474082560,1.2927064895629883,-0.3213169276714325,0.5097659826278687,0.6422721743583679,-0.05159879848361015,-0.7267839908599854,-0.6849252581596375,0.008691113442182541,-0.28218817710876465,0.13321322202682495,0.4543119288117053,0.22038873286818642,0.3301002630648265,0.7975357220821347,0.8136280894376534,-0.07519290255649246,2.1384012706070865
1772661248484119296,1.3027434349060059,-0.4469635486602783,0.45668983459472656,0.5849323272705078,-0.05273834988474846,-0.7237585783004761,-0.6880350708961487,0.014545585960149765,-0.2534753084182739,0.16304117441177368,0.45147299452791,0.21857030394951876,0.3289521019434757,0.8001185959025908,0.8092336536471622,-0.07650107963036837,2.1469198876501623
1772661248494157312,1.3127813339233398,-0.5011698007583618,0.4029749631881714,0.5163623094558716,-0.05377765744924545,-0.7201634645462036,-0.6917170286178589,0.018682468682527542,-0.2193658947944641,0.14861100912094116,0.44907677169620025,0.21668599640270153,0.32739677725828864,0.8026135475344903,0.8040379086431089,-0.07758909214924964,2.154352367192795
1772661248504194560,1.3228185176849365,-0.5302774906158447,0.37136682868003845,0.4671967923641205,-0.054619159549474716,-0.7162989377975464,-0.6956527233123779,0.006019894033670425,-0.1874943971633911,0.13827967643737793,0.4470170045149128,0.21476413427766383,0.32565320474172427,0.8049858986206435,0.7984837931774719,-0.0783542364813295,2.1608421337066575
1772661248514232320,1.3328564167022705,-0.5221697688102722,0.33831220865249634,0.42470070719718933,-0.0553489588201046,-0.7123477458953857,-0.6996407508850098,0.00024946779012680054,-0.15657925605773926,0.12658166885375977,0.4451972432661822,0.21287708618836887,0.3238255253670712,0.8072297224532091,0.7928377716205062,-0.07894612324461696,2.1666446689910037
1772661248524269312,1.342893362045288,-0.5385004281997681,0.3172456622123718,0.409628689289093,-0.05601515620946884,-0.7084093689918518,-0.7035755515098572,0.0011750534176826477,-0.1375378966331482,0.10642284154891968,0.44356273550879444,0.21106169746810638,0.32197077639301075,0.8093454151453984,0.7872419763718667,-0.07944740767039786,2.1719096109607907
1772661248534306560,1.3529305458068848,-0.42944642901420593,0.3165827989578247,0.37641745805740356,-0.05656331777572632,-0.7046838998794556,-0.7072632312774658,0.02404683083295822,-0.12588250637054443,0.14262700080871582,0.4418977426358964,0.20927835543375617,0.3202670171543986,0.8113927083063808,0.7819775505142526,-0.07980506557855868,2.1771028339555456
1772661248544344320,1.3629684448242188,-0.309632807970047,0.2840622663497925,0.28106948733329773,-0.05683518201112747,-0.7019538283348083,-0.7099511623382568,0.04035569354891777,-0.12214285135269165,0.06987547874450684,0.4404878983527813,0.20784707907198055,0.3190987663395189,0.8129858579625331,0.7781370661978895,-0.07988469665729075,2.181282427184947
1772661248554381312,1.3730053901672363,-0.3531786799430847,0.29263046383857727,0.2046716809272766,-0.05639496073126793,-0.6994883418083191,-0.7124154567718506,0.03155362606048584,-0.09497576951980591,0.023175954818725586,0.43937347897368156,0.20629430646473862,0.31817438354182936,0.8143456246216416,0.774681264491092,-0.07899548641186319,2.184276106947271
1772661248564418304,1.383042335510254,-0.4647703170776367,0.29746806621551514,0.17299604415893555,-0.05567093938589096,-0.696497917175293,-0.7153959274291992,0.04355546087026596,-0.06464099884033203,0.008090019226074219,0.438555552382478,0.20453811630095703,0.3169640098471879,0.815700266578553,0.7705052969476461,-0.07766184610065678,2.186485718764952
1772661248574456576,1.393080472946167,-0.6241127848625183,0.3193177282810211,0.10822929441928864,-0.05444682762026787,-0.6924896836280823,-0.7193702459335327,0.04513896629214287,-0.07388299703598022,-0.012105584144592285,0.43802017849513303,0.20229422088440402,0.3152648465262634,0.8172046488927306,0.7649344325984163,-0.07554276352743194,2.1879344036903365
1772661248584493312,1.4031174182891846,-0.7736104130744934,0.3419681787490845,0.0008399842772632837,-0.05246482416987419,-0.6873893737792969,-0.7243916392326355,0.03412376716732979,-0.09793472290039062,-0.001285851001739502,0.4379844111109648,0.19950332350057795,0.3130536701952504,0.8187584874411921,0.7578884601442473,-0.072299807092738,2.1879817493858216
1772661248594530304,1.4131543636322021,-0.9344051480293274,0.36270809173583984,-0.08606881648302078,-0.04956231638789177,-0.6811987161636353,-0.7304189801216125,0.02215753123164177,-0.10200440883636475,0.0033987760543823242,0.4384609613959277,0.1961011097715245,0.3103785594566486,0.820342326830669,0.7493987399710277,-0.06775078583857973,2.1865387034858577
1772661248604568832,1.4231927394866943,-1.0871232748031616,0.3758658170700073,-0.11409872025251389,-0.046156615018844604,-0.6737794280052185,-0.737489640712738,0.02522154524922371,-0.0792723298072815,0.02240169048309326,0.43929814864615935,0.19219276647115638,0.3071109451269317,0.8220474683537828,0.7393116172367581,-0.06250459631249698,2.1842507283393577
1772661248614605568,1.433229684829712,-1.143209457397461,0.40017327666282654,-0.10652895271778107,-0.042537473142147064,-0.6654843091964722,-0.7451987862586975,0.04114893078804016,-0.04194366931915283,0.05612713098526001,0.44023799868535185,0.18795426246229774,0.30343666041295453,0.8238870568546903,0.7281424557684608,-0.057020170554232204,2.1818400666778213
1772661248624643584,1.443267583847046,-1.1624747514724731,0.40150609612464905,-0.11539901047945023,-0.03879619762301445,-0.6568891406059265,-0.7529884576797485,0.06098245829343796,-0.014970600605010986,0.06644976139068604,0.4411414391909001,0.18358223626549905,0.2996720663017728,0.8257654314310591,0.7166854145733967,-0.051477445314488376,2.179578629195453
1772661248634680576,1.4533045291900635,-1.2274515628814697,0.39992842078208923,-0.14489750564098358,-0.03492124006152153,-0.6478868722915649,-0.7609356641769409,0.06730039417743683,0.003142058849334717,0.0668286681175232,0.44216911786021956,0.1790962930208113,0.29573074226498475,0.827619703687168,0.7048070681671831,-0.045860319403378265,2.1770941845337113
1772661248644717568,1.4633417129516602,-1.316051959991455,0.39246198534965515,-0.15437383949756622,-0.03089894726872444,-0.6381665468215942,-0.7692780494689941,0.05905141681432724,0.013502240180969238,0.04729318618774414,0.4433383144202426,0.17439583633554734,0.2914568046125564,0.8295120178684743,0.6921144984220468,-0.04014458336866326,2.174406041255159
1772661248654755584,1.4733796119689941,-1.3574928045272827,0.3960109055042267,-0.16755647957324982,-0.026852034032344818,-0.6278056502342224,-0.7779068946838379,0.03947104513645172,0.013349473476409912,0.01894998550415039,0.44458455690551346,0.1695469055261424,0.2868804858056488,0.8314433696941498,0.6787308062106605,-0.0345046141840969,2.1717111870393597
1772661248664792576,1.4834165573120117,-1.3566163778305054,0.40180593729019165,-0.21101848781108856,-0.022561518475413322,-0.6171891689300537,-0.7864912748336792,0.009499985724687576,0.006868124008178711,-0.0083848237991333,0.4459388992943893,0.1645846700248885,0.2822520974239834,0.8332972228855471,0.6651652865476906,-0.02867842607989054,2.1687582479154592
1772661248674829824,1.4934537410736084,-1.3505505323410034,0.4484299123287201,-0.21284940838813782,-0.017848113551735878,-0.6064948439598083,-0.794887125492096,-0.014927789568901062,0.00432199239730835,-0.023930013179779053,0.4473459206603334,0.15946249950865404,0.27771955892346767,0.8350600835846186,0.6516446092416217,-0.022449872285086356,2.1655740629898115
1772661248684867584,1.5034916400909424,-1.2808244228363037,0.4571305811405182,-0.19606654345989227,-0.012989221140742302,-0.5959456562995911,-0.8029196858406067,0.0009500328451395035,0.0024550557136535645,-0.01456993818283081,0.448605177496258,0.15431277063409898,0.2733637111022412,0.8367874306231349,0.638442745588544,-0.01617607395943388,2.1627152805093712
1772661248694904576,1.51352858543396,-1.1647709608078003,0.44134390354156494,-0.23342163860797882,-0.008099900558590889,-0.5860610008239746,-0.8102264404296875,0.016797427088022232,-0.005980014801025391,-0.02191162109375,0.4498115111465785,0.14937763454346853,0.2693939797170719,0.8383213695003024,0.626188907183477,-0.009996749257999139,2.15989349048475
1772661248704942592,1.523566722869873,-1.0801186561584473,0.44679340720176697,-0.2745431065559387,-0.002979265060275793,-0.5769208073616028,-0.8167946934700012,0.013111098669469357,0.002961456775665283,-0.01842564344406128,0.4511219382966848,0.14462995499031497,0.2658662058215926,0.8395751119713205,0.614953804370313,-0.003647491835792465,2.1566362968641695
1772661248714979584,1.5336036682128906,-1.0309218168258667,0.4700377285480499,-0.27117180824279785,0.0023600170388817787,-0.5682350397109985,-0.8228628635406494,0.016454080119729042,0.03414696455001831,-0.01084679365158081,0.45244003046284037,0.1399492573013393,0.26264569500255985,0.8406719690622713,0.6043593694849374,0.0028680484307104137,2.1532390654014573
1772661248725016576,1.5436406135559082,-0.9617934226989746,0.5053950548171997,-0.246066614985466,0.007854768075048923,-0.5599618554115295,-0.828481137752533,0.026965798810124397,0.052500367164611816,-0.020166873931884766,0.4535759059671656,0.1352891468426921,0.259723485143508,0.8417299801166024,0.594339792659173,0.009480642222404089,2.15018639628209
1772661248735054848,1.5536787509918213,-0.8885580897331238,0.5454772114753723,-0.24660830199718475,0.01357575599104166,-0.5522218942642212,-0.8335866332054138,0.02924041450023651,0.05364096164703369,-0.03205972909927368,0.4545448455668606,0.13065596595455242,0.2571686362784438,0.8427230946722042,0.5850269968975979,0.016284517742009258,2.147387894596169
1772661248745091584,1.5637156963348389,-0.8429063558578491,0.5859178900718689,-0.2718062996864319,0.01976601779460907,-0.5449424982070923,-0.838240385055542,0.02771933749318123,0.056798577308654785,-0.03173947334289551,0.45547744049600886,0.1259543784692307,0.25498098024323534,0.8435996938041268,0.5763205476077853,0.02357600070373597,2.144459481844941
1772661248755128576,1.5737526416778564,-0.8114549517631531,0.6258605122566223,-0.27658775448799133,0.026353618130087852,-0.5378907322883606,-0.842602550983429,0.0345136895775795,0.0739167332649231,-0.027926623821258545,0.4563804074047256,0.12114912233913958,0.25302493731824444,0.8444040953139024,0.5679330834196341,0.03126625946446173,2.1414629539651875
1772661248765166592,1.5837905406951904,-0.7402338981628418,0.651080846786499,-0.2709418535232544,0.03322320803999901,-0.5312097668647766,-0.8465887308120728,0.049052175134420395,0.10342961549758911,-0.023604750633239746,0.45719232027597956,0.11631532667469523,0.2513491370603785,0.8451447803693029,0.5600278227069383,0.03922349531903337,2.1385544308988917
1772661248775203584,1.593827724456787,-0.6372278928756714,0.6791279315948486,-0.28075745701789856,0.04034064710140228,-0.5252420902252197,-0.8499960899353027,0.06288506090641022,0.12974953651428223,-0.025354862213134766,0.4579137375549037,0.11156616922117482,0.25010984598146146,0.8457618651088196,0.5529995959052991,0.04742421551249255,2.135666395410876
1772661248785240576,1.6038646697998047,-0.5212262272834778,0.6958576440811157,-0.29185646772384644,0.04770858958363533,-0.5201678276062012,-0.8527305126190186,0.07184401154518127,0.14712095260620117,-0.020179033279418945,0.45858299690798804,0.1069603753250709,0.24938769224882598,0.8462073866374357,0.5470474506244412,0.05588976222511014,2.1326600754784457
1772661248795278592,1.6139025688171387,-0.39352792501449585,0.70030677318573,-0.30542126297950745,0.055252205580472946,-0.5160993933677673,-0.8547447919845581,0.08302292227745056,0.15591567754745483,-0.0057288408279418945,0.45921523928511504,0.10256501050742071,0.24921481663700681,0.8464596188353116,0.5422906939114397,0.06455194454450716,2.1294885972830175
1772661248805315840,1.6239397525787354,-0.2684742212295532,0.6766141653060913,-0.3045363128185272,0.0627201497554779,-0.5130844712257385,-0.8560435175895691,0.09748189151287079,0.1547166109085083,0.011744201183319092,0.45981002408238125,0.09850390869531697,0.2495500616743669,0.8465201613616281,0.5387745027517857,0.07313679866529327,2.1262122597451056
1772661248815353600,1.6339776515960693,-0.17142091691493988,0.6541576385498047,-0.3020297586917877,0.06998668611049652,-0.5110186338424683,-0.856715738773346,0.10735094547271729,0.15034669637680054,0.03525882959365845,0.4603647040606774,0.094800187146257,0.2503099389237303,0.8464173036133478,0.536369440094106,0.08151084029460973,2.1228890088955565
1772661248825390592,1.644014596939087,-0.11370161175727844,0.6409667134284973,-0.29014137387275696,0.07706215232610703,-0.5096059441566467,-0.8569499254226685,0.10489890724420547,0.14084678888320923,0.04791367053985596,0.4608733481732739,0.09136113789351959,0.25135268316092546,0.8462096619239466,0.5347267652433425,0.08968484884455409,2.1195848375692505
1772661248835427584,1.6540515422821045,-0.10567537695169449,0.6347322463989258,-0.2719855308532715,0.08395547419786453,-0.5084545612335205,-0.8569862246513367,0.08979635685682297,0.12837344408035278,0.045233964920043945,0.46131284028667435,0.08806306701173414,0.25249114051901095,0.8459808328373105,0.533389107015365,0.09765434517667651,2.1164392812521
1772661248845465600,1.6640896797180176,-0.11936616152524948,0.6279151439666748,-0.24443648755550385,0.09067603200674057,-0.5072551965713501,-0.8570122718811035,0.07147911190986633,0.1159740686416626,0.036562442779541016,0.46165601725671723,0.08480476461209212,0.2535784112572419,0.8458013379632108,0.5319967923479706,0.10541263659592764,2.113589875208278
1772661248855502592,1.6741266250610352,-0.1416139304637909,0.633132815361023,-0.22814726829528809,0.09726756811141968,-0.5059040188789368,-0.8570881485939026,0.05512195825576782,0.10871779918670654,0.019228100776672363,0.46190401227732925,0.08153682715345527,0.25457349992162726,0.8456882552083267,0.5304296657343629,0.11300260286928827,2.1110469697433576
1772661248865539584,1.6841635704040527,-0.15313208103179932,0.6417277455329895,-0.2132885456085205,0.10385437309741974,-0.5044064521789551,-0.8571980595588684,0.04633788764476776,0.1054500937461853,0.014714539051055908,0.46208332841735034,0.07821252036128665,0.2555069186749564,0.8456229329361946,0.5286943926180403,0.12056800125020774,2.108706687006575
1772661248875577600,1.6942017078399658,-0.16909240186214447,0.6335235834121704,-0.20150433480739594,0.11038175970315933,-0.502805233001709,-0.8573230504989624,0.044906921684741974,0.11013555526733398,0.009849905967712402,0.46220662305695076,0.07487222062932154,0.25638375167791216,0.8455925134151614,0.5268410216348468,0.12804720645025852,2.106547581507453
1772661248885614592,1.7042386531829834,-0.18966637551784515,0.6199057698249817,-0.18949668109416962,0.11676551401615143,-0.501029372215271,-0.8575170040130615,0.05126425623893738,0.119651198387146,0.03635001182556152,0.4622962576590224,0.07154010385739558,0.2571449115957295,0.8456008508592978,0.5247877826679923,0.13533465734835962,2.104568558197412
1772661248895652608,1.7142765522003174,-0.1771545708179474,0.5913124680519104,-0.17810580134391785,0.12286732345819473,-0.4992119371891022,-0.8577243685722351,0.05450083315372467,0.12737050652503967,0.07407873868942261,0.4623591755731901,0.06831755314884909,0.2578187858848996,0.8456277388411735,0.5226890283601319,0.14228010318622758,2.1027671605301617
1772661248905689600,1.724313735961914,-0.15560826659202576,0.5715720653533936,-0.16786327958106995,0.1287112534046173,-0.497569739818573,-0.857821524143219,0.05032011866569519,0.125743567943573,0.093569815158844,0.4623891814510552,0.06525249522459715,0.2585176088379209,0.8456399476428047,0.520794807608935,0.14893330553072825,2.1010875562614797
1772661248915726592,1.7343506813049316,-0.14331085979938507,0.5511967539787292,-0.15175887942314148,0.13435031473636627,-0.4960823059082031,-0.8578183054924011,0.04794645309448242,0.12048721313476562,0.1093747615814209,0.462381954185814,0.062313481243141955,0.2592447943104008,0.8456429333573956,0.5190808995573601,0.1553565515223681,2.099525729760389
1772661248925764608,1.7443885803222656,-0.12285707145929337,0.5289716124534607,-0.1347636580467224,0.13972800970077515,-0.49471959471702576,-0.8577462434768677,0.05358560383319855,0.11627110838890076,0.11745083332061768,0.46232592270141515,0.05951318038242716,0.25997127814288506,0.8456523213219799,0.5175121538115028,0.1614828867933221,2.0981367734114706
1772661248935801856,1.7544257640838623,-0.11132052540779114,0.5055643320083618,-0.117975614964962,0.1448085457086563,-0.4935336410999298,-0.8575867414474487,0.061230868101119995,0.11111786961555481,0.10157477855682373,0.4622281726712847,0.05688376589789556,0.26071220432261344,0.8456586761484735,0.516148015122736,0.16727794439577007,2.0968999292122397
1772661248945838592,1.7644627094268799,-0.1147499680519104,0.4846526086330414,-0.10021073371171951,0.14960606396198273,-0.49239078164100647,-0.8574201464653015,0.06607690453529358,0.10678595304489136,0.08901810646057129,0.46207763753918796,0.05437766371547633,0.26140579195378727,0.8456916477680145,0.5148344836739172,0.17274492131253755,2.095875571202642
1772661248955876608,1.7745006084442139,-0.10032788664102554,0.4831812381744385,-0.08041439205408096,0.15420229732990265,-0.49130570888519287,-0.8572282791137695,0.07008664309978485,0.10321366786956787,0.07857227325439453,0.4618443785638745,0.05195283963309593,0.2620815821294977,0.845762320151057,0.5135882327070987,0.17798130879512217,2.0951010847098175
1772661248965913600,1.7845375537872314,-0.10288460552692413,0.48564812541007996,-0.06132271885871887,0.15870806574821472,-0.4903559982776642,-0.8569496870040894,0.06646588444709778,0.10130265355110168,0.041718363761901855,0.46152391775241636,0.04957970084933157,0.262806025931473,0.8458549608666194,0.5124981833929232,0.18312624491165097,2.0945227367607537
1772661248975950592,1.7945747375488281,-0.12146708369255066,0.4737062454223633,-0.027574345469474792,0.16306264698505402,-0.4893191158771515,-0.8567247986793518,0.062492772936820984,0.10528591275215149,0.03397089242935181,0.46111255946186425,0.04722191201324313,0.2634533822492413,0.8460128150259261,0.5113088367578934,0.18808291615362913,2.094239825195075
1772661248985988608,1.804612636566162,-0.11102890968322754,0.4511897563934326,0.009607376530766487,0.16706988215446472,-0.48829641938209534,-0.8565361499786377,0.06999066472053528,0.12191766500473022,0.06668025255203247,0.46056432060058,0.04498060203216319,0.26402397383749127,0.84625554466538,0.5101365600903462,0.19263425256019995,2.0944011973954297
1772661248996025600,1.8146495819091797,-0.06613200902938843,0.42258474230766296,0.04914892837405205,0.1706811487674713,-0.48757362365722656,-0.856235921382904,0.07974608242511749,0.13755226135253906,0.09662288427352905,0.4598842162408136,0.04295764837425892,0.26464444726397635,0.8465368407128211,0.5093085115897475,0.19675982773144116,2.094922751248755
1772661249006063616,1.8246877193450928,-0.008906714618206024,0.3944748044013977,0.09310759603977203,0.17384430766105652,-0.4873763918876648,-0.8557116389274597,0.08360198140144348,0.1460067629814148,0.11297482252120972,0.4590460033546312,0.04122969394784132,0.2654134397412651,0.8468368204376004,0.509082615486865,0.20042984977859482,2.095809276052836
1772661249016100608,1.8347246646881104,0.024493053555488586,0.3696568012237549,0.14961561560630798,0.17654305696487427,-0.48767054080963135,-0.8549912571907043,0.08732718229293823,0.14610251784324646,0.10886698961257935,0.4580194454794973,0.03978393168662856,0.266311129683902,0.8471799482345169,0.5094194888988011,0.20362349913519945,2.0971474942350414
1772661249026137600,1.844761610031128,0.04652498662471771,0.3558007776737213,0.21463869512081146,0.17875544726848602,-0.48830434679985046,-0.8541694283485413,0.09613163769245148,0.13869497179985046,0.09541088342666626,0.45675410321272375,0.03857157445514097,0.26725929015329103,0.847620462935139,0.5101456263307789,0.20629675024787267,2.0991116279034014
1772661249036175616,1.854799747467041,0.042686305940151215,0.3365144431591034,0.2592679262161255,0.18057650327682495,-0.4891450107097626,-0.853304922580719,0.10564786195755005,0.12194225192070007,0.048602163791656494,0.4552653311183071,0.0375177711235221,0.26821624588211895,0.8481662612894487,0.511109231387815,0.2085433893122416,2.101673175048803
1772661249046212608,1.8648366928100586,0.003582223318517208,0.3049280047416687,0.3079470694065094,0.1819240152835846,-0.4898631274700165,-0.8526064157485962,0.1179264485836029,0.10357165336608887,0.013983368873596191,0.453619246130594,0.03658985588016009,0.26899435585221304,0.8488420008711176,0.5119327605396096,0.21022145450374574,2.104815362794624
1772661249056249600,1.8748736381530762,-0.015549925155937672,0.26941928267478943,0.34588485956192017,0.18275001645088196,-0.4904036521911621,-0.8521189093589783,0.14006491005420685,0.0882430374622345,0.018683910369873047,0.4518367045989459,0.03580172310185526,0.2695529130909612,0.84964874933544,0.5125528690494184,0.21126511815690824,2.1085268164368616
1772661249066287616,1.8849115371704102,-0.05298185348510742,0.23732805252075195,0.37274351716041565,0.18314078450202942,-0.49080294370651245,-0.8518050909042358,0.1557111293077469,0.07498568296432495,0.02363431453704834,0.44995688268697026,0.03513820107306727,0.26993101453892,0.8505536181641536,0.5130111024805935,0.21177917765307208,2.112671659777151
1772661249076324608,1.8949487209320068,-0.10428179055452347,0.21329808235168457,0.39745286107063293,0.18323558568954468,-0.4908556044101715,-0.851754367351532,0.14965014159679413,0.06916368007659912,0.03218954801559448,0.4480104550337147,0.034492322737131854,0.27006126424687077,0.8515655766068884,0.5130715231380631,0.21189779753549054,2.1171930441821476
1772661249086362624,1.9049866199493408,-0.13748514652252197,0.17721717059612274,0.4363175630569458,0.18280185759067535,-0.4905451238155365,-0.8520264029502869,0.13180385529994965,0.0730036199092865,0.049169957637786865,0.4459829442838523,0.033961713433930285,0.269876650192482,0.8527088621457958,0.5127151909903195,0.21134554891804225,2.1222152977874873
1772661249096399616,1.9150235652923584,-0.10769423097372055,0.18538136780261993,0.4685034453868866,0.18210643529891968,-0.4902893602848053,-0.8523224592208862,0.10858875513076782,0.0844818651676178,0.04496467113494873,0.44381543191715306,0.033521493449208274,0.26965732888249067,0.8539257120794599,0.512421730579588,0.21049413608242243,2.1276374999289067
1772661249106436608,1.925060749053955,-0.04425960034132004,0.2102547585964203,0.479564368724823,0.18146006762981415,-0.4904853105545044,-0.8523476123809814,0.07560475170612335,0.0978919267654419,0.025229692459106445,0.4415283565114819,0.03314357571030954,0.26968074228418765,0.855117874659209,0.5126465578829066,0.20976275691749685,2.133165783769381
1772661249116474624,1.935098648071289,0.05779645964503288,0.24649904668331146,0.4821750521659851,0.1810297667980194,-0.49138811230659485,-0.8519189953804016,0.05842640995979309,0.10813310742378235,0.01701909303665161,0.44066999224872744,0.03330639352848368,0.270057744745118,0.8554352827413666,0.513682834795899,0.2093819936585254,2.1350381797482596
1772661249126511616,1.9451355934143066,0.17960402369499207,0.29112324118614197,0.4784839153289795,0.18095192313194275,-0.4932782053947449,-0.8508425354957581,0.06132712960243225,0.10932129621505737,0.005490362644195557,0.4397098192973723,0.033538314129637266,0.271023822116528,0.8556147464591499,0.5158543568990273,0.20955168195507484,2.13669460945952
1772661249136548608,1.9551725387573242,0.2680681049823761,0.3045538365840912,0.4746082127094269,0.1811407059431076,-0.496066689491272,-0.8491795659065247,0.0772973895072937,0.10687601566314697,-0.004122436046600342,0.438701698432055,0.0338706441529906,0.27251238905580843,0.8556463711915308,0.5190629062125053,0.21016276666810643,2.138065042315479
1772661249146586624,1.9652106761932373,0.3417261838912964,0.29712948203086853,0.46696600317955017,0.18137352168560028,-0.4995027482509613,-0.8471131324768066,0.09729774296283722,0.1094728410243988,0.02556467056274414,0.4377381068995263,0.034367032698872424,0.27433983512364124,0.8555360600493116,0.5230247108441729,0.21092322512941675,2.139091864359159
1772661249156623616,1.9752476215362549,0.4593915641307831,0.28561022877693176,0.449797123670578,0.1815272867679596,-0.5037193894386292,-0.8445795178413391,0.1053074300289154,0.12133419513702393,0.06670176982879639,0.43675007844202346,0.035096944598937946,0.27654735131047425,0.8553005788843279,0.5278989268660992,0.21171129063215957,2.1399321338896566
1772661249166660608,1.9852845668792725,0.6110846400260925,0.2604954242706299,0.4288283586502075,0.18160225450992584,-0.5090348720550537,-0.8413704037666321,0.09929679334163666,0.1322343349456787,0.11256486177444458,0.43582458245522726,0.03617415157866651,0.2792959633248101,0.8548346123340717,0.5340631603918592,0.21257990068638893,2.1402657155340337
1772661249176698624,1.9953227043151855,0.7837054133415222,0.2129255086183548,0.4110461473464966,0.1814352571964264,-0.5156399607658386,-0.8373748660087585,0.07689604163169861,0.13806122541427612,0.16113585233688354,0.4350488927331227,0.037755959771024805,0.2826429776663569,0.854060848219477,0.5417544183536672,0.21337324265574512,2.1398694848631465
1772661249186735616,2.005359649658203,0.9678983092308044,0.20370417833328247,0.396933913230896,0.18105988204479218,-0.5237168073654175,-0.8324289917945862,0.04838651418685913,0.13544166088104248,0.18232828378677368,0.4343047305949562,0.039843394201475486,0.28670193666135124,0.8529911860261701,0.5512081199838035,0.2141720165715962,2.138921300354585
1772661249196773632,2.015397548675537,1.1211488246917725,0.19115696847438812,0.40370073914527893,0.1805952489376068,-0.5331745743751526,-0.8265048265457153,0.029655590653419495,0.1336689591407776,0.17281830310821533,0.4335483588194116,0.04235141240966644,0.2914685754850355,0.8516386000548901,0.5623485472872922,0.21512365273764397,2.137475599256042
1772661249206810624,2.025434732437134,1.205876350402832,0.15969477593898773,0.4250447750091553,0.17982374131679535,-0.543562650680542,-0.8198798894882202,0.03202927112579346,0.14015084505081177,0.1564735770225525,0.4327147694730234,0.045242818630216314,0.2966700880079767,0.8501163705657236,0.5746757674152271,0.21591053999934426,2.135906813874517
1772661249216847616,2.0354716777801514,1.2605071067810059,0.08528312295675278,0.45809513330459595,0.17840591073036194,-0.5544638633728027,-0.812859833240509,0.05657942593097687,0.1535544991493225,0.1680997610092163,0.43177771103930773,0.04855473653449361,0.30201409906500787,0.8485269117606797,0.5877186227768113,0.2160535916923686,2.1345643856128147
1772661249226885632,2.0455095767974854,1.323560118675232,0.001981578301638365,0.49376899003982544,0.1760912835597992,-0.5657978057861328,-0.8055213689804077,0.0853680819272995,0.1660938262939453,0.18465650081634521,0.4307610415808728,0.05239234189777855,0.3073993455080626,0.846879861088191,0.6014004851765704,0.21521965717976033,2.1335393261652715
1772661249236922624,2.055546760559082,1.3548327684402466,-0.09083251655101776,0.5317166447639465,0.17280177772045135,-0.5774906277656555,-0.7978998422622681,0.09730930626392365,0.17037087678909302,0.19233953952789307,0.4296663524089098,0.056776749458125914,0.3127722557166806,0.8451844648512999,0.6156516140576294,0.21327703637997034,2.1329109897806426
1772661249246959616,2.0655837059020996,1.3385595083236694,-0.17335987091064453,0.5882880687713623,0.16848012804985046,-0.5892143845558167,-0.7902157306671143,0.09044624865055084,0.16921621561050415,0.20649075508117676,0.42848663630103206,0.061643972196169156,0.31794993825303486,0.8435087877274755,0.6300861539742078,0.2100624911058371,2.1328836946151073
1772661249256997632,2.0756216049194336,1.2901275157928467,-0.23470978438854218,0.66669100522995,0.16312985122203827,-0.6006401181221008,-0.7827005982398987,0.07318298518657684,0.16651231050491333,0.21292215585708618,0.42709004610230455,0.0668502285388505,0.32277044812259725,0.8419884183967318,0.644301464863802,0.2054777171551281,2.133948333018196
1772661249267034624,2.085658550262451,1.2102771997451782,-0.2627938687801361,0.7590768337249756,0.15682506561279297,-0.611573338508606,-0.7754895091056824,0.04686449468135834,0.15638840198516846,0.18665283918380737,0.4253919704469926,0.07226999231122547,0.32715790601398365,0.84070592116955,0.6580476288077551,0.19953617860737027,2.136401529726444
1772661249277072640,2.0956966876983643,1.1103698015213013,-0.3178243637084961,0.8655750751495361,0.14955706894397736,-0.6218176484107971,-0.7687493562698364,0.03069499135017395,0.14571291208267212,0.16942989826202393,0.4233145711341989,0.0778142707194685,0.3310139887425186,0.8397497222423219,0.6710614690542869,0.19214581160938363,2.140568574976825
1772661249287109632,2.105733633041382,1.031937599182129,-0.371767520904541,0.9684590697288513,0.1411365270614624,-0.6313657760620117,-0.7625338435173035,0.027579888701438904,0.13270854949951172,0.1799532175064087,0.42092700885840606,0.0835906442498444,0.3342838545925344,0.8390992027167795,0.6833131089958772,0.18301769082484762,2.146432304436501
1772661249297146624,2.1157705783843994,0.9560778737068176,-0.4440177381038666,1.0704288482666016,0.13153128325939178,-0.6403541564941406,-0.7567338347434998,0.031966641545295715,0.12436294555664062,0.19653791189193726,0.41824755857185647,0.08966061522657254,0.3370371748916921,0.838710888054811,0.6949592793560817,0.17209512364012458,2.1539496151174853
1772661249307184640,2.1258087158203125,0.8462851047515869,-0.5056002736091614,1.1911344528198242,0.12060578912496567,-0.648611843585968,-0.7515031099319458,0.028197921812534332,0.12608987092971802,0.2131882905960083,0.41520784500131935,0.09600965076426578,0.3391615799504439,0.8386620933766137,0.7057591782463063,0.15912916683529155,2.163465632629585
1772661249317221632,2.13584566116333,0.7284181118011475,-0.5503922700881958,1.3065438270568848,0.10844732075929642,-0.655968964099884,-0.746956467628479,0.012753225862979889,0.13025790452957153,0.2190481424331665,0.411800462461498,0.10254544941921188,0.34059683018739834,0.8389867275475738,0.7154656661089538,0.14417819563756168,2.17504550327356
1772661249327258624,2.1458826065063477,0.6221240162849426,-0.5962470769882202,1.419212818145752,0.09512179344892502,-0.6623977422714233,-0.7430888414382935,-0.010282933712005615,0.13188022375106812,0.20080679655075073,0.4080160358172358,0.10922952149033026,0.34135682418552604,0.8396828939230687,0.7240148872508425,0.1273162433400665,2.1886871738812377
1772661249337296640,2.1559207439422607,0.5639036297798157,-0.6379468441009521,1.5046595335006714,0.08075658977031708,-0.6680870056152344,-0.7396878004074097,-0.03018895536661148,0.12795644998550415,0.18644994497299194,0.4038991110387243,0.11608458868066822,0.34158522646200706,0.8406600389626754,0.7316348933687271,0.10874588424803171,2.2041223435098938
1772661249347333632,2.1659576892852783,0.5460450649261475,-0.6877849698066711,1.5672634840011597,0.06549746543169022,-0.673331618309021,-0.7364338040351868,-0.04518803209066391,0.1183542013168335,0.175215482711792,0.3995510001311528,0.12318149319354128,0.341481225822249,0.8417695798649396,0.7387057626758705,0.08870530180634693,2.2208988728842898
1772661249357370624,2.175994634628296,0.5334656238555908,-0.7494619488716125,1.6199655532836914,0.0493764691054821,-0.6782239675521851,-0.7331945300102234,-0.0632619857788086,0.10672128200531006,0.18027710914611816,0.395050648920744,0.13057497989730474,0.34110540232696007,0.8429308280165727,0.7453431004433587,0.06724276142308845,2.238765752283098
1772661249367408640,2.18603253364563,0.5521566867828369,-0.7953650951385498,1.6673026084899902,0.03248555213212967,-0.6828760504722595,-0.7298116087913513,-0.08248859643936157,0.09565681219100952,0.19369405508041382,0.3904067226699218,0.13826862150329114,0.34055247842107406,0.8440902857947554,0.7516923766229877,0.04448288326238353,2.2576075535113955
1772661249377445632,2.1960697174072266,0.5903834700584412,-0.8484453558921814,1.6985822916030884,0.014906642027199268,-0.6874515414237976,-0.7260771989822388,-0.10529971122741699,0.08460736274719238,0.19072264432907104,0.38560371012283584,0.1462767200681924,0.3399478072356543,0.8451913243964111,0.7579740720348146,0.020527497190881296,2.2773680911168586
1772661249387483648,2.2061076164245605,0.6566647887229919,-0.8960705399513245,1.717564344406128,-0.003280418459326029,-0.6920583248138428,-0.7218341827392578,-0.1272890567779541,0.07332968711853027,0.2066669464111328,0.3807363768341921,0.154641748626686,0.33936534933385876,0.8461424156075262,0.7643366414586394,-0.004544528274035906,2.2977659403941617
1772661249397520640,2.216144561767578,0.7422260046005249,-0.9295435547828674,1.7223823070526123,-0.02187708020210266,-0.69688880443573,-0.7168454527854919,-0.14383335411548615,0.059391915798187256,0.22090429067611694,0.37578727183535615,0.163328167494587,0.33897078147773946,0.8468805315483161,0.7710501996715972,-0.030509076106895065,2.3187179819281725
1772661249407557632,2.226181745529175,0.8127843141555786,-0.9418737292289734,1.7333768606185913,-0.04069225862622261,-0.7019320130348206,-0.7110806107521057,-0.1601744443178177,0.04554468393325806,0.2113857865333557,0.3707413333874649,0.17224082234118784,0.33881086160190405,0.8474025971392755,0.7781064268870107,-0.057163599398618516,2.3402058730016426
1772661249417595648,2.236219644546509,0.8238551020622253,-0.9738305807113647,1.7497739791870117,-0.059832099825143814,-0.706894040107727,-0.7047843337059021,-0.17089608311653137,0.03279125690460205,0.18717575073242188,0.3655880410198999,0.18134649380640036,0.33870528428616753,0.8477839697368795,0.7850973468826362,-0.08469112371715548,2.362407750014651
1772661249427632640,2.2462565898895264,0.8297508955001831,-1.0156631469726562,1.7626104354858398,-0.07935510575771332,-0.7114800810813904,-0.6982111930847168,-0.16870704293251038,0.02526181936264038,0.2026362419128418,0.36038422361433736,0.19061536185655453,0.3384673949455279,0.8480736334376296,0.7916022342971375,-0.11316925442584362,2.385275196292701
1772661249437669632,2.256293535232544,0.8728536367416382,-1.0830270051956177,1.7577550411224365,-0.09930523484945297,-0.7158240079879761,-0.6911834478378296,-0.16201680898666382,0.016940951347351074,0.2172607183456421,0.35521942393811906,0.2001576793056967,0.33814964815874804,0.8481809955925781,0.7978034372565792,-0.14269768664944105,2.4086063271441467
1772661249447707648,2.266331672668457,0.9092442393302917,-1.1431888341903687,1.7390879392623901,-0.11958126723766327,-0.7200515866279602,-0.6835393905639648,-0.16188237071037292,0.006352245807647705,0.21764278411865234,0.3501114836800253,0.20997987659056885,0.337844279635357,0.8480517226749785,0.8038766458352421,-0.1731915477339307,2.4323082037384984
1772661249457744640,2.2763686180114746,0.9547920227050781,-1.2272273302078247,1.7364181280136108,-0.14023783802986145,-0.7241409420967102,-0.675243079662323,-0.16579242050647736,-0.004161059856414795,0.245494544506073,0.34507279650147443,0.22012144909043693,0.33752780101151214,0.8476710635692841,0.809787947398365,-0.20477392445998008,2.456408937862522
1772661249467782656,2.2864067554473877,1.006476640701294,-1.3146859407424927,1.7402667999267578,-0.1614854782819748,-0.7281109094619751,-0.666165828704834,-0.16859261691570282,-0.027244925498962402,0.2810797691345215,0.34006567230631113,0.23070125487261955,0.33718543343506374,0.847017202576631,0.8155619097588244,-0.23782279064704318,2.4811526825037338
1772661249477819648,2.2964437007904053,1.0165226459503174,-1.355530858039856,1.7372238636016846,-0.18311867117881775,-0.7318505644798279,-0.6564009785652161,-0.17750751972198486,-0.053580284118652344,0.30511319637298584,0.33507682830301316,0.24158830158475325,0.3368005300383784,0.8461228827181233,0.8210335582741597,-0.2720568474502337,2.506467776753376
1772661249487856640,2.306480646133423,0.9236978888511658,-1.4092230796813965,1.7482727766036987,-0.20495565235614777,-0.7348393201828003,-0.6465325951576233,-0.19192546606063843,-0.07755386829376221,0.3168054223060608,0.3301689216009818,0.25255283566403436,0.3360814987502565,0.8451359993326248,0.8254297752717731,-0.3069860262990397,2.531995205014521
1772661249497894400,2.316518545150757,0.7852473258972168,-1.457814335823059,1.747059941291809,-0.2271175980567932,-0.7365456819534302,-0.6371169686317444,-0.1910037398338318,-0.09804904460906982,0.34715425968170166,0.3253937281250582,0.26351234723539096,0.3346681169433238,0.844202217057414,0.8279490191401502,-0.3424333519130384,2.5574490058220367
1772661249507931648,2.3265557289123535,0.6584495306015015,-1.501104712486267,1.7252155542373657,-0.24936221539974213,-0.7369748950004578,-0.6282408833503723,-0.18581846356391907,-0.12264424562454224,0.3559477925300598,0.32084166129273534,0.27437170479826967,0.33256538517632067,0.8433156039996303,0.8285838475274706,-0.37784956325652846,2.5822754721181442
1772661249517968640,2.336592674255371,0.4994276762008667,-1.570438027381897,1.6901625394821167,-0.2716062068939209,-0.7361347079277039,-0.6199483275413513,-0.183548241853714,-0.14820367097854614,0.34094130992889404,0.3166756834602323,0.2851482876527432,0.3297215454889669,0.8424314865178166,0.8273416076475982,-0.41292319942630556,2.6058409426475784
1772661249528006656,2.346630573272705,0.3579540252685547,-1.6418943405151367,1.6476035118103027,-0.2938666343688965,-0.7340196371078491,-0.6122561693191528,-0.1772179901599884,-0.15778028964996338,0.34400665760040283,0.31298684214620137,0.29588046648611055,0.326077703182036,0.841526802673167,0.824221995589142,-0.44749829337022007,2.6277441238756305
1772661249538043648,2.3566677570343018,0.2605283856391907,-1.7103731632232666,1.584821105003357,-0.3160098195075989,-0.7309474945068359,-0.6048583388328552,-0.176223486661911,-0.15407752990722656,0.341094970703125,0.30975085065562447,0.3065852865022754,0.32183269183042007,0.8405258339047261,0.8197093187722883,-0.48144790527925907,2.6479390959045626
1772661249548080640,2.3667047023773193,0.19101811945438385,-1.7680751085281372,1.527947187423706,-0.3379054069519043,-0.7271733283996582,-0.5975273847579956,-0.1837010383605957,-0.1437678337097168,0.3209313154220581,0.3069516930171641,0.31726228283548974,0.31714500369096316,0.8393714595887303,0.8141951168062772,-0.5146701435512817,2.6664045618787826
1772661249558118656,2.3767426013946533,0.1811300665140152,-1.8180909156799316,1.4771175384521484,-0.3595385253429413,-0.7229920625686646,-0.5899275541305542,-0.19296696782112122,-0.13494861125946045,0.2949599027633667,0.30447881046132824,0.3279594154624682,0.3122160214701997,0.8380074472867561,0.808123545720449,-0.5473479582379925,2.6835007449842223
1772661249568155648,2.386779546737671,0.23775583505630493,-1.8441716432571411,1.421483039855957,-0.3807969391345978,-0.718821108341217,-0.5816269516944885,-0.20024248957633972,-0.13147491216659546,0.2672958970069885,0.3021862760292357,0.3387024593385999,0.3073551196473324,0.8363593514075494,0.8021050843650687,-0.5796791224848996,2.699751231153052
1772661249578193664,2.396817684173584,0.3059535324573517,-1.8550916910171509,1.3877264261245728,-0.4015933871269226,-0.7148927450180054,-0.572408139705658,-0.204119473695755,-0.13145118951797485,0.24716711044311523,0.2999474750950511,0.3494784421028829,0.3027552578651724,0.8344073097268421,0.7964707167598344,-0.6117894165333069,2.715595414954178
1772661249588230656,2.4068546295166016,0.3686555325984955,-1.8824419975280762,1.3769524097442627,-0.4221096932888031,-0.7111106514930725,-0.5622678399085999,-0.1942996382713318,-0.1277260184288025,0.23556190729141235,0.29764988723351404,0.3603332107246964,0.2983723398729184,0.8321890103964572,0.7910766328697262,-0.6439662658780273,2.731405559103451
1772661249598267648,2.416891574859619,0.43172264099121094,-1.9167736768722534,1.365424394607544,-0.44250166416168213,-0.7073985934257507,-0.5511619448661804,-0.17781388759613037,-0.12386971712112427,0.2315819263458252,0.29524374983952595,0.3713353824386486,0.29415820809591325,0.8297060416368931,0.7858109235233685,-0.6764777585448025,2.747389293390082
1772661249608305920,2.4269299507141113,0.4576944410800934,-1.9597467184066772,1.3422377109527588,-0.46271175146102905,-0.7036996483802795,-0.5391703248023987,-0.16813236474990845,-0.12602752447128296,0.22480875253677368,0.2928545380876995,0.3824879883872501,0.2900306559320466,0.8269348947839449,0.7805912532945655,-0.7092308554439389,2.7632005677791973
1772661249618342912,2.436966896057129,0.4573815166950226,-1.988161325454712,1.315322995185852,-0.48266518115997314,-0.6998228430747986,-0.5265759825706482,-0.16626060009002686,-0.13126230239868164,0.22425365447998047,0.29055997190099514,0.39370689543704074,0.2858441593103491,0.8239313741931544,0.775149496431235,-0.7419168492835059,2.7784644634331293
1772661249628379904,2.4470038414001465,0.4790326654911041,-2.0116944313049316,1.2867318391799927,-0.5022242665290833,-0.6958244442939758,-0.5134190917015076,-0.17538803815841675,-0.14670485258102417,0.20957082509994507,0.28834929213092525,0.40492467635150564,0.2816495398961961,0.8207095871047274,0.7695671736523672,-0.7743761877035157,2.793170644417025
1772661249638417920,2.4570419788360596,0.46929696202278137,-2.021388530731201,1.259954810142517,-0.5213751792907715,-0.6916998624801636,-0.4997192323207855,-0.18718194961547852,-0.16593563556671143,0.18177181482315063,0.2862095405189867,0.4161309783560479,0.27744439315876324,0.817278293367668,0.7638401983353514,-0.806603534611288,2.807344686541137
1772661249648454912,2.467078924179077,0.4379330277442932,-2.014108180999756,1.236284613609314,-0.5399894714355469,-0.6872993111610413,-0.4858302175998688,-0.19209671020507812,-0.18138355016708374,0.15386003255844116,0.2841411458590615,0.42717067721654733,0.27314849160496046,0.813743752074339,0.757764409326948,-0.8381452707785001,2.8207498178871417
1772661249658492928,2.477116823196411,0.3947724997997284,-2.020150661468506,1.2192316055297852,-0.5581395626068115,-0.6825391054153442,-0.47182682156562805,-0.1858178973197937,-0.200090229511261,0.11731937527656555,0.28218494702865865,0.4380672287259766,0.2686702388476761,0.8101141839216143,0.751231199375178,-0.869004332901036,2.8332286515833665
1772661249668529920,2.487154006958008,0.32050231099128723,-2.0279316902160645,1.203122854232788,-0.5758439898490906,-0.6773319244384766,-0.457848459482193,-0.17243176698684692,-0.22003746032714844,0.0727928876876831,0.28039982195340396,0.44880603648425604,0.2639108121139897,0.8064118974612988,0.7441298307349147,-0.8990557518320917,2.8445246609919552
1772661249678566912,2.4971909523010254,0.1968511939048767,-2.0203559398651123,1.182587742805481,-0.5930700302124023,-0.6715248823165894,-0.4442097842693329,-0.16802310943603516,-0.24604713916778564,0.031474769115448,0.27883345287462574,0.4592904799365032,0.2587418927464343,0.8027183971724577,0.7362647582859678,-0.927935188033256,2.8542834928215193
1772661249688604928,2.5072288513183594,0.04702654480934143,-2.0067331790924072,1.1795848608016968,-0.609843909740448,-0.6649519801139832,-0.4311952590942383,-0.1695597767829895,-0.26703959703445435,-0.0020475387573242188,0.2775491813760589,0.469456811182807,0.2530072724438416,0.7991020986041132,0.7274295386429873,-0.9553488988272689,2.8621191648135844
1772661249698641920,2.517266035079956,-0.15198588371276855,-1.9871386289596558,1.1765429973602295,-0.6261681318283081,-0.6574488282203674,-0.41913554072380066,-0.1740180253982544,-0.27989858388900757,-0.02945762872695923,0.2766301182018828,0.4792175977956021,0.24654152137867885,0.7956403691728161,0.7174279559704883,-0.9809273921675667,2.867569265536024
1772661249708678912,2.5273029804229736,-0.32180526852607727,-1.957301378250122,1.180942177772522,-0.6420945525169373,-0.6489338874816895,-0.408165842294693,-0.17464739084243774,-0.28053998947143555,-0.04779726266860962,0.27607950599296016,0.4885355090452626,0.23927000053895198,0.7923780485894192,0.7061823610882265,-1.00455474709081,2.87051008971993
1772661249718716928,2.5373408794403076,-0.40599367022514343,-1.9223135709762573,1.1740128993988037,-0.6575753688812256,-0.6397504806518555,-0.3978867530822754,-0.16635340452194214,-0.26918500661849976,-0.06681963801383972,0.27575017962778675,0.4974640460685887,0.23148680868274019,0.7892433909498676,0.6941735563620327,-1.0266487225572174,2.871659916654278
1772661249728753920,2.547377824783325,-0.4396762549877167,-1.8962053060531616,1.1508362293243408,-0.6725270748138428,-0.630304753780365,-0.38784438371658325,-0.15858864784240723,-0.23257976770401,-0.11737412214279175,0.27554706379157584,0.5060873214515765,0.2235026340323974,0.7861272577526583,0.6819457262820525,-1.0476875996821065,2.8716861768302255
1772661249738790912,2.557415008544922,-0.36352288722991943,-1.8750795125961304,1.1257569789886475,-0.6869205832481384,-0.6209596395492554,-0.3775568902492523,-0.15052753686904907,-0.17725813388824463,-0.16408437490463257,0.27535168742772487,0.5145228480398494,0.21561029312874475,0.7829175347260542,0.6699663705215838,-1.0682319641043667,2.8713185680141007
1772661249748828928,2.567452907562256,-0.19388993084430695,-1.831054449081421,1.0910855531692505,-0.70071941614151,-0.6121962666511536,-0.3663443922996521,-0.1421608328819275,-0.12677162885665894,-0.2322579026222229,0.27482360013164747,0.5229043561324421,0.20832386665102298,0.7795154398738287,0.6588352039795596,-1.0890662342902404,2.8720054867526144
1772661249758865920,2.5774898529052734,-0.053664952516555786,-1.7856343984603882,1.0682975053787231,-0.7138568162918091,-0.6040827035903931,-0.354249507188797,-0.1488751769065857,-0.08387506008148193,-0.2991166114807129,0.2739099507971136,0.5312028773754136,0.20173931843075651,0.775949866305045,0.6486143133001903,-1.1101553860214908,2.8739515600334653
1772661249768903936,2.5875279903411865,0.15333256125450134,-1.7368369102478027,1.0682803392410278,-0.7264485359191895,-0.5965151190757751,-0.3412363529205322,-0.16101789474487305,-0.06394630670547485,-0.3111836910247803,0.27252115835705876,0.5394676483083016,0.19584809723025104,0.7722372714359945,0.6391520594938692,-1.1316547144203535,2.8773856400185407
1772661249778940928,2.597564935684204,0.363345205783844,-1.6767925024032593,1.0744549036026,-0.7385565042495728,-0.5895052552223206,-0.32713600993156433,-0.17016541957855225,-0.06523412466049194,-0.3393220901489258,0.2704266709128246,0.5477390058341497,0.19082446409962228,0.7683993131329465,0.6304462060451903,-1.1538292207808951,2.8830185285767502
1772661249788977920,2.6076018810272217,0.5378037095069885,-1.6030982732772827,1.087473750114441,-0.7501802444458008,-0.5828740000724792,-0.31222984194755554,-0.18248271942138672,-0.07458144426345825,-0.35547953844070435,0.2675766897007706,0.5559273503225546,0.18662760759999278,0.7645375352320241,0.6222612085609116,-1.1763974394898,2.890816675073795
1772661249799015936,2.6176400184631348,0.6832805275917053,-1.5103771686553955,1.0979609489440918,-0.7613105773925781,-0.5764498114585876,-0.296836256980896,-0.1910514235496521,-0.08485078811645508,-0.3614736497402191,0.26409952713208834,0.563966064046381,0.18309599806578541,0.7607033159281613,0.6143773021495927,-1.1990256010365674,2.900271584723597
1772661249809052928,2.6276769638061523,0.7776158452033997,-1.4300742149353027,1.1152013540267944,-0.7719435691833496,-0.5700648427009583,-0.2812994122505188,-0.1877427101135254,-0.09332627058029175,-0.3707696795463562,0.2601201765008785,0.5717750777785177,0.18006541193829637,0.7569592610651297,0.6065847608576278,-1.2213474081232936,2.910866815939077
1772661249819089920,2.63771390914917,0.8390821218490601,-1.3571879863739014,1.1279709339141846,-0.7821552157402039,-0.5635401010513306,-0.2658116817474365,-0.16068536043167114,-0.09464776515960693,-0.3703577518463135,0.2557487205918608,0.5793449734776308,0.1773514980452769,0.7533249355246344,0.5986649220909908,-1.2431965768147182,2.922149146358595
1772661249829127936,2.647752046585083,0.7907538414001465,-1.3007700443267822,1.1252853870391846,-0.7919448018074036,-0.5567536354064941,-0.2506966292858124,-0.12777870893478394,-0.08674001693725586,-0.38223797082901,0.25123456313766973,0.5866263022989334,0.17470337772795103,0.7498196574998293,0.590472595111303,-1.2642185937547323,2.933282284943317
1772661249839164928,2.6577889919281006,0.7030364871025085,-1.2456886768341064,1.1084041595458984,-0.8012705445289612,-0.5496311187744141,-0.23637081682682037,-0.11790364980697632,-0.08212852478027344,-0.3792755603790283,0.24593772063774785,0.5933158471844082,0.1726004022001902,0.746793193286146,0.5819225989895024,-1.283937576401997,2.9458091379087423
1772661249849201920,2.667825937271118,0.6738268136978149,-1.1849344968795776,1.0840595960617065,-0.8100892305374146,-0.5423389077186584,-0.22276462614536285,-0.1393890380859375,-0.08935970067977905,-0.3748611509799957,0.24084303125082562,0.5996561083073273,0.17038262533414483,0.7438931564731571,0.573218524054277,-1.3024414873068892,2.9572749756620644
1772661249859239936,2.677863836288452,0.7036241292953491,-1.0624408721923828,1.0541170835494995,-0.8183158040046692,-0.5350931882858276,-0.20984436571598053,-0.1757943034172058,-0.10647785663604736,-0.38146424293518066,0.23573253757594057,0.605582563472466,0.16836739243991883,0.7411831454841687,0.5646180375721932,-1.3197709514050167,2.9684725545312873
1772661249869276928,2.687901020050049,0.7292797565460205,-0.9237152338027954,1.0417451858520508,-0.8259319067001343,-0.5279167890548706,-0.19783926010131836,-0.19865000247955322,-0.11344057321548462,-0.40071725845336914,0.23048403329672604,0.6109825019408626,0.16667559061290285,0.738780613046138,0.5561458502225469,-1.3356914624597824,2.979714870830308
1772661249879314944,2.697938919067383,0.7803413271903992,-0.8045334815979004,1.020956039428711,-0.8330255746841431,-0.5207793712615967,-0.1867009848356247,-0.18966424465179443,-0.09976506233215332,-0.4156396985054016,0.2250630808829669,0.6158934007552392,0.16530222389618893,0.7366797775594333,0.5477636070582492,-1.3503158710288565,2.9911096288736085
1772661249889351936,2.7079758644104004,0.8948538303375244,-0.7177574038505554,0.9784568548202515,-0.8396115303039551,-0.5138860940933228,-0.17599289119243622,-0.16142600774765015,-0.07322633266448975,-0.4298420548439026,0.21940683421591756,0.6204582155172093,0.16442370708342052,0.7347496535862857,0.5397086417124404,-1.3641755008622687,3.003153603097914
1772661249899388928,2.718013048171997,1.0067920684814453,-0.61295485496521,0.9025596380233765,-0.8455724120140076,-0.507561206817627,-0.1654958873987198,-0.13675791025161743,-0.04036659002304077,-0.4410867691040039,0.21351528173941378,0.6247141423906732,0.16426896642516026,0.7329114227564033,0.5323519683729917,-1.3775189884002632,3.0162281743377313
1772661249909426944,2.728050947189331,1.1043694019317627,-0.5355769395828247,0.8366101980209351,-0.8509072065353394,-0.5018572211265564,-0.1552298367023468,-0.12316811084747314,-0.008427202701568604,-0.4331185817718506,0.20747316364178858,0.6286684668600856,0.16480608015859669,0.7311428186680965,0.5257446572131447,-1.390351981110268,3.030178763618488
1772661249919463936,2.7380878925323486,1.1195573806762695,-0.43090301752090454,0.7768920063972473,-0.8556790351867676,-0.4966507852077484,-0.14543576538562775,-0.12353861331939697,0.0028610527515411377,-0.42222172021865845,0.20136659642655816,0.6322712948396243,0.16587684005776665,0.7294994782665828,0.5197357207326028,-1.402439871471473,3.044620353650475
1772661249929500928,2.748124837875366,1.0879933834075928,-0.3058328330516815,0.7177561521530151,-0.8599084615707397,-0.4917721450328827,-0.136813223361969,-0.1461188793182373,-0.019473612308502197,-0.396878182888031,0.1954403026651792,0.6353362364957619,0.16715637715761278,0.7281550991278914,0.5141238458049827,-1.4130166933850663,3.0585540051634594
1772661249939538944,2.7581629753112793,1.1039783954620361,-0.1874007284641266,0.6597706079483032,-0.8636261224746704,-0.4872729480266571,-0.12928704917430878,-0.1629699468612671,-0.0707867443561554,-0.36880558729171753,0.18963404457201824,0.6378810546926011,0.16871346770496007,0.7271055860531281,0.5089641335017611,-1.42219727489324,3.0722215917641362
1772661249949575936,2.768199920654297,1.1175827980041504,-0.05731769651174545,0.6066334843635559,-0.8668599128723145,-0.4831848442554474,-0.12282634526491165,-0.16324567794799805,-0.09542843699455261,-0.35814595222473145,0.18387474749992735,0.6399034698931347,0.17061762952924422,0.7263630187436345,0.5042887507027329,-1.430042161314553,3.0858688038339563
1772661249959613696,2.778237819671631,1.22215735912323,0.007631740532815456,0.5629611015319824,-0.8697073459625244,-0.4795025587081909,-0.11698949337005615,-0.14860320091247559,-0.057179540395736694,-0.33081018924713135,0.1780155925585794,0.6415496267727206,0.17297204485937134,0.7258135099435017,0.5000877765585766,-1.4370830285530714,3.100019134365136
1772661249969650944,2.7882750034332275,1.254271388053894,0.09306101500988007,0.5502840876579285,-0.8723057508468628,-0.47608569264411926,-0.11146799474954605,-0.11628067493438721,0.017116576433181763,-0.27578479051589966,0.1719416674863488,0.6429410903611547,0.17576335478550678,0.7253758033518047,0.4961982081529917,-1.443699665775201,3.114942109571378
1772661249979687936,2.798311948776245,1.1671788692474365,0.18700216710567474,0.5623570084571838,-0.8748059272766113,-0.47253963351249695,-0.106868676841259,-0.07952451705932617,0.09918758273124695,-0.2064247727394104,0.16586557850889355,0.6439716789222721,0.17851089180682334,0.7252054789395176,0.492170207425379,-1.4492359286291288,3.129495206382665
1772661249989725952,2.808349847793579,0.9876323938369751,0.3428348898887634,0.560117244720459,-0.8771810531616211,-0.46875038743019104,-0.10405074805021286,-0.0762186050415039,0.12815898656845093,-0.18731582164764404,0.16007589090217839,0.6444098549305698,0.18086061761459118,0.7255350613835809,0.4878756024933776,-1.4527285526981142,-3.14066957220448
1772661249999762944,2.818387031555176,0.7121790051460266,0.49713605642318726,0.5212164521217346,-0.8792891502380371,-0.46483922004699707,-0.10380374640226364,-0.10020303726196289,0.08306431770324707,-0.25503718852996826,0.15497030684847932,0.6440370605837692,0.18252229950366938,0.7265577354069179,0.48345301016138115,-1.4532860483324308,-3.130396854589967
1772661250009799936,2.8284239768981934,0.6016018390655518,0.6325371265411377,0.4257768988609314,-0.8809177279472351,-0.46128854155540466,-0.10581393539905548,-0.13507336378097534,-0.006210207939147949,-0.3643551468849182,0.15064153879072725,0.6429079912289276,0.18374533108296437,0.7281579189551521,0.47944692925476845,-1.4512512339056436,-3.1225652707347593
1772661250019837952,2.8384618759155273,0.7622993588447571,0.7153252363204956,0.3399485647678375,-0.8819370865821838,-0.45865920186042786,-0.10871435701847076,-0.15614885091781616,-0.051091164350509644,-0.44925379753112793,0.14646325520305237,0.6412780597199293,0.18548657893621748,0.7300039300253577,0.4764857486912572,-1.4481473391113209,-3.114514047513354
1772661250029874688,2.848498821258545,0.7657614350318909,0.8692241311073303,0.3467581272125244,-0.8826001286506653,-0.45656052231788635,-0.11211321502923965,-0.11706411838531494,0.02430957555770874,-0.41251444816589355,0.14197544505338008,0.6392598151005024,0.18785707381517047,0.732051584787102,0.47412543794350626,-1.4444469433447271,-3.1052661980557845
1772661250039911936,2.8585360050201416,0.5450493097305298,1.046572208404541,0.38706105947494507,-0.8831988573074341,-0.45407041907310486,-0.11738771945238113,-0.03188598155975342,0.16299375891685486,-0.26974302530288696,0.13758816056559245,0.636617372117445,0.18980110995994243,0.7346858939838902,0.47132859975498365,-1.4386587947105844,-3.097251838042049
1772661250049949952,2.8685739040374756,-0.007832661271095276,1.2528352737426758,0.41263607144355774,-0.8836097717285156,-0.4508225619792938,-0.12646251916885376,0.044193267822265625,0.21792763471603394,-0.09627002477645874,0.13407547735102157,0.6328785449279138,0.19035095642053754,0.7384138426939854,0.4676866304232377,-1.4286413580487887,-3.093477469230804
1772661250059986944,2.878610849380493,-0.6975604891777039,1.3643125295639038,0.3801622688770294,-0.8836597800254822,-0.44680899381637573,-0.13966746628284454,0.08435875177383423,0.09524655342102051,-0.09893421828746796,0.13245780804214846,0.6281526174367059,0.1886545961804238,0.7431612159638156,0.463195303950205,-1.4140374054105216,-3.09671795395071
1772661250070024960,2.8886489868164062,-1.2494252920150757,1.3742343187332153,0.29939112067222595,-0.8831550478935242,-0.44228076934814453,-0.1562841832637787,0.09120875597000122,-0.19895455241203308,-0.2472192496061325,0.13298444361802506,0.6226661225985802,0.1847831437777535,0.7486368720880948,0.45814009248985327,-1.3956483751354773,-3.1070188097124722
1772661250080061952,2.898685932159424,-1.4416016340255737,1.4577395915985107,0.17553097009658813,-0.8818686604499817,-0.43792569637298584,-0.1747245043516159,0.056932806968688965,-0.4339614808559418,-0.4282417893409729,0.13505842047916752,0.6166795165611496,0.17984470753022533,0.7544013713056777,0.4532900725045724,-1.3751996283053254,-3.121528618366952
1772661250090098944,2.9087228775024414,-1.4746018648147583,1.623705506324768,0.08952511101961136,-0.8795522451400757,-0.43409672379493713,-0.1948029100894928,0.0013783574104309082,-0.394012987613678,-0.4969237446784973,0.13768740269868338,0.6099058057084727,0.17496700321485417,0.7605549213822314,0.44903535858800186,-1.352835126126957,-3.137164548767607
1772661250100136960,2.9187610149383545,-1.480507731437683,1.8203829526901245,0.04815024137496948,-0.876312255859375,-0.4304140508174896,-0.21638038754463196,-0.022811830043792725,-0.153112530708313,-0.46512293815612793,0.14041030706925584,0.6023382509729561,0.17028927711927125,0.7671213104756925,0.44495145704487393,-1.3287171191769598,3.1302034995117523
1772661250110173952,2.928797960281372,-1.550844430923462,1.8573811054229736,-0.00749597605317831,-0.8721595406532288,-0.4267530143260956,-0.23920632898807526,0.01431041955947876,-0.007527381181716919,-0.45277976989746094,0.14334031530519623,0.5940992165274966,0.16565916213626947,0.7739875606074822,0.4408993704775704,-1.303109844812709,3.113888796094089
1772661250120210944,2.9388349056243896,-1.4898474216461182,1.756181240081787,-0.07392480224370956,-0.8675029873847961,-0.4232223927974701,-0.26138395071029663,0.05082195997238159,-0.1331283450126648,-0.5005789995193481,0.14652625001077468,0.5859614766587004,0.16111228261551044,0.7805268599279865,0.4369990136272441,-1.2781416863230302,3.0975132431962358
1772661250130248960,2.9488730430603027,-1.5514795780181885,1.49237859249115,-0.16977795958518982,-0.8624821305274963,-0.42026835680007935,-0.2819557189941406,0.03786671161651611,-0.44055619835853577,-0.5544548034667969,0.15012897171849643,0.5783025022856484,0.15680672969477538,0.7864090019166614,0.43374105433841337,-1.254836087806919,3.081205380205458
1772661250140285952,2.9589099884033203,-1.7841107845306396,1.3300095796585083,-0.03548166900873184,-0.8578818440437317,-0.416382759809494,-0.30110493302345276,0.07277137041091919,-0.6938467025756836,-0.48153364658355713,0.1542788441294597,0.5713630643359094,0.1516304371039737,0.7916757607833431,0.4294631340244663,-1.2332429629612809,3.0634153724818627
1772661250150322944,2.968946933746338,-2.01718807220459,1.1859972476959229,0.036214619874954224,-0.8539770841598511,-0.4103766977787018,-0.31986573338508606,0.27029794454574585,-0.7679070234298706,-0.34387633204460144,0.15874386300317517,0.5648374573561232,0.14500270292058326,0.796701454072987,0.4228670973638176,-1.2124113887730381,3.0436893683416937
1772661250160360704,2.978984832763672,-2.039945125579834,0.8727682828903198,0.2056872695684433,-0.8510050177574158,-0.4026595652103424,-0.3371288478374481,0.29523414373397827,-0.6733291745185852,-0.21438485383987427,0.16333466759844226,0.5590895168877655,0.13731165802689846,0.8011780673177091,0.414420527951853,-1.1936100577616087,3.0231300647637713
1772661250170397952,2.9890220165252686,-2.131171703338623,0.33649179339408875,0.4397072196006775,-0.8501681685447693,-0.39275169372558594,-0.35065680742263794,0.2352084517478943,-0.46431922912597656,-0.03275078535079956,0.1674230390268821,0.5551054954977535,0.12856705102685012,0.8045482522135592,0.40362181176955875,-1.1795984964945738,3.003422745353305
1772661250180435968,2.9990599155426025,-1.9434659481048584,-0.16367383301258087,0.580661416053772,-0.8519721031188965,-0.38078179955482483,-0.35937270522117615,0.297482967376709,-0.16163763403892517,0.16959917545318604,0.17102414301822277,0.5533696955877884,0.11872499118416609,0.806496813670454,0.3906416558295318,-1.1716283900888398,2.9847169388794033
1772661250190472960,3.00909686088562,-1.6446512937545776,-0.5879183411598206,0.5034087300300598,-0.8553440570831299,-0.36987316608428955,-0.36274024844169617,0.4089787006378174,0.04840099811553955,0.17160868644714355,0.17398371765344148,0.5536898433029472,0.10980632764720388,0.8069076014024289,0.37887249048530314,-1.1696992932299763,2.9694125494620414
1772661250200509952,3.019134044647217,-1.7488933801651,-0.9438918828964233,0.7818688750267029,-0.8604182600975037,-0.3583173155784607,-0.3623383939266205,0.37387651205062866,0.0825452208518982,0.1644776463508606,0.1765524217917844,0.5556272522635579,0.10054431981680466,0.806224794277967,0.36646491310057805,-1.1722175869093756,2.9552640122144638
1772661250210547968,3.029171943664551,-1.897568702697754,-1.219265103340149,0.9639488458633423,-0.8674870729446411,-0.34397950768470764,-0.35936662554740906,0.3561192750930786,0.01841798424720764,0.27191853523254395,0.17855383679174808,0.5588085208260648,0.08972021422729676,0.8048614533017572,0.35115174208859185,-1.1780561972196009,2.940936978712261
1772661250220584960,3.0392088890075684,-2.060384511947632,-1.4491246938705444,0.9969315528869629,-0.8755701780319214,-0.3283441960811615,-0.3543543219566345,0.2325037717819214,-0.1359502375125885,0.362090528011322,0.1807259313542709,0.5628239262412013,0.0777950746021282,0.8028171241223919,0.33455004306957514,-1.1862339592890272,2.925410442505432
1772661250230621696,3.049245834350586,-2.2105016708374023,-1.697120189666748,1.1401338577270508,-0.884471595287323,-0.3114330470561981,-0.3474469780921936,0.16518759727478027,-0.20200994610786438,0.5056654214859009,0.18311764125920152,0.5675265994719053,0.06473080354458371,0.80011958750693,0.3167006898557101,-1.1964862366030649,2.9084362329557325
1772661250240659968,3.059283971786499,-2.3693618774414062,-1.8432725667953491,1.3470396995544434,-0.8944185972213745,-0.29236698150634766,-0.33843323588371277,0.13065505027770996,-0.12877559661865234,0.48299500346183777,0.18512800569563215,0.5729298130006242,0.05034692430601578,0.7968339556809843,0.29670103754186705,-1.2090626147041819,2.890785236312125
1772661250250696960,3.0693209171295166,-1.6024888753890991,-1.656874418258667,1.1871905326843262,-0.9039745926856995,-0.27414146065711975,-0.3281407356262207,0.004392743110656738,-0.012189686298370361,0.4253239929676056,0.18624867061850675,0.5784130778054063,0.03698567688746068,0.7933358388374224,0.27769684676806927,-1.2225894670998112,2.875672228148807
1772661250260734976,3.0793590545654297,-0.8613681793212891,-1.6055736541748047,1.222340703010559,-0.9123523235321045,-0.2593470811843872,-0.3167843222618103,-0.171036958694458,-0.1683567762374878,0.1299557089805603,0.18539248864245536,0.5838421393145592,0.027132830704333012,0.7899504710331314,0.2623460889453756,-1.2366028419460675,2.8677076277072993
1772661250270771968,3.0893959999084473,0.12704987823963165,-1.4783923625946045,1.257718563079834,-0.9203658699989319,-0.24646852910518646,-0.3036113679409027,-0.10319364070892334,-0.15944577753543854,0.050193458795547485,0.18176343048236723,0.5897273457237183,0.020395416900922152,0.7866178826709187,0.2490346764334927,-1.2521559311397314,2.8679525275519198
1772661250280808960,3.099432945251465,1.846612811088562,-1.5009150505065918,0.8647462725639343,-0.927389919757843,-0.23922376334667206,-0.2876104414463043,0.0020360350608825684,0.015835106372833252,-0.0038629472255706787,0.17480644734463735,0.5964990000837481,0.019588795354908588,0.7831013889546663,0.24156632770603814,-1.2700730270377767,2.8807432371505697
1772661250290846720,3.109470844268799,3.0792722702026367,-1.123757004737854,0.0815432220697403,-0.9324538707733154,-0.24153102934360504,-0.2686866819858551,0.02408289909362793,0.02908290922641754,0.05503314733505249,0.16528078724102807,0.6040990984446043,0.026850270213170786,0.7791184572845251,0.24394328545979926,-1.2902461254859987,2.907485866857025
1772661250300883968,3.1195080280303955,2.8774471282958984,-0.5646659731864929,-0.6283569931983948,-0.9336519837379456,-0.25308510661125183,-0.25345972180366516,0.029187321662902832,-0.2759675979614258,0.47220972180366516,0.15732794840771108,0.609682195704844,0.039468493705371865,0.7758722472434457,0.25586786627567704,-1.305713675389054,2.9375781200165934
1772661250310920960,3.129544973373413,1.6596176624298096,-0.6252121329307556,-0.1212298646569252,-0.9341855049133301,-0.2625507116317749,-0.2415877878665924,0.002010822296142578,-0.9444500207901001,0.568400502204895,0.152034113889318,0.6138373625365074,0.04908972583882588,0.7730973913870437,0.2656647100756113,-1.3177326308210422,2.9594230861111956
1772661250320958976,3.139582872390747,2.2853264808654785,-0.44629913568496704,-0.12778496742248535,-0.9352034330368042,-0.26748546957969666,-0.2320478856563568,0.21382880210876465,-1.1483317613601685,0.8662794828414917,0.14677511126604534,0.6171239475601945,0.05598293704765933,0.7710260065122012,0.27078246598861117,-1.3275826035531386,2.9776754711724944
1772661250330995968,3.1496200561523438,3.0943171977996826,-0.26404130458831787,-0.49323713779449463,-0.93520587682724,-0.2767201066017151,-0.22094325721263885,0.039560794830322266,-0.8706797361373901,-0.21870820224285126,0.13951734111821348,0.6204752023430998,0.06737131481765947,0.7687694704897818,0.28037926249010414,-1.3387992280758216,3.0049391907376672
1772661250341032960,3.1596570014953613,3.3590176105499268,-0.31912320852279663,-0.7760013937950134,-0.9339179992675781,-0.2897891104221344,-0.2093309611082077,-0.046062469482421875,-0.3097287118434906,-0.1940351128578186,0.13202650755175196,0.6234295491538417,0.08167079505712421,0.7663122811297503,0.29400649458475686,-1.3502979732772014,3.036377127457103
1772661250351070976,3.1696949005126953,3.4450831413269043,-0.13487467169761658,-0.8219296932220459,-0.9320846199989319,-0.30431708693504333,-0.19649270176887512,-0.055784642696380615,0.020167917013168335,0.03044658899307251,0.12452681820918059,0.6263511060209276,0.09714904759215076,0.7633737203522251,0.3092214244312816,-1.3630285233345605,3.0697017806139226
1772661250361107712,3.179731845855713,3.2146127223968506,0.20822462439537048,-0.4941837191581726,-0.929756760597229,-0.31727924942970276,-0.1867787390947342,-0.1134103536605835,-0.038723528385162354,-0.083607017993927,0.11646565826476725,0.6276881967300801,0.11233056458993722,0.7614624982369056,0.3228591342895238,-1.3725452346266562,3.1032514142715475
1772661250371145984,3.189769983291626,2.8672704696655273,-0.019915863871574402,0.1806362420320511,-0.9290496706962585,-0.32437148690223694,-0.1779036968946457,-0.15043330192565918,-0.3444822430610657,-0.17669527232646942,0.10759997041708765,0.6289496079163754,0.12438063563678453,0.7598513050734368,0.33034722144094864,-1.3815967119688082,3.1341272803361035
1772661250381182976,3.1998069286346436,2.420603036880493,0.34152624011039734,0.7576137781143188,-0.9304290413856506,-0.3244524300098419,-0.1703895926475525,-0.10623794794082642,-0.4852246940135956,0.1239113062620163,0.09718940270818417,0.6301537533220275,0.13308438426701602,0.7587813513721614,0.33043278575066376,-1.3896731603150692,-3.120197441398244
1772661250391219968,3.209843873977661,1.7615865468978882,0.6229604482650757,0.46248963475227356,-0.9318508505821228,-0.3215597867965698,-0.1680876761674881,-0.12395066022872925,-0.052021175622940063,0.2723814845085144,0.08769796049549629,0.6297830016428563,0.13903068836494853,0.7591791816261851,0.32737629303266563,-1.3923349054011693,-3.0972631500472825
1772661250401257984,3.219882011413574,1.653682827949524,0.4958544075489044,-0.5780640840530396,-0.9304380416870117,-0.32515162229537964,-0.16900193691253662,-0.22326385974884033,0.7312337160110474,0.3718065023422241,0.0821007768640359,0.6278229504091394,0.14607319326672974,0.7601056173944656,0.3311720488667037,-1.39111826563036,-3.0795797432131313
1772661250411294976,3.229918956756592,0.9099463820457458,0.23715227842330933,-0.5129075050354004,-0.9279170036315918,-0.333144873380661,-0.16728582978248596,-0.2863011360168457,1.3733365535736084,0.25047677755355835,0.08000252078803735,0.6267968446541076,0.15324099479944006,0.7597648025681707,0.33963703528971495,-1.3924312038970759,-3.0667135369338134
1772661250421331968,3.2399559020996094,1.086113452911377,-0.1584959775209427,-0.7170222401618958,-0.9259536862373352,-0.33983200788497925,-0.16469401121139526,-0.14211589097976685,1.5966832637786865,0.37923258543014526,0.07922682149888434,0.6265301944633176,0.1584705340156618,0.7589928961818239,0.3467382723374591,-1.3947729318095008,-3.058232885486897
1772661250431369984,3.2499940395355225,1.5206871032714844,-0.06691120564937592,-1.379751443862915,-0.9224691390991211,-0.351871132850647,-0.15886366367340088,-0.517274022102356,0.8534733057022095,0.11531506478786469,0.07922219616000062,0.626691516473642,0.16681099514039732,0.757070561322267,0.35956933642907385,-1.4002534927178807,-3.04623469527869
1772661250441406976,3.26003098487854,1.722324013710022,0.09758559614419937,-1.3461966514587402,-0.9173134565353394,-0.3675805926322937,-0.1530371606349945,-0.8331441879272461,-0.3050268292427063,0.016898229718208313,0.07940942857893855,0.6260640529260538,0.1775534295652575,0.7551242539454702,0.3764061280915579,-1.4054868716583313,-3.0312694206277393
1772661250451443968,3.2700679302215576,0.5016098618507385,0.27622470259666443,-1.0555301904678345,-0.9126257300376892,-0.38013091683387756,-0.15038196742534637,-0.6948114037513733,-1.2878683805465698,-0.22765451669692993,0.07985826680092453,0.6247112092899544,0.1858626459894683,0.7541973223594618,0.3899378472137948,-1.4074844182227977,-3.0204628019714344
1772661250461481728,3.2801058292388916,-0.7162790298461914,0.28270310163497925,-1.3569046258926392,-0.9076138138771057,-0.39069682359695435,-0.1536010503768921,-0.4572543501853943,-1.5370527505874634,-0.1317840814590454,0.08461386558438698,0.6224646787729478,0.1890428448437412,0.7547457122824922,0.4013884769549508,-1.4031486716285675,-3.024411245410241
1772661250471518976,3.2901430130004883,-0.9111568331718445,0.20726630091667175,-1.6291499137878418,-0.901177167892456,-0.4030512571334839,-0.15946665406227112,-0.2938302755355835,-0.8913213014602661,0.08269970118999481,0.0928679007820667,0.6196519405661491,0.19052071971202186,0.7557175555002257,0.41484846654321456,-1.3956556246524465,-3.0367771544423845
1772661250481556992,3.3001809120178223,-0.038356129080057144,0.010677065700292587,-1.699825644493103,-0.894033670425415,-0.41746199131011963,-0.16257154941558838,-0.11019313335418701,-0.15503254532814026,0.13563977181911469,0.10078203851745945,0.6173565811946545,0.19386871050200535,0.7557307094075596,0.4306504882479378,-1.390921204755912,-3.045655311468522
1772661250491593728,3.31021785736084,0.8741125464439392,-0.12111692130565643,-1.7931361198425293,-0.886573851108551,-0.43403100967407227,-0.16001291573047638,-0.07729345560073853,0.06934592127799988,0.04157416522502899,0.10614560671977513,0.6160952928629982,0.20104758236029027,0.7541483265140585,0.4489624185028104,-1.3922340410597591,-3.044169160762072
1772661250501630976,3.3202550411224365,1.0888512134552002,-0.1476220339536667,-2.0073747634887695,-0.878241777420044,-0.45269444584846497,-0.15413916110992432,-0.1753774881362915,-0.18725910782814026,0.06759132444858551,0.11035166236338416,0.615208374400982,0.21082949815125948,0.7515929436326934,0.46978485660434316,-1.397057024746618,-3.0365067708720574
1772661250511668992,3.3302929401397705,0.6799532771110535,-0.08058680593967438,-2.1373753547668457,-0.868621289730072,-0.4725981652736664,-0.14882151782512665,-0.2983402609825134,-0.6102570295333862,0.12851209938526154,0.11563998810613507,0.6139075493395176,0.22069609063654033,0.7490247153371974,0.492236646823656,-1.4011131060045088,-3.030457360845371
1772661250521705984,3.340329885482788,0.3485473692417145,0.09293198585510254,-2.1145689487457275,-0.8582589626312256,-0.49187710881233215,-0.1464536190032959,-0.34097516536712646,-0.8689780235290527,0.1821286529302597,0.12212268885839796,0.6117676656709206,0.22915826417480914,0.7472034378431207,0.5142443941010015,-1.4017838523749455,-3.0289320698298403
1772661250531742720,3.3503668308258057,0.2845679521560669,0.23795123398303986,-2.095088481903076,-0.8474428057670593,-0.5103048086166382,-0.14638908207416534,-0.3057401776313782,-0.7738443613052368,0.14875417947769165,0.12887837121969403,0.6088671919495967,0.23682525254849005,0.7460462227300539,0.5355391675120136,-1.3997422689735581,-3.0296233633723246
1772661250541780992,3.3604049682617188,0.4917815923690796,0.2882588803768158,-2.263425827026367,-0.8357477784156799,-0.5291443467140198,-0.14673714339733124,-0.2643650770187378,-0.41874682903289795,0.11559398472309113,0.13553636270548766,0.6054879832986175,0.24498107749572262,0.7449821373614084,0.5575918370528169,-1.3969919515305977,-3.0297291818268044
1772661250551817984,3.3704419136047363,1.0207856893539429,0.23292651772499084,-2.5679972171783447,-0.8222377300262451,-0.5503935217857361,-0.14488619565963745,-0.2275211215019226,-0.18143320083618164,0.09230442345142365,0.14197393462550376,0.6019773885113513,0.25530398069792143,0.7431597787285312,0.5828354712863474,-1.396377223561202,-3.02592563777759
1772661250561856000,3.3804800510406494,1.229742407798767,0.27684149146080017,-2.7137560844421387,-0.8069074153900146,-0.5737848281860352,-0.1402541697025299,-0.1453171968460083,-0.25759029388427734,0.07090295851230621,0.14801430477674649,0.5984430814577559,0.26784098145716756,0.7404179475961573,0.6111196415899859,-1.3986987980731411,-3.017477482857671
1772661250571892992,3.390516996383667,0.9893219470977783,0.3239373564720154,-2.730781078338623,-0.7904269099235535,-0.597230851650238,-0.13616418838500977,-0.003274261951446533,-0.5208569169044495,0.16686487197875977,0.15439021321396088,0.5943932576006059,0.2803828884080737,0.7377301631938586,0.6400441229248444,-1.4002040332215653,-3.0096520468229726
1772661250581929984,3.4005539417266846,0.8521842956542969,0.28219497203826904,-2.7006609439849854,-0.7734613418579102,-0.6197400093078613,-0.13296616077423096,0.10199832916259766,-0.7607989311218262,0.17169296741485596,0.16127943415992058,0.5901105814854727,0.2920383878680493,0.7351680524474988,0.6684113517828469,-1.4005498692502985,-3.0041394523176637
1772661250591967744,3.4105918407440186,0.6724926829338074,0.3040386438369751,-2.7376832962036133,-0.7558861374855042,-0.6416178345680237,-0.13024184107780457,0.1380881667137146,-0.7711477279663086,0.019356176257133484,0.1685000414907003,0.5856163440142955,0.3032038563201699,0.7326177554102987,0.6966056172645414,-1.4001682122175043,-3.0000164865529864
1772661250602004992,3.4206290245056152,0.6867305040359497,0.3401077091693878,-2.797337770462036,-0.7372677326202393,-0.6633336544036865,-0.12815909087657928,0.10144925117492676,-0.585338830947876,-0.14421027898788452,0.1762681258138884,0.5807559571989196,0.31407478262078564,0.7300747259376305,0.725264837275617,-1.398686321770508,-2.9975424271514934
1772661250612042752,3.43066668510437,0.6185984015464783,0.3016769587993622,-2.7329044342041016,-0.7181704640388489,-0.6843459010124207,-0.12610295414924622,0.10157805681228638,-0.37896275520324707,-0.1610521674156189,0.18391243476901126,0.575715205822499,0.32480844136953607,0.7274804147042438,0.7537062988640247,-1.396979050675253,-2.995135585528533
1772661250622080512,3.440704584121704,0.6219667792320251,0.3295842111110687,-2.7724952697753906,-0.6986538767814636,-0.7046071887016296,-0.1241440549492836,0.12382465600967407,-0.14828288555145264,-0.0842909961938858,0.1916711252804538,0.5706000647212306,0.33517687430477666,0.7247995412789447,0.7818694438735104,-1.3949414422974642,-2.993564038806153
1772661250632117760,3.450741767883301,0.8762984871864319,0.2836932837963104,-2.9384758472442627,-0.6777837872505188,-0.7252568006515503,-0.12087970972061157,0.06537222862243652,-0.03312033414840698,-0.03651471436023712,0.19937584520555793,0.5653409663872796,0.34633760536144614,0.7215879993709186,0.8114072964461089,-1.3943064010958677,-2.990155458111149
1772661250642154752,3.4607787132263184,1.1060155630111694,0.2990293502807617,-3.066023349761963,-0.6552155017852783,-0.7465640306472778,-0.11547644436359406,0.01311039924621582,-0.04771697521209717,-0.02443140745162964,0.20692890831749094,0.5599886253150567,0.3587123058519066,0.7175783168499295,0.8428825447758308,-1.396345891521281,-2.9834533818071813
1772661250652192512,3.4708166122436523,1.3402180671691895,0.3539625406265259,-3.1682558059692383,-0.6311413645744324,-0.7680684924125671,-0.10831227153539658,0.004096686840057373,-0.15603429079055786,-0.005655646324157715,0.21409793585945253,0.5543772697839319,0.3721689226131454,0.7129644556648151,0.8758194118940222,-1.400838578159861,-2.973150606709831
1772661250662229760,3.480853796005249,1.253352165222168,0.31398847699165344,-3.26025390625,-0.6056185364723206,-0.789459228515625,-0.09990107268095016,0.012555241584777832,-0.3164520263671875,-0.10203373432159424,0.22123916218600032,0.5485274733708423,0.38622153463965475,0.7078161605397435,0.9099274409806031,-1.4073114834050893,-2.9605591394394466
1772661250672267776,3.490891695022583,0.7071240544319153,0.3320404589176178,-3.2787230014801025,-0.5790179371833801,-0.8098781704902649,-0.09399862587451935,0.03324156999588013,-0.4176303744316101,-0.08713847398757935,0.2295225781437298,0.542029972302112,0.399004006756032,0.7030780818417947,0.9439444078889259,-1.4098588750301062,-2.953301698495855
1772661250682304512,3.5009286403656006,0.5935351848602295,0.2602307200431824,-3.3093721866607666,-0.5516536831855774,-0.8291373252868652,-0.09060776978731155,0.05575817823410034,-0.4409738779067993,-0.01621902734041214,0.23883893493639594,0.5350241138175579,0.4104208977168853,0.6987560177555372,0.9775627879638071,-1.4080022916950303,-2.951940221771602
1772661250692341504,3.510965585708618,0.6318543553352356,0.285288006067276,-3.3941383361816406,-0.5231898427009583,-0.8477877974510193,-0.08676532655954361,0.015697777271270752,-0.4360409379005432,-0.0942801833152771,0.24833805738942413,0.5278600103734077,0.4218781161693114,0.69405392963982,1.01179993641723,-1.406452964700457,-2.95061986145549
1772661250702379776,3.5210037231445312,0.6499422788619995,0.3568066656589508,-3.4389429092407227,-0.49351054430007935,-0.8657703399658203,-0.0830022543668747,-0.07527616620063782,-0.34574711322784424,-0.025655575096607208,0.2578599303596741,0.5202015007751069,0.4334619609202411,0.689209347138913,1.0466876002485308,-1.4041683810227827,-2.9495100593864816
1772661250712416768,3.531040668487549,0.804256021976471,0.33388733863830566,-3.491171360015869,-0.4628318250179291,-0.8829851150512695,-0.07825664430856705,-0.13502278923988342,-0.24515819549560547,-0.024480819702148438,0.26712251166590173,0.5123217705954891,0.4454189948659979,0.6839399985093548,1.0821840124533562,-1.4032982784752321,-2.946484244492591
1772661250722453504,3.5410776138305664,0.784457802772522,0.32874399423599243,-3.565823793411255,-0.43101534247398376,-0.8994269967079163,-0.07250436395406723,-0.15470853447914124,-0.24012982845306396,-0.07117235660552979,0.2763657963160409,0.5042960089572796,0.4576388904552899,0.678140233426827,1.118456796963815,-1.4041390267659335,-2.941805616847463
1772661250732491776,3.5511157512664795,0.6258379817008972,0.3342723250389099,-3.6315836906433105,-0.3979686200618744,-0.9149119853973389,-0.0675073191523552,-0.15905353426933289,-0.2543081045150757,-0.041974492371082306,0.2860480360678442,0.4957775038860461,0.4695221067605961,0.6722575876782841,1.155289759684912,-1.402766048023368,-2.9396523375234738
1772661250742528768,3.561152696609497,0.45968762040138245,0.26262450218200684,-3.661020040512085,-0.3639993965625763,-0.9292325973510742,-0.06349349021911621,-0.15832427144050598,-0.27853119373321533,-0.09033036977052689,0.2961884734889869,0.4868652671212321,0.4808486943834734,0.6663476648549755,1.1923304218477773,-1.3981009058270173,-2.941370061984369
1772661250752565504,3.5711896419525146,0.30057746171951294,0.22276002168655396,-3.7115392684936523,-0.3292232155799866,-0.9422857165336609,-0.060908928513526917,-0.18440291285514832,-0.31188005208969116,-0.1780436635017395,0.3069743770464144,0.47760905282518024,0.4913604868613891,0.6604704978636053,1.2293928437527868,-1.3878568255909718,-2.94967766216831
1772661250762603776,3.5812277793884277,0.25983482599258423,0.2470424622297287,-3.7286295890808105,-0.29362228512763977,-0.9541023969650269,-0.058946236968040466,-0.26779434084892273,-0.29344093799591064,-0.17361295223236084,0.3180317200433899,0.4680136693505673,0.5014878739200056,0.6544684850717317,1.2666481487061052,-1.3726746098180014,-2.9632657354358893
1772661250772640768,3.5912647247314453,0.18466705083847046,0.2350943237543106,-3.7191476821899414,-0.25761842727661133,-0.9645342826843262,-0.05750011280179024,-0.3340105712413788,-0.18214839696884155,-0.13083910942077637,0.32907249407952355,0.45810796072238974,0.5112602461339334,0.6484298872729024,1.3036733756487224,-1.3511969807852429,-2.983086482117272
1772661250782678528,3.6013026237487793,0.07107418030500412,0.1860641986131668,-3.727450132369995,-0.2213013470172882,-0.9735526442527771,-0.05675386264920235,-0.3415190875530243,-0.0520821213722229,-0.10410428047180176,0.3402833586858086,0.44800556018655097,0.5204940793779552,0.6423271711046183,1.3402979379378235,-1.319751541563239,-3.0133343683009373
1772661250792715520,3.611339569091797,0.06267852336168289,0.07937650382518768,-3.795870065689087,-0.18432241678237915,-0.9812444448471069,-0.05643070116639137,-0.31006231904029846,-0.013979494571685791,-0.07912838459014893,0.35185653556217383,0.43777057175592227,0.5292840219882909,0.6359341430775044,1.3768144301689633,-1.2737049818568495,-3.059043087404195
1772661250802752768,3.6213767528533936,0.019833320751786232,0.019736073911190033,-3.841647148132324,-0.14651726186275482,-0.9876214861869812,-0.05600504204630852,-0.3065924644470215,-0.0557745099067688,-0.09166949987411499,0.3637564443775141,0.42747712469684157,0.5378297010549554,0.629034014059766,1.413289798011464,-1.2056917365883677,-3.127633969658934
1772661250812790528,3.6314146518707275,-0.09142275899648666,-0.023171313107013702,-3.8911969661712646,-0.10809441655874252,-0.9925388097763062,-0.056414294987916946,-0.34124642610549927,-0.1084744930267334,-0.10271961241960526,0.375983061610559,0.4168903425191877,0.545889452673737,0.6219678646362145,1.4485630445283673,-1.0897839192152752,3.0385098388553806
1772661250822827520,3.641451597213745,-0.19401678442955017,-0.09211549162864685,-3.9076130390167236,-0.06915165483951569,-0.9959348440170288,-0.057724762707948685,-0.4040692150592804,-0.15236544609069824,-0.11869735270738602,0.38854531234250766,0.4060370142829102,0.5534180714108009,0.614731703863407,1.4805973000200638,-0.8752190105605975,2.8221760965122944
1772661250832864768,3.651488780975342,-0.3445813059806824,-0.09639213234186172,-3.9079184532165527,-0.03009876422584057,-0.9977176785469055,-0.06044510379433632,-0.4592353403568268,-0.14769858121871948,-0.11600750684738159,0.401365705517501,0.394868515202265,0.5602287956986033,0.6075592225904349,1.5032216996264085,-0.4620079198424896,2.406745399725657
1772661250842902784,3.661526679992676,-0.4218321740627289,-0.12869255244731903,-3.9360578060150146,0.009151746518909931,-0.9978935718536377,-0.06422413140535355,-0.49366408586502075,-0.0796210765838623,-0.07460027933120728,0.41431140707724223,0.38332537277452283,0.5665241321248732,0.6003816953334292,1.5058786404285829,0.14154409806101803,1.8008511602843158
1772661250852939520,3.6715636253356934,-0.5291299819946289,-0.23034407198429108,-3.937436819076538,0.04847162216901779,-0.9964352250099182,-0.06904511898756027,-0.4960119128227234,-0.011712908744812012,-0.06814663857221603,0.42751733725876917,0.3715891088345427,0.5721878827158596,0.5930863514975999,1.4863345038287425,0.6120858721129815,1.3272865335998136
1772661250862977792,3.6816017627716064,-0.6702900528907776,-0.27712276577949524,-3.9245083332061768,0.08754310756921768,-0.9933185577392578,-0.07519553601741791,-0.4868351221084595,-0.011197984218597412,-0.0549771711230278,0.44100478504813384,0.35972915598617444,0.5770590670023277,0.5857580654307409,1.4551339744528886,0.8611267207729549,1.0743765240120768
1772661250873014784,3.691638708114624,-0.7268213629722595,-0.2665782570838928,-3.9192421436309814,0.12636837363243103,-0.9885438680648804,-0.0825357660651207,-0.5051220655441284,-0.05793440341949463,-0.029631614685058594,0.4545118705120082,0.3475156293628387,0.5813475759876001,0.578521281859668,1.419283332124368,0.9922195151474881,0.9394020076445004
