time,seconds_elapsed,rotationRateX,rotationRateY,rotationRateZ,gravityX,gravityY,gravityZ,accelerationX,accelerationY,accelerationZ,quaternionW,quaternionX,quaternionY,quaternionZ,pitch,roll,yaw
1772660832268014592,0.05407977104187012,0.020993217825889587,0.03217117115855217,0.07383430004119873,-0.07896463572978973,-0.16204358637332916,-0.9836190342903137,-0.005599573254585266,0.012049704790115356,-0.017952561378479004,-0.9278917603163692,-0.09019895428654814,0.007390310290734695,-0.3616994294573317,0.16276126397072666,-0.08010789405200465,0.7499156215623226
1772660832278051584,0.0641167163848877,0.026604052633047104,0.04613199830055237,0.08201872557401657,-0.07869532704353333,-0.1622219681739807,-0.9836112260818481,-0.011026345193386078,0.022161558270454407,-0.01512223482131958,-0.9277428994471785,-0.09023639375580052,0.007195148794334067,-0.3620758294056627,0.16294203304614016,-0.07983648222245196,0.7507136517064532
1772660832288089600,0.07415461540222168,0.022622892633080482,0.0492127388715744,0.097864530980587,-0.07836582511663437,-0.16239140927791595,-0.9836096167564392,-0.005481220781803131,0.03096744418144226,-0.010027468204498291,-0.9275678372034687,-0.09025890725008506,0.006966612705301087,-0.3625227423903331,0.16311374940731985,-0.07950374132508599,0.7516571347305382
1772660832298126592,0.08419179916381836,0.01756816916167736,0.044923584908246994,0.10728134214878082,-0.07808318734169006,-0.16251549124717712,-0.9836115837097168,0.0004006922245025635,0.030145511031150818,-0.005646228790283203,-0.9273730059691637,-0.09026888942429855,0.006763176718154127,-0.3630221472026241,0.16323950907981727,-0.07921804083103108,0.7527152752936966
1772660832308163584,0.09422874450683594,0.01298912987112999,0.04309505969285965,0.11722371727228165,-0.07783561944961548,-0.16259445250034332,-0.9836181402206421,0.0025182515382766724,0.02291552722454071,-0.004006922245025635,-0.9271644689083945,-0.09026417033586383,0.006580783614802476,-0.363558890603545,0.16331953499314222,-0.07896739540850788,0.7538543006992587
1772660832318201600,0.10426664352416992,0.018252111971378326,0.045869141817092896,0.12550920248031616,-0.07759197056293488,-0.16265413165092468,-0.9836275577545166,-0.0025777071714401245,0.02157135307788849,-0.0023648738861083984,-0.9269395308644554,-0.090251202911879,0.006399611138453916,-0.3641384434951864,0.16338000818337198,-0.07872047560932173,0.755084911762835
1772660832328238848,0.1143038272857666,0.030383078381419182,0.053923074156045914,0.1245611235499382,-0.07730133831501007,-0.16280117630958557,-0.9836260676383972,-0.006271041929721832,0.025411054491996765,-0.003541231155395508,-0.9267033892218752,-0.09027061057643788,0.00617838878462603,-0.3647381473010257,0.16352904152830855,-0.07842694093954249,0.7563611542563786
1772660832338275584,0.12434077262878418,0.035703808069229126,0.05395796149969101,0.13075722754001617,-0.0769723504781723,-0.16302898526191711,-0.9836141467094421,-0.008980415761470795,0.028782159090042114,-0.0032022595405578613,-0.9264570932273776,-0.09032079045495173,0.005922567656132796,-0.3653551922559327,0.16375994527823912,-0.07809546331400566,0.7576772882401782
1772660832348313600,0.13437867164611816,0.04643288254737854,0.053440243005752563,0.13573122024536133,-0.07665881514549255,-0.16330809891223907,-0.9835923314094543,-0.005555540323257446,0.02726072072982788,0.0034134984016418457,-0.9261962862398999,-0.09039788206477618,0.005661555941902765,-0.36600076199695264,0.16404284205328115,-0.07778035312928845,0.7590606021318148
1772660832358350592,0.14441561698913574,0.047786127775907516,0.04379959776997566,0.13635173439979553,-0.0764007419347763,-0.16366901993751526,-0.9835524559020996,-0.0018158107995986938,0.02275410294532776,0.01136922836303711,-0.9259241174840315,-0.09052359900848952,0.0054095457374065655,-0.3666617573313147,0.16440868663703367,-0.07752268981883362,0.7604892181752592
1772660832368387584,0.15445280075073242,0.04690328985452652,0.025842968374490738,0.13834217190742493,-0.07628567516803741,-0.16402317583560944,-0.9835023880004883,-0.0005118101835250854,0.015509381890296936,0.01694965362548828,-0.9256556550082972,-0.0906724717617181,0.005226983236476741,-0.3673049938055909,0.16476769676847386,-0.07741032604730098,0.7618935637365242
1772660832378425600,0.1644906997680664,0.04497462511062622,0.01033378392457962,0.13216792047023773,-0.07633119821548462,-0.16438427567481995,-0.9834385514259338,-0.003762185573577881,0.008637815713882446,0.026407301425933838,-0.9253843136844258,-0.09085447838042363,0.005118079738243057,-0.3679445307345632,0.16513376659717643,-0.07746134119217124,0.7633068138183157
1772660832388462592,0.17452764511108398,0.05357823148369789,-0.010490803979337215,0.13392533361911774,-0.0765603631734848,-0.16476456820964813,-0.9833570718765259,-0.0036398321390151978,0.0049134790897369385,0.03085768222808838,-0.9251174604918194,-0.09107973592022378,0.005093266919867869,-0.36855961208069254,0.16551930726014896,-0.07769937711041087,0.7646874999511473
1772660832398500608,0.18456578254699707,0.0494057722389698,-0.027739832177758217,0.12886692583560944,-0.07697059959173203,-0.1651795208454132,-0.9832554459571838,-0.002558201551437378,0.005450516939163208,0.03644758462905884,-0.9248500625377426,-0.0913552857191127,0.005147294689596246,-0.3691611782210385,0.16594002954093187,-0.07812207253533553,0.7660602953112725
1772660832408537600,0.19460272789001465,0.05954762175679207,-0.04787546023726463,0.12344526499509811,-0.07755476981401443,-0.16564108431339264,-0.9831318855285645,-0.0016688629984855652,0.004767671227455139,0.04103899002075195,-0.9245885393800547,-0.09168545691087444,0.005276197710397938,-0.369732284641497,0.16640803989520422,-0.07872239568384347,0.7673889711980418
1772660832418574592,0.20463967323303223,0.07007411867380142,-0.06590186059474945,0.11451701074838638,-0.07830464839935303,-0.16619442403316498,-0.9829790592193604,-0.0024143457412719727,0.000514492392539978,0.04480767250061035,-0.9243357065254558,-0.09209002213470652,0.00546880029427499,-0.3702607038333309,0.16696916081462881,-0.07949268186990163,0.768649812258095
1772660832428612608,0.2146778106689453,0.061248671263456345,-0.08037295192480087,0.1041160374879837,-0.07920625805854797,-0.166782408952713,-0.9828072190284729,-0.0014517009258270264,-0.0035514533519744873,0.0472603440284729,-0.9241021469995382,-0.09253946431433972,0.005731204780284342,-0.3707273428799489,0.167565462172744,-0.08041805043543854,0.7697960611272067
1772660832438649600,0.2247147560119629,0.03446761146187782,-0.09554244577884674,0.09836853295564651,-0.08025376498699188,-0.1671810746192932,-0.9826544523239136,-0.0014265254139900208,-0.007516786456108093,0.05115121603012085,-0.9238875927929159,-0.09292765656698684,0.006100270419994355,-0.37115879181955685,0.16796981244919362,-0.0814895187847168,0.7708675775437765
1772660832448686592,0.23475170135498047,0.013325043022632599,-0.12893450260162354,0.08443967252969742,-0.08151106536388397,-0.16734085977077484,-0.9825237989425659,-0.004517987370491028,-0.015428915619850159,0.05727660655975342,-0.9237051958319055,-0.09324326566112069,0.006618287494890602,-0.371524823810706,0.16813187739653399,-0.08277136724812051,0.7718014327098469
1772660832458724608,0.24478960037231445,0.012098080478608608,-0.1583724170923233,0.06676334142684937,-0.08305059373378754,-0.16738051176071167,-0.9823880791664124,-0.012560978531837463,-0.028908565640449524,0.059704363346099854,-0.9235542608556019,-0.09355579411517244,0.007298372623115467,-0.3718086598177069,0.16817209111527004,-0.08433895682540243,0.7725776188101133
1772660832468761600,0.25482678413391113,0.017718682065606117,-0.18141914904117584,0.054009463638067245,-0.08483576774597168,-0.16745509207248688,-0.982222855091095,-0.01901555061340332,-0.030558228492736816,0.05967646837234497,-0.923430668682109,-0.09393113298103836,0.00809492461243873,-0.37200425424667055,0.16824773557053951,-0.0861573813702663,0.7731915724690585
1772660832478798592,0.2648637294769287,0.03554011136293411,-0.1951884925365448,0.044504906982183456,-0.08677394688129425,-0.1676582247018814,-0.9820188283920288,-0.023241907358169556,-0.017629235982894897,0.060250699520111084,-0.9233195649881062,-0.09439589755086607,0.00894405396865934,-0.3721428117211731,0.16845379094165255,-0.0881339085552589,0.773709262786778
1772660832488836608,0.2749016284942627,0.06555607169866562,-0.2089328020811081,0.04470837116241455,-0.08882120251655579,-0.16811811923980713,-0.9817571640014648,-0.027054034173488617,-0.003177046775817871,0.060370445251464844,-0.9232036841713301,-0.09500224707439961,0.009798029591497405,-0.37225461232322393,0.16892031096046667,-0.0902260296243163,0.7742028974561046
1772660832498873600,0.2849388122558594,0.09709854423999786,-0.23007962107658386,0.04632651060819626,-0.09107471257448196,-0.1688690036535263,-0.9814217686653137,-0.032063715159893036,0.0018462985754013062,0.06494837999343872,-0.9230689673263733,-0.09578506918100745,0.010693108376960473,-0.37236368177454254,0.16968207590660583,-0.09253373873525537,0.7747388159226346
1772660832508911616,0.29497671127319336,0.13130073249340057,-0.24963973462581635,0.051600899547338486,-0.09353673458099365,-0.16997332870960236,-0.9809994697570801,-0.03750574588775635,0.000585511326789856,0.07310152053833008,-0.922905515694021,-0.09677456601628524,0.011616882984654258,-0.37248509221977644,0.17080260530295227,-0.09506102642135364,0.7753569506457059
1772660832518948608,0.30501365661621094,0.15854868292808533,-0.2740132510662079,0.06922916322946548,-0.09622259438037872,-0.17135822772979736,-0.9804986119270325,-0.04141167551279068,0.005602031946182251,0.08564698696136475,-0.9227041367650108,-0.09794002687512215,0.012587085154369487,-0.37264786580995324,0.17220813094285986,-0.09782315447574506,0.7761181441072026
1772660832528985600,0.3150506019592285,0.18866530060768127,-0.30066245794296265,0.10152478516101837,-0.09919097274541855,-0.1729777455329895,-0.9799183011054993,-0.04599640518426895,0.014332115650177002,0.09875375032424927,-0.9224432922780447,-0.09927222090224887,0.013633865886919852,-0.3729040871720867,0.1738521856880305,-0.1008801047608649,0.7771401195233949
1772660832539023616,0.3250887393951416,0.20855094492435455,-0.33018702268600464,0.1332739293575287,-0.10249210894107819,-0.1748114824295044,-0.9792529344558716,-0.054642900824546814,0.021323323249816895,0.11095154285430908,-0.9221041248115095,-0.10077255189914497,0.014779241141896802,-0.3732966400382082,0.17571430623946846,-0.10428388525096993,0.7785226862447991
1772660832549060608,0.3351256847381592,0.2362331748008728,-0.36083415150642395,0.1811399906873703,-0.10616940259933472,-0.17681218683719635,-0.9785016775131226,-0.06840641051530838,0.02867986261844635,0.12321603298187256,-0.921675168993904,-0.10242856840364056,0.01604850043977338,-0.3738526956372177,0.17774665943650012,-0.10807920962143774,0.7803289591966217
1772660832559097600,0.34516263008117676,0.2973598539829254,-0.3940439224243164,0.23691843450069427,-0.11026586592197418,-0.1792038083076477,-0.9776131510734558,-0.08855614811182022,0.039021313190460205,0.1377083659172058,-0.9211115551082314,-0.10435682738148241,0.017409400513718674,-0.3746466390553173,0.1801771030441225,-0.11231622186909324,0.782751163245189
1772660832569135616,0.35520076751708984,0.386191189289093,-0.41745975613594055,0.2992028295993805,-0.11472977697849274,-0.1822420358657837,-0.9765372276306152,-0.10569868981838226,0.057440415024757385,0.14825963973999023,-0.9203939959284158,-0.10667008382848815,0.01878536221791568,-0.3756906642244348,0.18326619588095885,-0.11695021305294455,0.7858429573434795
1772660832579172608,0.3652377128601074,0.4896150529384613,-0.4286911189556122,0.3766273260116577,-0.11948814988136292,-0.18612393736839294,-0.9752335548400879,-0.12176857143640518,0.08828458189964294,0.1603989601135254,-0.9194833291575913,-0.1094508227135604,0.020093410722595493,-0.3770507790972511,0.18721566874393644,-0.12191496807664638,0.7897708497055094
1772660832589209600,0.375274658203125,0.6148313283920288,-0.4485124945640564,0.4641297161579132,-0.1245787963271141,-0.19099625945091248,-0.9736531972885132,-0.1320129930973053,0.12339982390403748,0.17392480373382568,-0.918333310460308,-0.11278012637931746,0.02130830830145406,-0.3788013810526187,0.19217699126261303,-0.1272584133123247,0.7947327196474352
1772660832599247616,0.3853127956390381,0.7555925250053406,-0.47974950075149536,0.5636212229728699,-0.13010285794734955,-0.19702929258346558,-0.971726655960083,-0.13781096041202545,0.15157337486743927,0.1877453327178955,-0.9169093042464492,-0.11676248662421608,0.022431911026042153,-0.38097341678387703,0.1983268929246903,-0.13309679784283068,0.8008500058593494
1772660832609284608,0.39534974098205566,0.9089652895927429,-0.5112696290016174,0.6729362607002258,-0.1361888349056244,-0.20428819954395294,-0.9693909883499146,-0.1416279524564743,0.17464038729667664,0.20202648639678955,-0.9151676925113208,-0.1214601835836973,0.02349291116244157,-0.3836192281629495,0.2057365244615965,-0.13957556595060244,0.8082920902770683
1772660832619321600,0.40538668632507324,1.0830305814743042,-0.5459747314453125,0.78700190782547,-0.1428537219762802,-0.21290506422519684,-0.9665734767913818,-0.1525411754846573,0.20350565016269684,0.21887755393981934,-0.9143380018251622,-0.12686478575412957,0.02487162732046151,-0.38376121485182,0.21454722666291454,-0.14673175403641356,0.8106002372958389
1772660832629359616,0.41542482376098633,1.2882726192474365,-0.5871784090995789,0.9049128293991089,-0.15022101998329163,-0.22315911948680878,-0.9631373882293701,-0.15707571804523468,0.21856622397899628,0.22468829154968262,-0.9118553966735958,-0.1333000697122709,0.0257369877501564,-0.3874124155976078,0.225054121063987,-0.15472389633602515,0.8210259294859507
1772660832639396608,0.4254617691040039,1.486087441444397,-0.6336158514022827,1.0262013673782349,-0.15833468735218048,-0.23504064977169037,-0.9590026140213013,-0.15588955581188202,0.23522375524044037,0.23556816577911377,-0.9089387685076493,-0.14070302058973166,0.026483004588586014,-0.3915759379377804,0.237260385169518,-0.16362737855201295,0.8331013394967764
1772660832649434624,0.4354996681213379,1.6999765634536743,-0.6794763207435608,1.158726453781128,-0.16729922592639923,-0.24854056537151337,-0.9540642499923706,-0.15316586196422577,0.25296562910079956,0.2537010908126831,-0.9055352245926446,-0.14910441995936954,0.027124793780135253,-0.39628038806536103,0.25117324587634754,-0.17358937826206636,0.8469926454830178
1772660832659471616,0.44553661346435547,1.9292324781417847,-0.7326169610023499,1.288793921470642,-0.17716628313064575,-0.2637380361557007,-0.9481847882270813,-0.14751023054122925,0.26622524857521057,0.2773321270942688,-0.9015847707065546,-0.15856924762915925,0.027629863073876302,-0.401543661788258,0.2668954122561913,-0.18471786880731716,0.8628699241029252
1772660832669508608,0.45557379722595215,2.173915147781372,-0.8059260249137878,1.412236213684082,-0.18815618753433228,-0.28069746494293213,-0.9411727786064148,-0.14117425680160522,0.27978193759918213,0.3110916018486023,-0.8970489477884447,-0.16919386447391005,0.028054438273670285,-0.4072954460081256,0.2845207136601388,-0.19731549864008457,0.8807670406643963
1772660832679546624,0.46561169624328613,2.4245617389678955,-0.8905971050262451,1.5270580053329468,-0.20042340457439423,-0.29944872856140137,-0.9328241944313049,-0.13237079977989197,0.30106616020202637,0.34992319345474243,-0.8918805063443702,-0.1810523968961812,0.0284243400340134,-0.413474702312105,0.30411480358855686,-0.2116390622493353,0.9007602896746212
1772660832689583616,0.4756486415863037,2.689659595489502,-0.9837262630462646,1.651982307434082,-0.21407297253608704,-0.3199573755264282,-0.922930121421814,-0.11783620715141296,0.3287464380264282,0.38391339778900146,-0.8860160157658039,-0.19418718259318982,0.028744922885753595,-0.4200484299907186,0.32568451085799166,-0.22791892754173224,0.9230107715347281
1772660832699620608,0.4856858253479004,2.9639229774475098,-1.08513605594635,1.778518557548523,-0.22930659353733063,-0.34215405583381653,-0.9112349152565002,-0.10530339181423187,0.3575044274330139,0.41097551584243774,-0.8793581456338788,-0.20865809332335042,0.0290575087871267,-0.427020777897354,0.3492083737794944,-0.2465251470586479,0.9478327950485432
1772660832709658624,0.4957237243652344,3.253030776977539,-1.1864326000213623,1.904570460319519,-0.24618996679782867,-0.3659670650959015,-0.8974734544754028,-0.09995566308498383,0.3817599415779114,0.42953217029571533,-0.8718322142307503,-0.22450398616526668,0.029346763130657344,-0.43433316487344964,0.3746717494342166,-0.2677287730670652,0.9754325853817262
1772660832719695616,0.505760669708252,3.539451837539673,-1.2844599485397339,2.0325710773468018,-0.2647172510623932,-0.3912341296672821,-0.8813969492912292,-0.09766370058059692,0.3949877917766571,0.44366806745529175,-0.8633475244161897,-0.24171706117598135,0.02956993454271262,-0.4419609501487425,0.4019722431711487,-0.29176713071440163,1.006120086383768
1772660832729732608,0.5157976150512695,3.7984979152679443,-1.3700400590896606,2.16078519821167,-0.28485044836997986,-0.41760775446891785,-0.8628232479095459,-0.09823670983314514,0.40512606501579285,0.4604642391204834,-0.8538351123870855,-0.2602028933731373,0.02971233217992395,-0.4498635215872466,0.4308108989203687,-0.31887168775134606,1.0401672392614214
1772660832739770624,0.5258357524871826,4.004627227783203,-1.4495307207107544,2.307281017303467,-0.30657434463500977,-0.4443817734718323,-0.8417463898658752,-0.10030126571655273,0.4161377549171448,0.48202043771743774,-0.8432471100793743,-0.2797069518757325,0.02984667686126213,-0.4580474318030314,0.4604840289669662,-0.3492795410298261,1.0778730432555492
1772660832749807616,0.5358726978302002,4.171961784362793,-1.520039677619934,2.4708335399627686,-0.32991406321525574,-0.47084832191467285,-0.8182044625282288,-0.10467150807380676,0.42176079750061035,0.5056434273719788,-0.8315367872361171,-0.29998937442732393,0.030068985877980348,-0.466528405215717,0.4902521224991176,-0.38327669469446407,1.1195591544094476
1772660832759845632,0.5459108352661133,4.281478404998779,-1.584803581237793,2.6523947715759277,-0.3548981249332428,-0.4962557256221771,-0.7923241257667542,-0.10613089799880981,0.417535662651062,0.5272332429885864,-0.8186600403623208,-0.3207933357975216,0.030488718437172477,-0.4753501768287754,0.5192806401533331,-0.4211231624579249,1.1655583135085352
1772660832769882624,0.5559477806091309,4.355135440826416,-1.6460751295089722,2.8298118114471436,-0.38151606917381287,-0.5198670625686646,-0.764319121837616,-0.11286869645118713,0.40652477741241455,0.5322024822235107,-0.8046270068435649,-0.3418551039986777,0.031233226824501446,-0.4844945597724906,0.5466952989692053,-0.46297383994521657,1.2159559769767845
1772660832779919616,0.5659847259521484,4.382843971252441,-1.699042558670044,3.0122005939483643,-0.40964892506599426,-0.5411790013313293,-0.7343794107437134,-0.12434768676757812,0.38799601793289185,0.5179487466812134,-0.7894510849466957,-0.36299322135573964,0.032345127375841075,-0.49391987605414106,0.5718385136062165,-0.5088245107973915,1.2707303796604434
1772660832789957632,0.5760226249694824,4.311316967010498,-1.7498061656951904,3.200549602508545,-0.4392937421798706,-0.5593737363815308,-0.7029381990432739,-0.13826671242713928,0.35745418071746826,0.5024682283401489,-0.77322507557613,-0.38389000904427795,0.034049293463444645,-0.5035794114876263,0.5936300612652219,-0.558555695222318,1.3295081363661228
1772660832799994624,0.5860598087310791,4.039284706115723,-1.760528326034546,3.3818676471710205,-0.47009214758872986,-0.5732247233390808,-0.6711384654045105,-0.17517155408859253,0.2951943278312683,0.476146399974823,-0.7562444878604354,-0.40384550094892585,0.03660027416323477,-0.513481791619503,0.6104359355654948,-0.6110211145754713,1.3910518503653528
1772660832810031616,0.5960967540740967,3.637723684310913,-1.8033337593078613,3.540487289428711,-0.5019012689590454,-0.5816291570663452,-0.6401582956314087,-0.2313903570175171,0.169977605342865,0.4336458444595337,-0.738918299083152,-0.42223638712302164,0.040463356729742724,-0.5235255148226716,0.6207300610975428,-0.6649250245118483,1.4534029533562425
1772660832820069632,0.6061346530914307,3.2079970836639404,-1.886619210243225,3.6602680683135986,-0.534583568572998,-0.5843824148178101,-0.6105060577392578,-0.29804277420043945,-0.0011430978775024414,0.3786029815673828,-0.7215602184604867,-0.4389044239537438,0.04593354270681567,-0.5334828296140965,0.6241188076695877,-0.7191924366261097,1.514674248612652
1772660832830106624,0.6161718368530273,2.80009126663208,-2.0132789611816406,3.748873472213745,-0.5679513216018677,-0.5818299055099487,-0.582155704498291,-0.3625448942184448,-0.15649712085723877,0.323061466217041,-0.7043455958004701,-0.45398367600559086,0.05311285053016135,-0.5431161396255983,0.6209768407437823,-0.7730483178582668,1.5734430907344061
1772660832840144640,0.6262097358703613,2.4491395950317383,-2.0959463119506836,3.826539993286133,-0.6017136573791504,-0.57454514503479,-0.5548319220542908,-0.41285842657089233,-0.24141860008239746,0.27439069747924805,-0.6872669369611271,-0.46771408188035174,0.06186738027160198,-0.5523404749086289,0.6120482880681469,-0.8259119697401907,1.629075509257401
1772660832850181632,0.6362466812133789,2.1418159008026123,-2.070359230041504,3.88112473487854,-0.6351308226585388,-0.5630500316619873,-0.5287565588951111,-0.4539041519165039,-0.2342064380645752,0.23325490951538086,-0.6703307641126703,-0.48007370135440713,0.07177021532448194,-0.5612797089459138,0.5980717980528978,-0.8765406199750686,1.6811470059179434
1772660832860218624,0.6462836265563965,1.961860179901123,-1.9535975456237793,3.8565070629119873,-0.6671935319900513,-0.5482857823371887,-0.5042177438735962,-0.5009125471115112,-0.18727946281433105,0.1928163766860962,-0.6535772044220852,-0.4910686229678676,0.08211417554706871,-0.5700401060756822,0.580313055156399,-0.9236384976999377,1.729526893499355
1772660832870256640,0.6563217639923096,1.8928728103637695,-1.858895182609558,3.752084493637085,-0.6972336173057556,-0.5317316651344299,-0.48075640201568604,-0.5327621102333069,-0.14726918935775757,0.15888750553131104,-0.6369827144971038,-0.5011187719025372,0.09220504280215398,-0.578473227724357,0.5606439690118914,-0.9671387147514513,1.7747097568598165
1772660832880293632,0.6663587093353271,1.8355170488357544,-1.7964670658111572,3.632260799407959,-0.7252082228660583,-0.5141614675521851,-0.45794206857681274,-0.5255088806152344,-0.14085251092910767,0.12938985228538513,-0.6205693519894384,-0.5105380061330905,0.101881851096913,-0.5863997597584012,0.5400297325009532,-1.0075630568102834,1.8169845161727438
1772660832890330624,0.6763956546783447,1.8203290700912476,-1.7989046573638916,3.5202078819274902,-0.7513832449913025,-0.49584144353866577,-0.4353901147842407,-0.4938254952430725,-0.17984822392463684,0.09916269779205322,-0.6043011830772489,-0.5195494933859027,0.11123518555128804,-0.5937299094281359,0.5188034965249213,-1.045623101599005,1.8566759017109273
1772660832900368640,0.6864337921142578,1.8597664833068848,-1.8368395566940308,3.392763614654541,-0.7759935855865479,-0.4771575927734375,-0.41249775886535645,-0.4590526819229126,-0.2452697455883026,0.06240013241767883,-0.5880573630579508,-0.5284787307870964,0.12025533320701831,-0.6003643169537592,0.49741751173813215,-1.0822099822477607,1.8944037677463148
1772660832910405632,0.6964707374572754,1.9680192470550537,-1.8892202377319336,3.2541699409484863,-0.7991166114807129,-0.4585433304309845,-0.38878095149993896,-0.4338850975036621,-0.293028324842453,0.023210883140563965,-0.5717199970943667,-0.5376043744441219,0.1288062996209626,-0.606239801896992,0.4763553522716018,-1.1179960852889834,1.9308372882185958
1772660832920442624,0.706507682800293,2.1464576721191406,-1.9278888702392578,3.105473279953003,-0.8206802606582642,-0.44043898582458496,-0.3640018403530121,-0.42394858598709106,-0.28793928027153015,-0.00973162055015564,-0.5551420245065457,-0.5471221994964495,0.13658833678237783,-0.61140672420065,0.45608759271126814,-1.1533302181488618,1.9668195790456098
1772660832930480640,0.716545820236206,2.373025894165039,-1.9236600399017334,2.9616217613220215,-0.8406222462654114,-0.42309805750846863,-0.3381454050540924,-0.4206845164299011,-0.23948433995246887,-0.03394019603729248,-0.5381936890727882,-0.5571200292646907,0.1433337765338349,-0.6159709998386277,0.4368617863801899,-1.1883465678018823,2.003087563213277
1772660832940517632,0.7265827655792236,2.6559200286865234,-1.8988265991210938,2.8177881240844727,-0.8588944673538208,-0.40663638710975647,-0.31136325001716614,-0.4191816449165344,-0.18796813488006592,-0.06160733103752136,-0.5207380576798819,-0.5676110284274632,0.14878204368961517,-0.6200914743866881,0.4187692663652381,-1.223014927402089,2.0403532396654773
1772660832950554624,0.7366197109222412,2.96836256980896,-1.8569059371948242,2.677022933959961,-0.8755209445953369,-0.39110636711120605,-0.2837234437465668,-0.4178445339202881,-0.15981218218803406,-0.08321994543075562,-0.502640806102303,-0.5786272403575473,0.15273767772174016,-0.6238702014230701,0.4018333928498416,-1.2574126761192703,2.079247281221966
1772660832960592384,0.7466576099395752,3.2889177799224854,-1.7665505409240723,2.5436818599700928,-0.8904953598976135,-0.37642422318458557,-0.2555830776691437,-0.4165571331977844,-0.15809112787246704,-0.09761211276054382,-0.4838568081161214,-0.5900549580433256,0.1550600157975936,-0.6274345034866599,0.38593357540116124,-1.29129707822909,2.120081947588672
1772660832970629632,0.7566947937011719,3.5260009765625,-1.655806541442871,2.4275386333465576,-0.9038621783256531,-0.3623111844062805,-0.2275165170431137,-0.4144361615180969,-0.18030661344528198,-0.1089092493057251,-0.46446448644239513,-0.6016412755708647,0.1557867705253242,-0.6308970073654115,0.37074637557794665,-1.3242033241998696,2.162664798276365
1772660832980667648,0.7667326927185059,3.6439287662506104,-1.5085034370422363,2.3533334732055664,-0.9157945513725281,-0.3481766879558563,-0.2002333700656891,-0.4029920697212219,-0.21764972805976868,-0.0996323823928833,-0.44468583645054877,-0.6129997504361422,0.15528883874615326,-0.634327393761778,0.35562538236993474,-1.3555393940036895,2.2060852931618786
1772660832990704640,0.7767696380615234,3.63924241065979,-1.353840947151184,2.311220645904541,-0.9264686703681946,-0.33346229791641235,-0.17452435195446014,-0.3842918276786804,-0.26573508977890015,-0.08765214681625366,-0.42480516360016773,-0.6237148755163977,0.15400512649454962,-0.637810907574042,0.3399737030636917,-1.384602374573022,2.2492189259238873
1772660833000741632,0.7868068218231201,3.514791488647461,-1.1977795362472534,2.27837872505188,-0.9360552430152893,-0.3178647458553314,-0.15087363123893738,-0.36419206857681274,-0.32085293531417847,-0.07806922495365143,-0.4051495126782799,-0.6335127599977438,0.1523967404408999,-0.6413196026077903,0.32347657169104005,-1.410990470170916,2.290897262181372
1772660833010779648,0.7968447208404541,3.2588436603546143,-1.053466558456421,2.2596232891082764,-0.9447013735771179,-0.30120089650154114,-0.12968218326568604,-0.3434608578681946,-0.3816298842430115,-0.06433331966400146,-0.3860968924650513,-0.6421615906889181,0.15095495139337234,-0.6448025695122025,0.3059517974751194,-1.4343757533019401,2.329863870372741
1772660833020816640,0.8068816661834717,2.936288595199585,-0.8788401484489441,2.242802619934082,-0.9524850249290466,-0.2834952175617218,-0.11136706918478012,-0.3235158324241638,-0.4416329264640808,-0.053900882601737976,-0.3680023877973592,-0.6494678694524532,0.15002650068120293,-0.6482728908252532,0.2874369138482035,-1.4544021661660123,2.365135650771106
1772660833030853632,0.8169186115264893,2.5813148021698,-0.7056217789649963,2.214831590652466,-0.9594513177871704,-0.2649664580821991,-0.09615570306777954,-0.3046325445175171,-0.4997124969959259,-0.04880279302597046,-0.35109574588843845,-0.6553578431951932,0.14976063098555714,-0.6517742096180829,0.26816914698234234,-1.4709103834273336,2.39627597570032
1772660833040891648,0.8269567489624023,2.2349910736083984,-0.5300567746162415,2.1685516834259033,-0.9656414985656738,-0.2459227591753006,-0.0840149000287056,-0.28336668014526367,-0.5477631092071533,-0.044464111328125,-0.3354839917172787,-0.6598778125380401,0.15017930308152685,-0.6553304054432053,0.24847157206149773,-1.4840106336316112,2.423277784479769
1772660833050928640,0.8369936943054199,1.9190868139266968,-0.3678843379020691,2.099964141845703,-0.9710694551467896,-0.22679732739925385,-0.07474668323993683,-0.2569273114204407,-0.581735372543335,-0.04169314354658127,-0.3212151252830033,-0.6631530502273661,0.15117767371688756,-0.6589341360579732,0.22878804914782275,-1.4939742379620113,2.4464204299042205
1772660833060965632,0.8470306396484375,1.6392050981521606,-0.21942511200904846,2.013701915740967,-0.9757750034332275,-0.20793889462947845,-0.06800474971532822,-0.22222304344177246,-0.5967485904693604,-0.037021517753601074,-0.30824166000191067,-0.6653599717039249,0.15262284070407942,-0.662562809062341,0.2094673153357494,-1.501215765913521,2.466174905172875
1772660833071003648,0.8570687770843506,1.4097367525100708,-0.11565690487623215,1.9277595281600952,-0.9798239469528198,-0.18956273794174194,-0.06333325803279877,-0.17953884601593018,-0.6027346253395081,-0.03444504737854004,-0.2964403888621667,-0.6667041294260005,0.15439874742464918,-0.6661755057143631,0.190716788224144,-1.5062487329469556,2.483088637965236
1772660833081040640,0.8671057224273682,1.2299816608428955,-0.039999693632125854,1.8261187076568604,-0.983281672000885,-0.1718570739030838,-0.060185473412275314,-0.1387428641319275,-0.6001155972480774,-0.031031548976898193,-0.2856746337724452,-0.6674187637044111,0.1563951958585062,-0.6696885499037045,0.17271448539755946,-1.509663814707306,2.4976916763231176
1772660833091078400,0.8771436214447021,1.128311038017273,0.01286245509982109,1.7057632207870483,-0.9861931204795837,-0.15506334602832794,-0.05812520161271095,-0.10851818323135376,-0.5868342518806458,-0.037577927112579346,-0.27576991274836493,-0.6677203276846478,0.15838864390559174,-0.673062816300965,0.15569156806057077,-1.5119254645606226,2.5106893733800746
1772660833101115648,0.8871808052062988,1.101704478263855,0.04515914246439934,1.575352430343628,-0.9886025190353394,-0.1394273191690445,-0.056788913905620575,-0.08753877878189087,-0.5641096234321594,-0.05373048409819603,-0.2665134015224643,-0.6678145514790406,0.16009143703054074,-0.6762876804647164,0.13988306438955672,-1.5134157606218397,2.5229041980959153
1772660833111152640,0.8972177505493164,1.1372915506362915,0.08476993441581726,1.420458436012268,-0.9905573129653931,-0.1251765936613083,-0.05592105910181999,-0.07511651515960693,-0.5414798855781555,-0.06357049942016602,-0.2577278334951346,-0.6678638309732536,0.1612370108619989,-0.6793651363469062,0.12550581786070095,-1.5144020501427191,2.53504436099734
1772660833121190656,0.9072556495666504,1.237616777420044,0.12703123688697815,1.2510695457458496,-0.9920961260795593,-0.11251041293144226,-0.05555952340364456,-0.06555157899856567,-0.5201189517974854,-0.07658159732818604,-0.24927439650814692,-0.6679226866874581,0.16155346945447233,-0.6823797698152806,0.11274914367818782,-1.514852607187753,2.547734383951075
1772660833131227648,0.9172928333282471,1.3701034784317017,0.16018199920654297,1.0768767595291138,-0.9932669401168823,-0.10163669288158417,-0.055592894554138184,-0.052082061767578125,-0.5076772570610046,-0.09278356283903122,-0.2410300983643622,-0.6680893723671738,0.16081089364817877,-0.6853472387301662,0.10181249367911796,-1.5148849195966834,2.561514798349817
1772660833141264640,0.9273297786712646,1.5107640027999878,0.17848123610019684,0.9030054807662964,-0.9941375255584717,-0.0925624743103981,-0.05588128790259361,-0.034060657024383545,-0.5001194477081299,-0.10061287879943848,-0.2329148563265946,-0.6684242817638153,0.1589601691205894,-0.6882523395624832,0.092695163045943,-1.5146445940009672,2.576596360046861
1772660833151302656,0.9373676776885986,1.6388790607452393,0.18598122894763947,0.7294510006904602,-0.9947651028633118,-0.08529079705476761,-0.056283991783857346,-0.013749301433563232,-0.496648907661438,-0.10068315267562866,-0.22494445482389608,-0.66896050142713,0.15604439095314124,-0.6910441143936665,0.08539454292378887,-1.5142764039674173,2.5929041299778945
1772660833161339648,0.9474046230316162,1.737675428390503,0.18118634819984436,0.5584328174591064,-0.9951939582824707,-0.0798155888915062,-0.05673278123140335,0.0016330480575561523,-0.4976990520954132,-0.09661806374788284,-0.21717871498441502,-0.6696924609745956,0.15213683733588734,-0.6936857321231691,0.07990057788243005,-1.5138512028909228,2.6102471692625975
1772660833171377664,0.9574427604675293,1.8073452711105347,0.17603926360607147,0.3934694230556488,-0.9954646229743958,-0.07606987655162811,-0.05712762102484703,0.009456992149353027,-0.5010175108909607,-0.09048593044281006,-0.20968325234071425,-0.6706126906155994,0.14735945102540582,-0.696129852163263,0.07614343069430525,-1.513471305185213,2.6283571806092363
1772660833181414656,0.9674797058105469,1.8469035625457764,0.18015611171722412,0.23969437181949615,-0.995600163936615,-0.0739695206284523,-0.057524777948856354,0.01281195878982544,-0.5091603398323059,-0.07966697961091995,-0.20254642751097982,-0.6716545639448888,0.1418370823456159,-0.6983820603315827,0.0740371378290594,-1.513081500519904,2.6469228861795844
1772660833191451648,0.9775166511535645,1.8541396856307983,0.1932745724916458,0.0912385880947113,-0.9956153631210327,-0.0733930841088295,-0.05799815431237221,0.015451669692993164,-0.5165727138519287,-0.0618901327252388,-0.19584746010693044,-0.6727436342453224,0.13570897004530297,-0.7004591427229608,0.07345913592603051,-1.5126085107751002,2.665627480880988
1772660833201489664,0.9875547885894775,1.8303091526031494,0.21277131140232086,-0.034137971699237823,-0.9955154657363892,-0.07420732080936432,-0.058673642575740814,0.01947164535522461,-0.5234031081199646,-0.0410730317234993,-0.18965517838025475,-0.6737913478862341,0.12910614818255003,-0.7024015410360658,0.07427559756465242,-1.511926475259108,2.684181511633057
1772660833211526656,0.9975917339324951,1.7592443227767944,0.2325868159532547,-0.14380401372909546,-0.9953152537345886,-0.07617906481027603,-0.05953551456332207,0.03170746564865112,-0.5259479880332947,-0.015491962432861328,-0.1840277199565309,-0.6747511111004313,0.12224230101852494,-0.7042028349832834,0.07625294127827084,-1.5110517742073253,2.7022020966401006
1772660833221563648,1.0076286792755127,1.6423146724700928,0.23891369998455048,-0.23672837018966675,-0.9950230121612549,-0.07911152392625809,-0.06058627739548683,0.04879498481750488,-0.5257773995399475,0.008874237537384033,-0.17907560193221966,-0.675573977122709,0.11535451015572624,-0.70585062677027,0.07919428157696336,-1.5099820853025272,2.719196591195529
1772660833231601664,1.0176668167114258,1.495688557624817,0.23385155200958252,-0.3210355341434479,-0.9946489930152893,-0.08287680149078369,-0.06168368458747864,0.0663958191871643,-0.5227445363998413,0.025932371616363525,-0.1748723365221145,-0.6762840927173571,0.10861852083148409,-0.7072917096040983,0.08297196885338563,-1.5088601162034085,2.7348209419749363
1772660833241638656,1.0277037620544434,1.327816128730774,0.21720373630523682,-0.39839619398117065,-0.9941983819007874,-0.08739273250102997,-0.06270486861467361,0.0831572413444519,-0.5174046158790588,0.034750767052173615,-0.171482569206995,-0.6769119699149689,0.1021653113536246,-0.7084815329536339,0.08750436225160842,-1.5078089783012207,2.7488076139606825
1772660833251675136,1.0377402305603027,1.1502047777175903,0.20059733092784882,-0.47596263885498047,-0.9936686158180237,-0.09257405251264572,-0.06365885585546494,0.09251517057418823,-0.5069895386695862,0.04243386536836624,-0.16893487641139995,-0.677451293455333,0.09607454537347765,-0.7094295715323553,0.09270679241331724,-1.506819288883489,2.7610098256418953
1772660833261713152,1.0477783679962158,0.9734125733375549,0.179249569773674,-0.5496718883514404,-0.9930534958839417,-0.09839163720607758,-0.06452625244855881,0.0940515398979187,-0.4944428503513336,0.0417143777012825,-0.16724351579063676,-0.6779148808473621,0.09037857897305034,-0.7101356239399048,0.09855108813669948,-1.5059099208207634,2.7713680020311955
1772660833271750144,1.0578153133392334,0.8037812113761902,0.16070251166820526,-0.6153797507286072,-0.992347002029419,-0.10479305684566498,-0.06531345844268799,0.09380269050598145,-0.47650575637817383,0.03825962543487549,-0.1663781714591055,-0.6783101087564759,0.08508036680843614,-0.7106159602714226,0.10498581107165011,-1.5050739651844751,2.779927787924724
1772660833281787136,1.067852258682251,0.6430938839912415,0.14283697307109833,-0.6729059219360352,-0.9915418028831482,-0.11172656714916229,-0.06604581326246262,0.0931500792503357,-0.455549418926239,0.03269010782241821,-0.16629365252171516,-0.6786386247312478,0.08016675634268901,-0.7108933391455323,0.11196032443947905,-1.5042853653461283,2.7867766938057352
1772660833291825408,1.077890396118164,0.4943097233772278,0.1263006031513214,-0.7279995083808899,-0.9906321167945862,-0.11914694309234619,-0.06672218441963196,0.08970755338668823,-0.4323667287826538,0.026973016560077667,-0.16693146465283978,-0.678912232653238,0.07561143620558086,-0.7109816431441577,0.11943065816565362,-1.5035447605003296,2.7920404599423123
1772660833301862144,1.0879273414611816,0.3725740611553192,0.10067299753427505,-0.776316225528717,-0.9896210432052612,-0.12696577608585358,-0.06730445474386215,0.08541572093963623,-0.4082973003387451,0.01806432008743286,-0.16820319352044363,-0.6791543783831612,0.07139399873075498,-0.7108867296730841,0.12730939793050094,-1.5028905660054728,2.7958831312518924
1772660833311900160,1.0979652404785156,0.2711813747882843,0.08520882576704025,-0.8211984634399414,-0.9885018467903137,-0.13515155017375946,-0.06780911982059479,0.079947829246521,-0.38312849402427673,0.01042080670595169,-0.17000958074766676,-0.6793728637552604,0.06743850713241561,-0.7106343864585081,0.13556641139944847,-1.5023057535293327,2.7985573014503626
1772660833321937408,1.1080024242401123,0.19583608210086823,0.063597671687603,-0.8596512079238892,-0.9872671365737915,-0.14369596540927887,-0.06822767108678818,0.06928318738937378,-0.3584097623825073,0.00020397454500198364,-0.17225906217283696,-0.6795830501320923,0.06366350890282492,-0.7102398216313606,0.14419512997742318,-1.5017984187132722,2.8003129226071057
1772660833331974144,1.1180393695831299,0.1501074731349945,0.056423116475343704,-0.9011720418930054,-0.9859110116958618,-0.15257500112056732,-0.06855954229831696,0.054651856422424316,-0.334104061126709,-0.009885907173156738,-0.17484009967810069,-0.6797961722818355,0.05997827311153672,-0.7097258338916363,0.15317325870126047,-1.5013688143432138,2.8014419062652474
1772660833342012160,1.1280772686004639,0.11769082397222519,0.04949023947119713,-0.934268593788147,-0.9844207763671875,-0.16177675127983093,-0.06887557357549667,0.03863537311553955,-0.30933836102485657,-0.01915239542722702,-0.17768143803835237,-0.6799933655139989,0.05631372979234866,-0.7091311562193833,0.16249086269312757,-1.5009445742622092,2.802140057066723
1772660833352049408,1.1381144523620605,0.08666472882032394,0.04880154877901077,-0.9568489789962769,-0.9827990531921387,-0.17122963070869446,-0.06918630003929138,0.027262985706329346,-0.28535908460617065,-0.023236162960529327,-0.1807276882698668,-0.6801715492066329,0.05266415921564652,-0.7084707414355821,0.17207759817538368,-1.5005150726011676,2.802496953878225
1772660833362086400,1.1481513977050781,0.06610480695962906,0.05622471123933792,-0.981170654296875,-0.9810434579849243,-0.18087098002433777,-0.06956598162651062,0.017954468727111816,-0.26485350728034973,-0.024672329425811768,-0.18393427724258396,-0.6803043321811723,0.04902065932508694,-0.7077790293949389,0.18187196734719097,-1.5000046264546192,2.8025838884524243
1772660833372124160,1.158189296722412,0.05297063663601875,0.059263378381729126,-1.0060338973999023,-0.9791406393051147,-0.19073456525802612,-0.07002756744623184,0.009643018245697021,-0.24725370109081268,-0.03049730509519577,-0.1872835608324257,-0.6803899312302024,0.045340444571831943,-0.7070633789368376,0.19191039202749205,-1.4993984752476237,2.8024826127482103
1772660833382161152,1.1682262420654297,0.03948749601840973,0.05723058432340622,-1.0362176895141602,-0.977083683013916,-0.2008388787508011,-0.07050617039203644,0.001238405704498291,-0.2315952032804489,-0.03555767983198166,-0.19077110528383956,-0.6804522625162186,0.0416129131531407,-0.7062997892721888,0.2022141708169733,-1.4987613769299455,2.802218022210618
1772660833392198400,1.1782634258270264,0.02216522954404354,0.05417114496231079,-1.0602519512176514,-0.974863588809967,-0.21119637787342072,-0.07097350060939789,-0.00649029016494751,-0.21331840753555298,-0.038264162838459015,-0.19441331296017517,-0.6805004311032209,0.03784723986902019,-0.705471679426728,0.2127987816711073,-1.4981210280248494,2.80175390155786
1772660833402236160,1.1883013248443604,-9.138137102127075e-06,0.059548333287239075,-1.0870110988616943,-0.9724804759025574,-0.2217443734407425,-0.07149136066436768,-0.02008843421936035,-0.1966821402311325,-0.04175936430692673,-0.1981975531782305,-0.680509956925163,0.03406637673666686,-0.7046015497332506,0.22360301596558266,-1.497413889404575,2.801069598264919
1772660833412273152,1.198338270187378,-0.01626693643629551,0.08460122346878052,-1.1113337278366089,-0.9699136018753052,-0.23249541223049164,-0.07220437377691269,-0.034038424491882324,-0.17793549597263336,-0.0403444766998291,-0.20213776421656132,-0.6804280713019242,0.030256433763775025,-0.7037346876514984,0.23464262070205424,-1.4964892613708543,2.8001432382137086
1772660833422311424,1.208376407623291,-0.029057567939162254,0.11245150119066238,-1.1347695589065552,-0.9671410918235779,-0.2434709072113037,-0.07321325689554214,-0.04047304391860962,-0.1595289558172226,-0.039228737354278564,-0.20622370209269134,-0.6802187413377672,0.026378696463008115,-0.7029071934767123,0.24594284209049413,-1.4952397380822604,2.799024868673953
1772660833432348160,1.2184133529663086,-0.04345941171050072,0.13518929481506348,-1.157121181488037,-0.9641609191894531,-0.25463980436325073,-0.07451453804969788,-0.039928436279296875,-0.13770943880081177,-0.039590656757354736,-0.2104298457217113,-0.6798821168851176,0.022428540772200616,-0.702122948885847,0.2574751978123908,-1.4936653143554532,2.7977523838278975
1772660833442385152,1.2284502983093262,-0.05865887179970741,0.1527845412492752,-1.177903413772583,-0.9609798192977905,-0.2659607529640198,-0.07604435831308365,-0.03345072269439697,-0.11711114645004272,-0.04007500410079956,-0.21475529816884967,-0.6794393276996398,0.018439695499401453,-0.7013575462460161,0.2692004325151678,-1.491828778964623,2.7962821987330613
1772660833452423424,1.2384884357452393,-0.07386472076177597,0.15096212923526764,-1.1870779991149902,-0.9576088190078735,-0.27739235758781433,-0.077708899974823,-0.022249460220336914,-0.09678366780281067,-0.043934158980846405,-0.219192418958896,-0.678923367915492,0.014443339298892716,-0.7005776563408944,0.2810788779109877,-1.4898248539658336,2.794590276011971
1772660833462460160,1.2485253810882568,-0.10369398444890976,0.14109592139720917,-1.1935076713562012,-0.954076886177063,-0.2888557016849518,-0.07937011122703552,-0.014703571796417236,-0.07979664206504822,-0.04862057417631149,-0.22372367301972285,-0.6783839837854886,0.010493518241921226,-0.6997376250975605,0.29303136531650553,-1.4877969661705925,2.7926465121883304
1772660833472497152,1.2585623264312744,-0.13675206899642944,0.12509219348430634,-1.1949883699417114,-0.9504019618034363,-0.3002942204475403,-0.08099225908517838,-0.012916028499603271,-0.06240719556808472,-0.05081314593553543,-0.22836586698253256,-0.6778345290460963,0.006650037993341545,-0.698817061488015,0.3050010951075027,-1.4857827767320473,2.790347777966522
1772660833482535168,1.2686002254486084,-0.17090080678462982,0.12073153257369995,-1.1899223327636719,-0.9465939998626709,-0.3116607964038849,-0.08262936770915985,-0.018814444541931152,-0.04672238230705261,-0.05331117659807205,-0.23311778156164684,-0.6772567335565229,0.002937935102020214,-0.6978330314320519,0.316940385393885,-1.4837257851501655,2.7876521485632826
1772660833492572416,1.278637409210205,-0.21276429295539856,0.12194806337356567,-1.1749407052993774,-0.9426864385604858,-0.32284075021743774,-0.08435909450054169,-0.027894794940948486,-0.026493966579437256,-0.057517118752002716,-0.23794775657732892,-0.6766240402441227,-0.0006015954128852473,-0.696821759971736,0.3287294302691941,-1.4815460926234079,2.784538673337908
1772660833502609152,1.2886743545532227,-0.25067079067230225,0.12862154841423035,-1.1546326875686646,-0.9386878609657288,-0.33379343152046204,-0.08629600703716278,-0.03747791051864624,-0.009102076292037964,-0.058143675327301025,-0.24285499247671724,-0.6758967041089967,-0.003954786592365583,-0.6958228548254368,0.3403249681612019,-1.4791214206172414,2.780966794510448
1772660833512647168,1.2987122535705566,-0.28888821601867676,0.1406923234462738,-1.123287558555603,-0.9346349239349365,-0.34442684054374695,-0.08847389370203018,-0.0420953631401062,0.009923666715621948,-0.05909382551908493,-0.24780133401078314,-0.6750649498705039,-0.007096989133517315,-0.694860719334357,0.35162818858002526,-1.4764161206788629,2.7769526302019107
1772660833522684416,1.3087494373321533,-0.3210199475288391,0.15844228863716125,-1.0813161134719849,-0.9305588006973267,-0.3546675145626068,-0.09094604849815369,-0.044645607471466064,0.0291212797164917,-0.058620624244213104,-0.25273887047079524,-0.6741115649566995,-0.010028611912961225,-0.6939711962628508,0.3625584539057582,-1.4733729962946043,2.7725577802271157
1772660833532722176,1.3187873363494873,-0.3453710973262787,0.1774788349866867,-1.0342692136764526,-0.9265031814575195,-0.3644256293773651,-0.09373144060373306,-0.04390990734100342,0.04888913035392761,-0.05730002373456955,-0.257609359784557,-0.6730318615216438,-0.012743386478997936,-0.6931832357151982,0.37301593059201876,-1.4699724779636039,2.7678585686439616
1772660833542759168,1.3288242816925049,-0.3586471378803253,0.19875110685825348,-0.9775902032852173,-0.9225064516067505,-0.3736472427845001,-0.0967961922287941,-0.038781940937042236,0.06805950403213501,-0.055410198867321014,-0.2623585482828222,-0.6718402701894778,-0.015249786205663297,-0.6925070713467328,0.3829379613756327,-1.4662514917181042,2.7629569579123228
1772660833552796160,1.3388612270355225,-0.3664539158344269,0.2177160084247589,-0.9113592505455017,-0.9186265468597412,-0.38223695755004883,-0.10009998828172684,-0.032285869121551514,0.08684208989143372,-0.05312877148389816,-0.26692778320372745,-0.6705540639946757,-0.01752860159320429,-0.69195336671694,0.392215882018781,-1.4622575511834115,2.7579296345905147
1772660833562834176,1.3488993644714355,-0.35930055379867554,0.22498123347759247,-0.8404468894004822,-0.9149092435836792,-0.3901534974575043,-0.10354404151439667,-0.0251237154006958,0.10428011417388916,-0.04994410276412964,-0.2712482321265451,-0.6692113135391351,-0.019600906125119413,-0.6915174933737291,0.4007983100340943,-1.458101723032156,2.7529390675177567
1772660833572871168,1.3589363098144531,-0.34708380699157715,0.23482240736484528,-0.7596595883369446,-0.9114262461662292,-0.39728638529777527,-0.10707789659500122,-0.020351648330688477,0.12072086334228516,-0.04924838989973068,-0.27524798542326,-0.6678331679048334,-0.021445528645952026,-0.6912144717537783,0.40855795842723014,-1.453848526434984,2.7480911646544564
1772660833582908160,1.3689732551574707,-0.3237561881542206,0.24705258011817932,-0.6723064184188843,-0.9082212448120117,-0.40359535813331604,-0.1106574758887291,-0.01846027374267578,0.13493385910987854,-0.046233415603637695,-0.27888026292404827,-0.6664376325073297,-0.023068225385983746,-0.6910532607822755,0.41544306750143534,-1.449554133822641,2.7434885924568673
1772660833592946176,1.3790113925933838,-0.28565675020217896,0.2660185396671295,-0.583698034286499,-0.9053139090538025,-0.409087210893631,-0.11425714194774628,-0.01929253339767456,0.1469717025756836,-0.04333563148975372,-0.2820923326579937,-0.6650340909461061,-0.024517095490352497,-0.6910518492646703,0.4214535084839277,-1.445252874693217,2.7392964862033127
1772660833602983168,1.3890483379364014,-0.23605278134346008,0.29190847277641296,-0.49102404713630676,-0.9027301669120789,-0.41374146938323975,-0.11788211762905121,-0.021220028400421143,0.15913331508636475,-0.0421673059463501,-0.28482332173001584,-0.663620103973331,-0.025832097625409774,-0.6912428604238164,0.42655996813371877,-1.4409470639083726,2.7356766259280625
1772660833613021184,1.3990862369537354,-0.17325037717819214,0.3183848261833191,-0.39524611830711365,-0.900484025478363,-0.41756749153137207,-0.12151500582695007,-0.018461287021636963,0.17081761360168457,-0.042806923389434814,-0.2870246578842668,-0.6622010803337705,-0.02705966038949204,-0.6916460906196458,0.43076660076848766,-1.436662492829809,2.7327846759118666
1772660833623058432,1.409123420715332,-0.096499502658844,0.3427620530128479,-0.29753047227859497,-0.8985819220542908,-0.420598566532135,-0.1250891536474228,-0.012993335723876953,0.18161541223526,-0.04211662709712982,-0.2886598271290128,-0.6608007701736603,-0.02824476421111875,-0.692257215583906,0.4341049689371135,-1.432477948476991,2.7307652332134573
1772660833633095168,1.4191603660583496,-0.010952910408377647,0.36433154344558716,-0.2024603933095932,-0.8970529437065125,-0.422820121049881,-0.12852685153484344,-0.005412876605987549,0.19181731343269348,-0.04115086793899536,-0.289677305615447,-0.6594479938201554,-0.029409514606391667,-0.6930732037435263,0.4365550605602043,-1.428488060117739,2.729760783005244
1772660833643133184,1.4291982650756836,0.08560927212238312,0.38248831033706665,-0.1100672259926796,-0.8958835005760193,-0.4243077039718628,-0.13174061477184296,0.0040836334228515625,0.1994084119796753,-0.040973588824272156,-0.29005355673866545,-0.6581735975836982,-0.030613805981623738,-0.6940743244013271,0.43819721301845055,-1.4247916662889637,2.729916884452397
1772660833653170432,1.4392354488372803,0.17473435401916504,0.392438143491745,-0.006340830586850643,-0.8950954675674438,-0.4250456988811493,-0.13468489050865173,0.012878179550170898,0.20266413688659668,-0.039143189787864685,-0.28978605344018493,-0.6569961630657367,-0.03183699016661676,-0.6952455516423983,0.43901237489375333,-1.4214468870952914,2.7312294367927685
1772660833663207168,1.4492723941802979,0.25893840193748474,0.4074518382549286,0.08605394512414932,-0.894697368144989,-0.4250270128250122,-0.1373625099658966,0.019041359424591064,0.20359152555465698,-0.03539745509624481,-0.28888398341464344,-0.6559159196576316,-0.033061279767725806,-0.6965825131977997,0.4389917424367858,-1.4184562622758223,2.733664994024278
1772660833673245184,1.4593102931976318,0.34021034836769104,0.41724666953086853,0.180567666888237,-0.8946748971939087,-0.42427757382392883,-0.13980381190776825,0.022024869918823242,0.19928675889968872,-0.030148550868034363,-0.28737319219079693,-0.654922002370715,-0.03428216608162708,-0.6980819546640337,0.43816394686475363,-1.4157877435719683,2.7371702389518795
1772660833683282176,1.4693472385406494,0.4205493927001953,0.4260830581188202,0.2806053161621094,-0.8950506448745728,-0.42275696992874146,-0.14198924601078033,0.021408677101135254,0.19390565156936646,-0.02134084701538086,-0.2852458182357465,-0.6540237954149378,-0.03547188818168283,-0.6997353029338924,0.43648536629269186,-1.4134691383095768,2.741728629410958
1772660833693319424,1.479384422302246,0.4933120012283325,0.41329509019851685,0.384568452835083,-0.8958486318588257,-0.42043232917785645,-0.14384737610816956,0.013554811477661133,0.18921583890914917,-0.010251179337501526,-0.2825104375949425,-0.6532516630562378,-0.03658660019423693,-0.7015066816289668,0.4339217405278161,-1.4115842994714118,2.747285522134803
1772660833703357184,1.48942232131958,0.5668593049049377,0.397365927696228,0.49259665608406067,-0.8971009850502014,-0.41726595163345337,-0.1452552080154419,-0.008325040340423584,0.18574437499046326,-0.0012139081954956055,-0.2791548663293365,-0.6526554688894599,-0.03759302124706029,-0.7033493119651455,0.4304347673098809,-1.4102732311063955,2.7538439600955975
1772660833713394176,1.4994592666625977,0.6512548327445984,0.3831494450569153,0.601900041103363,-0.8988093137741089,-0.41322726011276245,-0.14623674750328064,-0.04737293720245361,0.18048498034477234,0.004696249961853027,-0.27514926381166016,-0.6522263920317071,-0.03850138006896007,-0.7052739692519155,0.4259952245359597,-1.4095090590374297,2.761453858793864
1772660833723432192,1.5094974040985107,0.734041690826416,0.378728985786438,0.7073133587837219,-0.9009401202201843,-0.40834537148475647,-0.14683690667152405,-0.09637433290481567,0.17055240273475647,0.01179659366607666,-0.270498951396129,-0.6519464777961284,-0.03933624823705421,-0.7072827070961353,0.42064068695178897,-1.4092349903351258,2.770116828984024
1772660833733469184,1.5195343494415283,0.824683427810669,0.39139896631240845,0.810726523399353,-0.9034544825553894,-0.40263643860816956,-0.1471523493528366,-0.14941716194152832,0.15660375356674194,0.023571446537971497,-0.2651874119828451,-0.6517765090028355,-0.04013982240074872,-0.7094024150549745,0.4143952336485899,-1.4093367183397636,2.7798795926097566
1772660833743506176,1.529571294784546,0.9144447445869446,0.4268532693386078,0.90840083360672,-0.9062880873680115,-0.396135538816452,-0.14737124741077423,-0.1977461576461792,0.14047455787658691,0.038820236921310425,-0.25920397524414707,-0.6516406980587074,-0.040972918974425385,-0.7116872655067381,0.40730422157870083,-1.409597538502656,2.7907819351403456
1772660833753544448,1.539609432220459,0.9955137372016907,0.47258293628692627,1.0017848014831543,-0.9093829393386841,-0.38885581493377686,-0.14769482612609863,-0.23221856355667114,0.12608423829078674,0.05730177462100983,-0.25257290312439373,-0.6514609682989804,-0.04184726819201159,-0.7141808754962913,0.3993893386010369,-1.4097900298616928,2.8027431037435924
1772660833763581184,1.5496463775634766,1.0696431398391724,0.5118985176086426,1.081163763999939,-0.9126668572425842,-0.38088294863700867,-0.14821402728557587,-0.25302833318710327,0.11011573672294617,0.07979363203048706,-0.24536373216404375,-0.6512017805242565,-0.04276945266477008,-0.7168707342016221,0.3907510236209625,-1.4098051250705665,2.8156284240383114
1772660833773618176,1.5596833229064941,1.1666375398635864,0.5405173897743225,1.150141954421997,-0.9161006212234497,-0.37229862809181213,-0.14883938431739807,-0.25379061698913574,0.09161323308944702,0.09810395538806915,-0.23757058703121323,-0.6508937936657824,-0.043790112082714557,-0.719708127768449,0.3814844758907678,-1.4097330945308575,2.8295229660676537
1772660833783656448,1.5697214603424072,1.259227991104126,0.5311055183410645,1.2087088823318481,-0.9196456670761108,-0.36325937509536743,-0.14931419491767883,-0.2390305995941162,0.07109934091567993,0.10921411216259003,-0.2292196609630696,-0.6506311136129589,-0.04496725556260701,-0.7225756771491182,0.3717638743066051,-1.409840264379377,2.8445010231222474
1772660833793693184,1.5797584056854248,1.33613920211792,0.47858819365501404,1.2581347227096558,-0.9233222603797913,-0.3538035452365875,-0.1493292897939682,-0.2179589867591858,0.049207597970962524,0.1248847097158432,-0.22037689826426723,-0.6505361481946814,-0.04623935466641339,-0.7253266478273277,0.3616345683674971,-1.4104543041912843,2.8604257056735762
1772660833803730176,1.5897953510284424,1.3931525945663452,0.4213263988494873,1.284533143043518,-0.9271001815795898,-0.34405317902565,-0.14870382845401764,-0.20545297861099243,0.025236040353775024,0.14197468757629395,-0.21117830188732947,-0.6506812191941189,-0.047560845964948195,-0.7278431935873755,0.35123022333087983,-1.4117542608548086,2.8770387963380326
1772660833813768192,1.5998332500457764,1.4258184432983398,0.3691875636577606,1.2902987003326416,-0.93089759349823,-0.33414334058761597,-0.14757314324378967,-0.20092302560806274,-0.0048001110553741455,0.15341724455356598,-0.20176140277888652,-0.6510143308328564,-0.04892618397602011,-0.7301224848673006,0.3406961853680017,-1.4135768508092654,2.8940731194308897
1772660833823805440,1.609870433807373,1.4311552047729492,0.3184588551521301,1.2786616086959839,-0.9346371293067932,-0.3242274224758148,-0.14604775607585907,-0.195520281791687,-0.03832137584686279,0.15967388451099396,-0.1922811023035184,-0.6514934962434049,-0.05032239021556995,-0.7321556137616536,0.3301949108872104,-1.4157884012797133,2.911236555365957
1772660833833842176,1.6199073791503906,1.3998750448226929,0.2697214186191559,1.2673850059509277,-0.9382911324501038,-0.3143340051174164,-0.14423537254333496,-0.18414533138275146,-0.06612861156463623,0.16449905931949615,-0.18288079533627802,-0.6520842453727281,-0.05165703922251654,-0.7339429529143675,0.3197550233342891,-1.4182689209909642,2.9281608616636556
1772660833843880192,1.6299452781677246,1.323270320892334,0.23103472590446472,1.2436374425888062,-0.9418251514434814,-0.30446484684944153,-0.14236094057559967,-0.16095805168151855,-0.08651107549667358,0.16091561317443848,-0.17372070359033603,-0.6527102297722334,-0.05280987457331766,-0.7355281343764399,0.30937656356949045,-1.4207776432898782,2.944402030432002
1772660833853917440,1.6399824619293213,1.1967443227767944,0.1707245111465454,1.2094746828079224,-0.9452316761016846,-0.29463231563568115,-0.1404595971107483,-0.12601161003112793,-0.10421717166900635,0.1519494652748108,-0.16498961566067555,-0.6533715920905958,-0.05362616020875813,-0.7368909071119619,0.2990707318363988,-1.4232777450793705,2.959464429859402
1772660833863955200,1.6500203609466553,1.0293048620224,0.10087021440267563,1.1628226041793823,-0.9484922289848328,-0.28491920232772827,-0.1385045349597931,-0.08805257081985474,-0.12087303400039673,0.1379246711730957,-0.1569004783988044,-0.6540906206870575,-0.05397401745001333,-0.737993553136225,0.28892215041133473,-1.4257951738809302,2.972857113074428
1772660833873992192,1.6600573062896729,0.8225032091140747,0.03558947145938873,1.10276460647583,-0.9515882730484009,-0.27538466453552246,-0.1365402191877365,-0.05012083053588867,-0.13602280616760254,0.12105254828929901,-0.14963102728549987,-0.6548602392893474,-0.053739727112928015,-0.7388374436933274,0.27898981702002257,-1.4282824049703626,2.984158962121846
1772660833884029184,1.6700942516326904,0.6083951592445374,-0.025557104498147964,1.0182468891143799,-0.9544652104377747,-0.26622065901756287,-0.13462036848068237,-0.017428040504455566,-0.14927613735198975,0.10628481209278107,-0.14335087891907278,-0.655660519187131,-0.052906531486387666,-0.7394326551373449,0.26947005895034726,-1.4306778597598953,2.9930886891749635
1772660833894067200,1.6801323890686035,0.3814304769039154,-0.06673170626163483,0.9273588061332703,-0.9570820331573486,-0.2575599253177643,-0.13287867605686188,0.015553772449493408,-0.15395432710647583,0.10391749441623688,-0.13812166765513648,-0.6564350478135517,-0.051513993200922675,-0.7398389611062459,0.2604960784137895,-1.4328409311606327,2.999597028051959
1772660833904104192,1.690169334411621,0.14548920094966888,-0.10505392402410507,0.8282099366188049,-0.959434986114502,-0.24946723878383636,-0.13134150207042694,0.05027061700820923,-0.14300407469272614,0.11304624378681183,-0.1340180218814087,-0.6571722642765533,-0.049536501283244355,-0.7400742573874888,0.25213005437924,-1.4347473466042415,3.0035452972122956
1772660833914141184,1.7002062797546387,-0.07643573731184006,-0.1270550936460495,0.7161515951156616,-0.9614924788475037,-0.2420719563961029,-0.13012821972370148,0.08011436462402344,-0.1144191175699234,0.11920292675495148,-0.1310853245460965,-0.6578181812734444,-0.04702263567789127,-0.7401896674607368,0.24450075430776627,-1.4362738720218915,3.0049241663212314
1772660833924179200,1.7102444171905518,-0.23491309583187103,-0.13343895971775055,0.6006287336349487,-0.9632410407066345,-0.23550818860530853,-0.12923943996429443,0.10832148790359497,-0.07812096178531647,0.11948905885219574,-0.12919576370382976,-0.6583532869897847,-0.044172756008491756,-0.7402218060176347,0.2377414286131973,-1.437421422713592,3.0042041344528467
1772660833934216192,1.7202813625335693,-0.3260962665081024,-0.15119904279708862,0.4823122024536133,-0.9646859765052795,-0.2299235463142395,-0.1285150796175003,0.13537079095840454,-0.0408894419670105,0.11029607057571411,-0.12816591704564353,-0.658818459761689,-0.04123954180621565,-0.7401560845461006,0.23199911697795392,-1.4383565482722032,3.0020261289696095
1772660833944254208,1.7303192615509033,-0.34531137347221375,-0.16510488092899323,0.3854907155036926,-0.9658785462379456,-0.225296750664711,-0.12774954736232758,0.15588104724884033,-0.0008384883403778076,0.09785760939121246,-0.12771756476861812,-0.6592778996505512,-0.03844319863395168,-0.7399749911485859,0.22724760292266638,-1.4392970417238506,2.999135007999494
1772660833954291456,1.7403564453125,-0.29397308826446533,-0.1728466898202896,0.30087757110595703,-0.9668619632720947,-0.22158487141132355,-0.1267998218536377,0.16960549354553223,0.03689250349998474,0.0849602222442627,-0.12756155806549582,-0.6597756449047263,-0.03600257978637475,-0.7396810192000981,0.22343944195777082,-1.4403947904251269,2.9962797084510466
1772660833964328192,1.7503933906555176,-0.15362559258937836,-0.15844684839248657,0.2542971670627594,-0.9676743745803833,-0.21866858005523682,-0.12566007673740387,0.1688157320022583,0.07650245726108551,0.059604763984680176,-0.1273360762613139,-0.6603054211901837,-0.03415719064734819,-0.7393345680980326,0.22044982752984385,-1.4416611514310937,2.9943304155411505
1772660833974366208,1.7604312896728516,-0.047962550073862076,-0.1243104413151741,0.27334755659103394,-0.9684273600578308,-0.21602588891983032,-0.12442408502101898,0.1543557047843933,0.14549978077411652,0.058094143867492676,-0.12672549973391495,-0.6608401105882219,-0.032837549378183735,-0.739021457789143,0.21774241126718613,-1.443015799156051,2.9936686859751016
1772660833984403200,1.7704682350158691,0.13586148619651794,-0.029828816652297974,0.29239168763160706,-0.9691384434700012,-0.21334317326545715,-0.12351220101118088,0.1275094747543335,0.23630765080451965,0.08139795809984207,-0.125580392498532,-0.6612267510534869,-0.031985654676161476,-0.7389084076401645,0.21499563949042585,-1.4440343201561563,2.9943998913471987
1772660833994440192,1.7805054187774658,0.47905611991882324,0.05852821096777916,0.30623719096183777,-0.9697518944740295,-0.21084734797477722,-0.12298250198364258,0.09862762689590454,0.3137068748474121,0.06876802444458008,-0.12348903967352386,-0.6614200720518807,-0.03212844874412395,-0.7390816779497592,0.21244172097436936,-1.4446511894406855,2.99784135425452
1772660834004478208,1.7905433177947998,0.8982200026512146,0.10037219524383545,0.3466457426548004,-0.970337986946106,-0.2085445076227188,-0.12228452414274216,0.09430038928985596,0.3755214512348175,0.056076645851135254,-0.11999108118970078,-0.6616079521632141,-0.03365494607025601,-0.7394217236286651,0.2100865048374512,-1.445434584405314,3.005267422730112
1772660834014515200,1.8005802631378174,1.3258275985717773,0.12540218234062195,0.405597984790802,-0.9709783792495728,-0.20624734461307526,-0.12109270691871643,0.10319560766220093,0.41468238830566406,0.053831979632377625,-0.11487944209001058,-0.6619013471001028,-0.036609480436880976,-0.7398305723817021,0.2077382842955081,-1.4467248576590057,3.017082250552743
1772660834024552448,1.810617446899414,1.729891300201416,0.15988492965698242,0.46289098262786865,-0.9717246294021606,-0.20381209254264832,-0.11921433359384537,0.10641396045684814,0.4062199592590332,0.05682116746902466,-0.10814668749582709,-0.6623594827125804,-0.04089926208161379,-0.7402104929041836,0.20525017883007868,-1.4487230914283002,3.0331868984133465
1772660834034590208,1.820655345916748,2.1787476539611816,0.2327098697423935,0.5068155527114868,-0.9724689722061157,-0.20140941441059113,-0.11721080541610718,0.08661997318267822,0.34609323740005493,0.024223744869232178,-0.09979637545722947,-0.6627343581476999,-0.046666554761648174,-0.7407064899033184,0.20279660928437757,-1.4508458482578832,3.0536959990315746
1772660834044627200,1.8306922912597656,2.410444736480713,0.28548482060432434,0.5463124513626099,-0.9732362627983093,-0.19894945621490479,-0.11502362787723541,0.06317156553268433,0.2558037042617798,-0.012829780578613281,-0.09006472560599944,-0.6630316062369573,-0.0536402357638565,-0.7412153805450954,0.20028582978620108,-1.4531552946289739,3.07789270044331
1772660834054664192,1.8407292366027832,2.371579885482788,0.3119521141052246,0.5859019756317139,-0.9740117788314819,-0.19616900384426117,-0.11321981996297836,0.05213683843612671,0.16005145013332367,0.02204854041337967,-0.07987031936451923,-0.6630909696517652,-0.06083137975586372,-0.7417752916442827,0.19744947595784829,-1.455074956378051,3.1030155360883387
1772660834064702208,1.8507673740386963,2.175107479095459,0.2946726977825165,0.6265796422958374,-0.9748525023460388,-0.1928013563156128,-0.11176010221242905,0.04710286855697632,0.06174363195896149,0.031575143337249756,-0.06992268585218697,-0.6630046099890656,-0.0674154002245558,-0.7422876388828445,0.1940162774415211,-1.4566515692482047,3.126904507097083
1772660834074739200,1.8608043193817139,1.9243959188461304,0.22518204152584076,0.6182585954666138,-0.9757581949234009,-0.1889665722846985,-0.11039747297763824,0.03758680820465088,-0.020704448223114014,0.01399242877960205,-0.060682038713621475,-0.6629206513802488,-0.07305800725342261,-0.7426415245418035,0.1901096524748257,-1.4581352122222206,-3.134735743502583
1772660834084777472,1.870842456817627,1.6720694303512573,0.12613295018672943,0.5668047070503235,-0.9766876697540283,-0.18509134650230408,-0.10873132199048996,0.02141118049621582,-0.06358113884925842,-0.012926995754241943,-0.052404581778785576,-0.6630065534311458,-0.07782447934825266,-0.7427109015489376,0.1861648082511802,-1.4599262463299063,-3.115790647645979
1772660834094814208,1.8808794021606445,1.4366869926452637,0.044998154044151306,0.5170589685440063,-0.9775919914245605,-0.18146009743213654,-0.10670670866966248,0.007407665252685547,-0.06127670407295227,-0.03428447246551514,-0.045185396645238,-0.6632876317232922,-0.08183007783277772,-0.7425036925122633,0.18247099715622497,-1.4620741406259672,-3.099427249542104
1772660834104851200,1.890916347503662,1.2343345880508423,-0.02484723925590515,0.4804123044013977,-0.9784819483757019,-0.17798136174678802,-0.10438217967748642,0.0003020763397216797,-0.039685264229774475,-0.057834021747112274,-0.038874513204562255,-0.6637457336392671,-0.08514992714191327,-0.7420780280144186,0.17893468095667006,-1.464520574333059,-3.0853251009466014
1772660834114889216,1.900954246520996,1.0069310665130615,-0.07600043714046478,0.46246418356895447,-0.9793736934661865,-0.1744878888130188,-0.10188712179660797,0.0005377531051635742,-0.0261804461479187,-0.08326302468776703,-0.03338789965435706,-0.6643473320434597,-0.08774430441890649,-0.7415043749869608,0.17538566107257353,-1.4671362870036995,-3.0734240758505313
1772660834124926208,1.9109914302825928,0.7189717292785645,-0.1282804161310196,0.43539902567863464,-0.9802609086036682,-0.1709229052066803,-0.09936755895614624,0.002950727939605713,-0.0328734815120697,-0.09626537561416626,-0.0288611676020881,-0.6650679187086967,-0.08944765177083668,-0.7408446588605023,0.17176628054827947,-1.4697729235390151,-3.064162773664224
1772660834134963200,1.9210283756256104,0.4083230495452881,-0.16710877418518066,0.3906853497028351,-0.9811142683029175,-0.1673857420682907,-0.09693631529808044,0.004002511501312256,-0.056201279163360596,-0.11006443947553635,-0.025495039102793802,-0.6658880000598907,-0.0901388547696273,-0.7401473432482657,0.16817740679293358,-1.4723136873174547,-3.058012961130023
1772660834145001216,1.9310662746429443,0.13010919094085693,-0.18256177008152008,0.3333885073661804,-0.9818879961967468,-0.16406400501728058,-0.09475618600845337,0.001907646656036377,-0.08642427623271942,-0.12880031764507294,-0.023342034691119368,-0.6667401603137341,-0.08988584441242672,-0.7394816634721815,0.16480909053853068,-1.4745901777281776,-3.0549731123356936
1772660834155038464,1.941103458404541,-0.06314229965209961,-0.174348846077919,0.27561017870903015,-0.9825534820556641,-0.1610911339521408,-0.0929434671998024,-0.004995465278625488,-0.111949622631073,-0.1643807291984558,-0.022185965227780647,-0.6675430859186842,-0.08896345501990652,-0.7389043385734558,0.16179613399957918,-1.476483166622517,-3.054356907609881
1772660834165075200,1.9511404037475586,-0.24807485938072205,-0.1589760184288025,0.24039757251739502,-0.9831203818321228,-0.15842050313949585,-0.09152916818857193,-0.013065099716186523,-0.12089163064956665,-0.20121067762374878,-0.02184014337407094,-0.668265419479056,-0.0875028222733537,-0.7384360154450359,0.15909074140410992,-1.4779632507147102,-3.0557087839889903
1772660834175113216,1.9611783027648926,-0.3953295648097992,-0.13872641324996948,0.2433193325996399,-0.9836386442184448,-0.15574489533901215,-0.09054701775312424,-0.017505884170532227,-0.11567842960357666,-0.22447067499160767,-0.022102540312575494,-0.6688950928094214,-0.08547425029782989,-0.7380956123082645,0.1563815103882189,-1.4790018990846336,-3.0587694729396318
1772660834185150208,1.9712152481079102,-0.49950000643730164,-0.09505455940961838,0.24466928839683533,-0.984129011631012,-0.1528913378715515,-0.09007880836725235,-0.02588069438934326,-0.10232715308666229,-0.23906850814819336,-0.02275157747976898,-0.6693867189105696,-0.08295791464519404,-0.7379171409797581,0.15349335498980862,-1.479519162482851,-3.0631059716615567
1772660834195188224,1.9812533855438232,-0.5337640047073364,-0.0304353479295969,0.21702568233013153,-0.984542727470398,-0.1501103639602661,-0.09023617208003998,-0.03572094440460205,-0.09001718461513519,-0.24844789505004883,-0.023663635340891002,-0.6696598353633563,-0.08023477416477695,-0.7379418330616586,0.15067990161842446,-1.479398800704977,-3.0681601439284263
1772660834205225216,1.9912903308868408,-0.5203534364700317,0.03397120535373688,0.18107633292675018,-0.9848397970199585,-0.1476505547761917,-0.09104957431554794,-0.031731247901916504,-0.0847560465335846,-0.25233423709869385,-0.024695352226884876,-0.669665952091306,-0.07760622699546198,-0.7381835698979214,0.14819236945929748,-1.4786072320803538,-3.073310708040174
1772660834215262208,2.0013272762298584,-0.5107668042182922,0.08740140497684479,0.15202364325523376,-0.9850296974182129,-0.1455184370279312,-0.09241797775030136,-0.00972139835357666,-0.08595737814903259,-0.23921656608581543,-0.02577801652771703,-0.6694358160052156,-0.07514452703082233,-0.7386099231958905,0.1460369719781593,-1.4772476518635493,-3.078348691718962
1772660834225300224,2.0113654136657715,-0.48075851798057556,0.1199130117893219,0.1155383363366127,-0.98512864112854,-0.14370931684970856,-0.09417606145143509,0.020757973194122314,-0.10088905692100525,-0.218766450881958,-0.02691102459721791,-0.6690324460754589,-0.07285297392268945,-0.739164236922275,0.1442086337603958,-1.4754882295887124,-3.0832556933328825
1772660834235337216,2.021402359008789,-0.43883076310157776,0.12837865948677063,0.05974617972970009,-0.9851372838020325,-0.14238330721855164,-0.09608078002929688,0.05212336778640747,-0.12121227383613586,-0.20393753051757812,-0.028071780127510982,-0.6685338577115167,-0.07086671403269636,-0.7397650587326415,0.14286884089965587,-1.473573468123163,-3.087798344425728
1772660834245373696,2.0314388275146484,-0.4221135079860687,0.12556970119476318,-0.0029532895423471928,-0.9850536584854126,-0.14167332649230957,-0.09797052294015884,0.07938337326049805,-0.13864588737487793,-0.18269963562488556,-0.02935507301034807,-0.6680022803046991,-0.06919314547309334,-0.7403537420536819,0.1421515808377776,-1.4716652819240932,-3.0920973454308234
1772660834255411712,2.0414767265319824,-0.43999555706977844,0.09920519590377808,-0.0721302255988121,-0.9848855137825012,-0.14161317050457,-0.09973114728927612,0.09873133897781372,-0.1596716195344925,-0.15815764665603638,-0.03088703771048445,-0.667491819383561,-0.06774288982337377,-0.7408856921744957,0.14209081402992385,-1.4698786617408708,-3.0964544656592827
1772660834265448704,2.051513910293579,-0.5151711106300354,0.06174970418214798,-0.12192095816135406,-0.9846645593643188,-0.14208932220935822,-0.10122263431549072,0.11032086610794067,-0.1858525574207306,-0.13551746308803558,-0.03280645886888377,-0.6670763883752394,-0.06631571253584301,-0.7413062127553804,0.14257184015863744,-1.468357058479922,-3.101337415610515
1772660834275485696,2.0615508556365967,-0.6593623757362366,0.03280460461974144,-0.16802507638931274,-0.9844062328338623,-0.14294755458831787,-0.10251978039741516,0.1120917797088623,-0.21371138095855713,-0.11105751991271973,-0.035295779002479225,-0.6667545018414247,-0.06464167200973575,-0.741629330051738,0.1434389225333252,-1.4670266365312454,-3.107387288260019
1772660834285523712,2.0715887546539307,-0.8525620102882385,0.019519958645105362,-0.21047131717205048,-0.9841025471687317,-0.1440558284521103,-0.10387501120567322,0.10490643978118896,-0.2353692203760147,-0.08881299942731857,-0.038518779089727125,-0.6664521709204617,-0.06248198044913912,-0.7419257015343054,0.1445587763445767,-1.4656326931100239,-3.1151878416948717
1772660834295560704,2.0816256999969482,-1.0646880865097046,0.019581742584705353,-0.25697705149650574,-0.9837403297424316,-0.1453712284564972,-0.10546166449785233,0.09743356704711914,-0.2449333369731903,-0.07228797674179077,-0.04259480482898422,-0.666111773575319,-0.05970152403300718,-0.742237521544843,0.1458881724021253,-1.4639994364714326,-3.1251119937747895
1772660834305598720,2.0916638374328613,-1.2657043933868408,0.023704051971435547,-0.2992999851703644,-0.983307957649231,-0.1468738466501236,-0.1073954850435257,0.0940713882446289,-0.2401653230190277,-0.06852312386035919,-0.04751844242165671,-0.665682384002486,-0.056295843813776496,-0.7425899972830723,0.14740709252640916,-1.4620089612365803,-3.1371677911905005
1772660834315635712,2.101700782775879,-1.4338254928588867,0.02744978666305542,-0.3457798659801483,-0.9828035831451416,-0.1485770344734192,-0.10964593291282654,0.09463512897491455,-0.22154013812541962,-0.07600773870944977,-0.05321717715818933,-0.6651593710934023,-0.05234542794745859,-0.7429610146274382,0.14912917838901768,-1.459691327455333,3.1320460824990457
1772660834325672704,2.1117377281188965,-1.5755306482315063,0.0201127789914608,-0.3831474781036377,-0.9822320342063904,-0.15049098432064056,-0.11212921887636185,0.10289841890335083,-0.19293858110904694,-0.07944490015506744,-0.0596050648346444,-0.6645578451353095,-0.04794016303022969,-0.7433115105402072,0.1510648868737465,-1.457130813824149,3.1164110076384524
1772660834335710720,2.1217758655548096,-1.655638337135315,0.013415194116532803,-0.4204905927181244,-0.9815996289253235,-0.1526353657245636,-0.11473750323057175,0.11137562990188599,-0.1661664992570877,-0.09096622467041016,-0.066507598653688,-0.6638978717631321,-0.04325349047834454,-0.7436030805663291,0.15323433678274806,-1.4544360579796767,3.0996098300269557
1772660834345747712,2.131812810897827,-1.6837148666381836,0.0023546870797872543,-0.4594852924346924,-0.9809109568595886,-0.15502606332302094,-0.11739178001880646,0.11572235822677612,-0.14619767665863037,-0.10546284914016724,-0.07371051047051384,-0.6631912960065427,-0.03848914978765485,-0.7438163784068975,0.15565383011791448,-1.451686534921191,3.0822378395239864
1772660834355784704,2.1418497562408447,-1.6767454147338867,0.0039046467281877995,-0.4987668991088867,-0.9801540374755859,-0.15773938596248627,-0.12006916850805283,0.11882579326629639,-0.13640427589416504,-0.11432112753391266,-0.0810898523275206,-0.6624366456093762,-0.033809879016667974,-0.7439483471556525,0.15840095906066048,-1.4489033238825433,3.064695651612391
1772660834365822720,2.151887893676758,-1.6542545557022095,-0.004060868173837662,-0.5312401652336121,-0.9793310761451721,-0.1607549786567688,-0.12275398522615433,0.12351137399673462,-0.1311609148979187,-0.11667168140411377,-0.08854233674225265,-0.6616380339178081,-0.029293666497475432,-0.7440008542271127,0.16145553478717883,-1.4461019218392868,3.0472398850350744
1772660834375859712,2.1619248390197754,-1.6054641008377075,-0.0074454788118600845,-0.5627200603485107,-0.9784461259841919,-0.16410155594348907,-0.12535437941551208,0.12757033109664917,-0.13510803878307343,-0.11327777802944183,-0.0960000880117647,-0.6608305261683091,-0.025016460313956115,-0.7439496515646393,0.16484714613480503,-1.443374675323135,3.0300778445964003
1772660834385896704,2.171961784362793,-1.547141671180725,-0.013759167864918709,-0.5938693284988403,-0.9774970412254333,-0.1677829474210739,-0.12786100804805756,0.12953561544418335,-0.1405361443758011,-0.11220550537109375,-0.10338313436666226,-0.6600200168455769,-0.021049312589487456,-0.7438027058370661,0.16858030319195688,-1.440730281119721,3.013422684076516
1772660834395934464,2.181999683380127,-1.4981297254562378,-0.014227617532014847,-0.638881266117096,-0.9764634966850281,-0.17187073826789856,-0.13030660152435303,0.13103485107421875,-0.14944882690906525,-0.10950054228305817,-0.11073312649337563,-0.6591993963393579,-0.01740282205123345,-0.7435668297870497,0.17272835657791377,-1.4381326377695192,2.9972196956466637
1772660834405971712,2.1920368671417236,-1.4573240280151367,-0.026778563857078552,-0.6877278685569763,-0.9753255844116211,-0.17643746733665466,-0.1327027976512909,0.13143813610076904,-0.16275015473365784,-0.10644818842411041,-0.11809477107755358,-0.658369354214894,-0.014085302203078956,-0.7432396164230585,0.17736595374222774,-1.4355667201109026,2.9814074883124015
1772660834416009728,2.2020747661590576,-1.4564151763916016,-0.04019956290721893,-0.7461832165718079,-0.9740808010101318,-0.18149897456169128,-0.13499975204467773,0.13077318668365479,-0.17461064457893372,-0.09850551187992096,-0.12557782934008116,-0.6575553157837872,-0.011006024711744687,-0.742785443165724,0.18251052246795627,-1.4330816447105519,2.9657001754535237
1772660834426046720,2.212111711502075,-1.4743221998214722,-0.055284906178712845,-0.8137259483337402,-0.9727054238319397,-0.1871049404144287,-0.13724303245544434,0.12573593854904175,-0.1886427402496338,-0.08507750928401947,-0.13331625606926228,-0.656744378615414,-0.008081163792176346,-0.7421914716776101,0.1882142138406894,-1.4306274473097653,2.949773803808114
1772660834436083712,2.222148895263672,-1.4831920862197876,-0.06421235203742981,-0.8906838297843933,-0.9711573123931885,-0.19336919486522675,-0.13950616121292114,0.11530709266662598,-0.20519034564495087,-0.07718390226364136,-0.14136892330662584,-0.6559103659795281,-0.005339787492786418,-0.7414634250751764,0.19459500399507595,-1.4281229578023118,2.933562449672522
1772660834446121728,2.232186794281006,-1.4972912073135376,-0.05830866098403931,-0.9711493253707886,-0.9694055914878845,-0.20033478736877441,-0.14184178411960602,0.10247737169265747,-0.21517729759216309,-0.07347501814365387,-0.14972895171063652,-0.6550352283507629,-0.002821539003729899,-0.7406094079008944,0.20169962919593132,-1.425508992361428,2.917114684068397
1772660834456158720,2.2422237396240234,-1.5055289268493652,-0.043317195028066635,-1.0503859519958496,-0.9674056172370911,-0.2079991102218628,-0.14443962275981903,0.09315329790115356,-0.2106868028640747,-0.06314092874526978,-0.1584138893065692,-0.6540488624766759,-0.0005260776449376376,-0.7396789011252474,0.20952887843295026,-1.4225850198614782,2.9003727890426414
1772660834466195456,2.252260684967041,-1.5023597478866577,-0.03798061981797218,-1.1379672288894653,-0.9651342630386353,-0.21640607714653015,-0.14725562930107117,0.08808958530426025,-0.20002153515815735,-0.05351954698562622,-0.16741019342314692,-0.6529700798377532,0.001503840330574203,-0.7386485013727809,0.2181318043225016,-1.419388727532573,2.883404753409938
1772660834476233728,2.262298822402954,-1.4939841032028198,-0.03141060099005699,-1.2232917547225952,-0.9625627398490906,-0.2256094366312027,-0.15024434030056,0.08763903379440308,-0.1946939080953598,-0.03997170925140381,-0.17669612058143405,-0.6518186154725649,0.003212357870670161,-0.7374962036937672,0.22756855725522793,-1.4159578750355564,2.8663075349921305
1772660834486270720,2.2723357677459717,-1.4812276363372803,-0.03438601642847061,-1.2882652282714844,-0.9596993923187256,-0.23547738790512085,-0.15338633954524994,0.09228307008743286,-0.20275501906871796,-0.024088606238365173,-0.18620611447706442,-0.6506038781196873,0.004628675471035872,-0.7362203529872555,0.23770974183792948,-1.4123092826730863,2.8491337201081137
1772660834496307712,2.2823727130889893,-1.4712066650390625,-0.05950628221035004,-1.3431426286697388,-0.956585705280304,-0.2458477020263672,-0.15653282403945923,0.0918397307395935,-0.22191046178340912,-0.015784665942192078,-0.19588021373624342,-0.6493840914647974,0.005821687202676289,-0.7347770037866552,0.2483941423580976,-1.4085968683606112,2.831894099865249
1772660834506345728,2.2924108505249023,-1.4519636631011963,-0.10098901391029358,-1.39565110206604,-0.9532514810562134,-0.2566681206226349,-0.1594780683517456,0.07742738723754883,-0.2380218207836151,-0.013342991471290588,-0.20569870544791616,-0.6482393827824218,0.0068312331695930375,-0.7330942418522697,0.25957325697602296,-1.405032411991271,2.814585482995601
1772660834516382720,2.30244779586792,-1.4170198440551758,-0.12591752409934998,-1.449600338935852,-0.9496815800666809,-0.2679722011089325,-0.16216032207012177,0.04240912199020386,-0.2444484829902649,-0.006144121289253235,-0.2155936028279487,-0.6471957355164122,0.007584023724792791,-0.7311632249952409,0.2712876369268909,-1.4016750795762398,2.7974118434366626
1772660834526419712,2.3124847412109375,-1.3736158609390259,-0.1265697330236435,-1.480203628540039,-0.9458549618721008,-0.2796485424041748,-0.16478826105594635,-0.00144118070602417,-0.2304832637310028,0.0031518936157226562,-0.225492736362532,-0.6461739322820792,0.00806950561203142,-0.7290728444861323,0.2834280261323179,-1.3983061329904363,2.780467855062005
1772660834536457728,2.3225228786468506,-1.3379523754119873,-0.12599316239356995,-1.4926059246063232,-0.941799521446228,-0.29149049520492554,-0.16747257113456726,-0.04390299320220947,-0.20393183827400208,0.017326056957244873,-0.23531967126504374,-0.6451310389718707,0.008346272566239711,-0.7268844365506051,0.29578463057378385,-1.39481394490326,2.763779519109189
1772660834546494720,2.332559823989868,-1.287488579750061,-0.11069729924201965,-1.488215684890747,-0.9375467300415039,-0.3033316135406494,-0.1702827513217926,-0.0818777084350586,-0.1796853244304657,0.03055804967880249,-0.24499759167637042,-0.6440397838057221,0.008448743368483417,-0.7246500342999758,0.30818707591756217,-1.3911289831492242,2.7474115832940447
1772660834556532736,2.342597723007202,-1.2376527786254883,-0.10603995621204376,-1.4752964973449707,-0.9331275224685669,-0.315080851316452,-0.17319688200950623,-0.1127556562423706,-0.16795137524604797,0.03566944599151611,-0.25445598709783573,-0.6429085340998598,0.008377034577362536,-0.7223923066913956,0.3205418321184107,-1.3872757612338216,2.731478576111791
1772660834566569728,2.352634906768799,-1.2092344760894775,-0.11969185620546341,-1.4541114568710327,-0.9285971522331238,-0.32664749026298523,-0.17609328031539917,-0.13445216417312622,-0.16669967770576477,0.03510206937789917,-0.2637010918913357,-0.6417833559055554,0.008214739943847896,-0.720075306844136,0.3327543002572564,-1.3833879746573243,2.7158841615234577
1772660834576606720,2.3626718521118164,-1.218176007270813,-0.1393638402223587,-1.4173449277877808,-0.9240276217460632,-0.3378565311431885,-0.17895808815956116,-0.14997750520706177,-0.17494559288024902,0.031115710735321045,-0.27278127833056615,-0.6406675246478307,0.008128710276219748,-0.7176833897092709,0.34463858037174144,-1.3794929080194032,2.7003433256350644
1772660834586644736,2.3727097511291504,-1.2529537677764893,-0.15577316284179688,-1.3815696239471436,-0.9194673895835876,-0.34858667850494385,-0.18184340000152588,-0.16703468561172485,-0.18435701727867126,0.02052748203277588,-0.28177635814601476,-0.6395388447120346,0.00826833196124393,-0.7152089051803937,0.35606278334019664,-1.3755455638340675,2.6845295998003693
1772660834596681472,2.382746696472168,-1.316471815109253,-0.14987559616565704,-1.3535600900650024,-0.9148904085159302,-0.3588283061981201,-0.18498021364212036,-0.18526822328567505,-0.1856052577495575,0.010755375027656555,-0.2907882237685213,-0.6383057814023647,0.008696090604464359,-0.7126936655348576,0.3670123039279052,-1.3712974396266115,2.668150833096304
1772660834606718720,2.3927838802337646,-1.3799362182617188,-0.1077134907245636,-1.342223882675171,-0.9102094173431396,-0.3686544597148895,-0.1887136697769165,-0.19934874773025513,-0.17747285962104797,0.006813645362854004,-0.2999132679371681,-0.6368320346861567,0.009387480472452388,-0.710217513542077,0.3775610988187931,-1.3663627724788256,2.6510003824095922
1772660834616756736,2.4028217792510986,-1.42178213596344,-0.05171254277229309,-1.348127007484436,-0.9053047299385071,-0.3782457411289215,-0.1932707577943802,-0.19921797513961792,-0.1583143174648285,0.010638296604156494,-0.3091902452882862,-0.6350279784071816,0.010202299813929033,-0.7078395332359021,0.38790049835613155,-1.3604667978976057,2.6331226401698777
1772660834626793728,2.412858724594116,-1.4248614311218262,0.0023750602267682552,-1.37833833694458,-0.9000988006591797,-0.387810081243515,-0.19855841994285583,-0.18396180868148804,-0.1318584382534027,0.02201421558856964,-0.31857274710259037,-0.6329303107787715,0.010955117165759209,-0.7055427748804872,0.3982545544665831,-1.3536773797579882,2.614819767788519
1772660834636830720,2.422895908355713,-1.3732216358184814,0.053540509194135666,-1.4095031023025513,-0.8945091366767883,-0.397582083940506,-0.20440617203712463,-0.15763014554977417,-0.10646149516105652,0.031707167625427246,-0.3279742423210645,-0.6306080295434722,0.011420593561558045,-0.703303625261557,0.40888020576528417,-1.3461415393684615,2.5965268326859414
1772660834646868736,2.432933807373047,-1.310439109802246,0.09209322929382324,-1.4522935152053833,-0.8885131478309631,-0.40769246220588684,-0.21054980158805847,-0.1260894536972046,-0.07787269353866577,0.04587693512439728,-0.3373019502952837,-0.6281669545820009,0.011462015530694146,-0.7010722521970483,0.4199255535477447,-1.338119528966378,2.578604217630099
1772660834656905728,2.4429707527160645,-1.199522614479065,0.12497368454933167,-1.4936915636062622,-0.8820921778678894,-0.41820359230041504,-0.21683858335018158,-0.09944456815719604,-0.04834911227226257,0.06451013684272766,-0.34650288769227494,-0.6256672404992193,0.01100951898706608,-0.6988239660455392,0.4314667507082664,-1.329752760038332,2.5612420177097177
1772660834666943744,2.4530088901519775,-1.0036588907241821,0.16531725227832794,-1.5546839237213135,-0.8752162456512451,-0.42930421233177185,-0.2229224145412445,-0.08512616157531738,-0.021013200283050537,0.0628577470779419,-0.3553645151749305,-0.6232516841151325,0.009804703338294527,-0.6965466748947706,0.4437222274715695,-1.3213938673789511,2.5451901922449394
1772660834676980736,2.463045835494995,-0.7380037903785706,0.20313546061515808,-1.632773995399475,-0.8677648305892944,-0.44136708974838257,-0.22842763364315033,-0.07664734125137329,0.009253442287445068,0.05824638903141022,-0.36371690994207423,-0.6210715276703135,0.00750593699627804,-0.6942072792570442,0.4571216085482692,-1.3133988167015072,2.5312334512663544
1772660834687017728,2.4730827808380127,-0.40834301710128784,0.2390533834695816,-1.7096529006958008,-0.8596615195274353,-0.4546227753162384,-0.23302431404590607,-0.0660434365272522,0.0407281219959259,0.05605286359786987,-0.37137416444823934,-0.6192519932489365,0.003849078591895756,-0.6918044850905618,0.4719486326183193,-1.3060919486078169,2.520095273871741
1772660834697055744,2.483120918273926,-0.06004522368311882,0.2709079682826996,-1.7811946868896484,-0.8508937358856201,-0.4691479802131653,-0.2363899201154709,-0.050000548362731934,0.0777905285358429,0.05934217572212219,-0.3782030020045483,-0.6179024212704277,-0.0012787213816953266,-0.6893167508048802,0.488325756808359,-1.2998161437056475,2.5122404017304434
1772660834707092736,2.4931578636169434,0.27986249327659607,0.2797655165195465,-1.8241430521011353,-0.8415286540985107,-0.48481494188308716,-0.23829419910907745,-0.021950960159301758,0.11929067969322205,0.07122570276260376,-0.38412979451684515,-0.6170833128312344,-0.00781592075172233,-0.6867251853011439,0.506151578677334,-1.2948521317865056,2.507822022463055
1772660834717129728,2.503194808959961,0.605821967124939,0.25713983178138733,-1.8432408571243286,-0.8317435383796692,-0.5013514161109924,-0.23843136429786682,0.01637488603591919,0.16118723154067993,0.08120483160018921,-0.3890864183246109,-0.6168805419981904,-0.01557921661494877,-0.683979155031216,0.5251599421952285,-1.2916183621936275,2.50689441472601
1772660834727167488,2.513232707977295,0.9104602932929993,0.20996874570846558,-1.844663381576538,-0.8216831088066101,-0.5185394883155823,-0.23654504120349884,0.05308270454406738,0.19569408893585205,0.09106774628162384,-0.3930550132247673,-0.6173591700393091,-0.024395429667335617,-0.6810141138651974,0.5451419812529641,-1.2904967890338463,2.5094485636623345
1772660834737204736,2.5232698917388916,1.1653069257736206,0.14319556951522827,-1.8174525499343872,-0.8115190863609314,-0.5360597372055054,-0.2325439751148224,0.0856127142906189,0.22308671474456787,0.1021575927734375,-0.39607539469320735,-0.6185238148897456,-0.034004470730535905,-0.6777877667595615,0.5657626156888621,-1.291720575943144,2.515251746020812
1772660834747241728,2.533306837081909,1.3548191785812378,0.07893241941928864,-1.759622573852539,-0.8014431595802307,-0.5535033345222473,-0.22654561698436737,0.10649687051773071,0.23708182573318481,0.11971884965896606,-0.39820936980000843,-0.6203081027512882,-0.044102728753985035,-0.6743160288440628,0.586564863365168,-1.2953115152016104,2.523936396127454
1772660834757279744,2.543344736099243,1.471086859703064,0.02968577668070793,-1.6741468906402588,-0.7916169762611389,-0.5704401731491089,-0.2189532071352005,0.11842978000640869,0.2334498167037964,0.1446734219789505,-0.39958237329439183,-0.622549630979925,-0.05436313488178913,-0.6706791265812727,0.6070416580569907,-1.3009526583148097,2.5348906822074606
1772660834767316736,2.55338191986084,1.503881573677063,0.006276058964431286,-1.5654146671295166,-0.7821632027626038,-0.5864656567573547,-0.21042528748512268,0.11820751428604126,0.21891194581985474,0.1725834608078003,-0.40035118051980034,-0.625003480461481,-0.06448260309416783,-0.6670319600846922,0.6266884102172704,-1.3079889054705947,2.547348699989269
1772660834777354752,2.563419818878174,1.4608252048492432,-0.009236588142812252,-1.436650037765503,-0.7732016444206238,-0.6012799143791199,-0.20154869556427002,0.11847740411758423,0.19905823469161987,0.20043477416038513,-0.400695747270115,-0.6274741770409434,-0.07417416873469784,-0.6634888059341351,0.6451019827936093,-1.3158029396347806,2.5604892791403806
1772660834787391744,2.5734567642211914,1.3506639003753662,-0.010901596397161484,-1.2814573049545288,-0.7649184465408325,-0.6145708560943604,-0.19287952780723572,0.12435448169708252,0.18372368812561035,0.22303086519241333,-0.40076247093097694,-0.6298002954776974,-0.0831373827415128,-0.6601736628104043,0.6618418598990162,-1.3237885967792788,2.573502696434809
1772660834797428480,2.583493709564209,1.1924705505371094,-0.014487276785075665,-1.1189360618591309,-0.7574625611305237,-0.6261624693870544,-0.18485426902770996,0.13441568613052368,0.17259496450424194,0.23537611961364746,-0.40070863023552195,-0.6318777419376355,-0.09112291753794648,-0.6571603930079404,0.6766215801775979,-1.331431030785678,2.5856133656102016
1772660834807466752,2.593531847000122,1.0362358093261719,-0.037203505635261536,-0.9610824584960938,-0.7509219646453857,-0.6360549926757812,-0.17762397229671478,0.14206576347351074,0.16376495361328125,0.23682808876037598,-0.4006097428949011,-0.6337011018469916,-0.09803534297366219,-0.6544645297466373,0.6893749365919565,-1.338524341429007,2.5964631533313764
1772660834817503744,2.6035687923431396,0.859113335609436,-0.057469628751277924,-0.8155995607376099,-0.7452806234359741,-0.6443964838981628,-0.17120079696178436,0.14393186569213867,0.16238665580749512,0.23078639805316925,-0.40052930202026527,-0.6353003512591192,-0.10388967448963857,-0.6520556528433634,0.7002338285604659,-1.3450003530810488,2.6058909888629285
1772660834827540736,2.6136057376861572,0.6591995358467102,-0.07184430956840515,-0.6720610857009888,-0.740546703338623,-0.6512372493743896,-0.16577300429344177,0.13947248458862305,0.16966986656188965,0.24446260929107666,-0.40058289797423063,-0.6366455298932565,-0.10860923603257404,-0.6499383499012326,0.7092136583066975,-1.3505746432317727,2.6134534183786466
1772660834837578752,2.6236438751220703,0.5166240334510803,-0.0690983235836029,-0.5336054563522339,-0.7367017269134521,-0.6566650867462158,-0.1614357829093933,0.12767767906188965,0.17811894416809082,0.2406594157218933,-0.40072085663529633,-0.6377077845404184,-0.11229820883415693,-0.6481825998632001,0.7163883382346975,-1.3550729759553735,2.6192755949080713
1772660834847615744,2.633680820465088,0.47204530239105225,-0.08671487122774124,-0.41160842776298523,-0.733716607093811,-0.6609200835227966,-0.15762151777744293,0.10720604658126831,0.1806955337524414,0.21543706953525543,-0.40073996157136366,-0.6386803607319214,-0.1152242836574018,-0.646697951851726,0.7220441579612684,-1.3591863317548052,2.6242843775721796
1772660834857652736,2.6437177658081055,0.537517249584198,-0.07728594541549683,-0.3196209669113159,-0.7314150929450989,-0.6643887758255005,-0.15368542075157166,0.08467143774032593,0.18515610694885254,0.17932018637657166,-0.4003674711908279,-0.639740508572546,-0.11785318907219737,-0.6454056324703611,0.7266757425603233,-1.3636885797305454,2.6298276375522547
1772660834867690752,2.6537559032440186,0.6662409901618958,-0.04291878640651703,-0.24405445158481598,-0.729620099067688,-0.6673744320869446,-0.14921747148036957,0.06448954343795776,0.19735801219940186,0.13682736456394196,-0.3993822334756171,-0.6409756821488652,-0.12058787791504696,-0.6442845145362966,0.7306775889851757,-1.3690642372098976,2.6369890789659136
1772660834877727744,2.663792848587036,0.7972314953804016,-0.039466798305511475,-0.16673089563846588,-0.7282883524894714,-0.669964611530304,-0.14402614533901215,0.049409568309783936,0.21847230195999146,0.12959134578704834,-0.397720975177358,-0.6424369939613492,-0.1235379944339862,-0.6432970777919937,0.7341610988685511,-1.3755557550745618,2.6461111801820705
1772660834887765760,2.67383074760437,0.9785381555557251,-0.031548816710710526,-0.08338155597448349,-0.7274934649467468,-0.6721294522285461,-0.13782401382923126,0.03982555866241455,0.23684197664260864,0.13597768545150757,-0.3952853811505444,-0.6442256750998815,-0.12673307263688924,-0.6423873916321077,0.7370809820029317,-1.38356476177648,2.6575590059800214
1772660834897802496,2.6838676929473877,1.1482350826263428,-0.07250557094812393,0.03175302594900131,-0.7273780107498169,-0.6737643480300903,-0.13024166226387024,0.031684041023254395,0.24755585193634033,0.12072020769119263,-0.39196129508540567,-0.6464835444819091,-0.13014682711390083,-0.6414726817467175,0.7392912099262064,-1.3936175667529118,2.6716978573781915
1772660834907839744,2.6939048767089844,1.261183738708496,-0.10363925993442535,0.14814995229244232,-0.7281084656715393,-0.6746194362640381,-0.12143533676862717,0.020024418830871582,0.24923497438430786,0.09200114756822586,-0.3877933373911185,-0.6491856538666781,-0.13356765256226402,-0.6405731284350914,0.7404490334431063,-1.4055355025192386,2.6880947767479175
1772660834917877760,2.7039427757263184,1.3152621984481812,-0.13368183374404907,0.20291119813919067,-0.729465126991272,-0.6748136878013611,-0.11183477193117142,-0.008037865161895752,0.22025436162948608,0.052584901452064514,-0.38307028357923906,-0.6521798826474731,-0.13690878742830204,-0.6396674736547759,0.7407121778446388,-1.4186701701286406,2.7058438393237916
1772660834927914496,2.713979721069336,1.2822099924087524,-0.18109501898288727,0.2512524724006653,-0.7311645746231079,-0.6745548844337463,-0.10185278952121735,-0.043234169483184814,0.1721745729446411,0.02499426156282425,-0.37817112522017926,-0.6553306412309264,-0.1400548324889422,-0.6386806276118067,0.7403615604853061,-1.4323848983908656,2.7238496106628527
1772660834937951744,2.7240169048309326,1.20624577999115,-0.22219718992710114,0.32511603832244873,-0.7333120703697205,-0.6736487150192261,-0.09192805737257004,-0.07045984268188477,0.12942880392074585,0.011804170906543732,-0.37329213677738243,-0.65853737199632,-0.14270423863286832,-0.6376652755670478,0.7391347789604761,-1.4460868106890945,2.7411248028326334
1772660834947989760,2.7340548038482666,1.1571955680847168,-0.2316819131374359,0.38499709963798523,-0.7359301447868347,-0.6720375418663025,-0.08229441195726395,-0.10298281908035278,0.10558551549911499,-0.01198965311050415,-0.3684071286289613,-0.6617157325427104,-0.14486228594088588,-0.6367286691122884,0.7369568564252775,-1.4594352866348121,2.7575723487538863
1772660834958026752,2.744091749191284,1.1545013189315796,-0.2385731041431427,0.41979607939720154,-0.7388201355934143,-0.6699612140655518,-0.07277929782867432,-0.1394605040550232,0.11206936836242676,-0.033757567405700684,-0.36345824278769306,-0.6648819010539143,-0.1467733245128228,-0.6358363021886568,0.7341565643326233,-1.4726056521346667,2.7736663316301677
1772660834968063488,2.7541286945343018,1.226453423500061,-0.2572385370731354,0.43303054571151733,-0.7418570518493652,-0.667593240737915,-0.06298767775297165,-0.16089868545532227,0.12840867042541504,-0.041931748390197754,-0.3583171704712136,-0.6681336512382039,-0.1486727433065936,-0.634903671032893,0.7309715036405217,-1.4860940587388138,2.790118351153228
1772660834978101760,2.764166831970215,1.3557994365692139,-0.2684536278247833,0.43112850189208984,-0.7449133396148682,-0.6650989055633545,-0.052415329962968826,-0.16570055484771729,0.12806588411331177,-0.04746871069073677,-0.35279893826524994,-0.6715929849780664,-0.15084825886569328,-0.633829979775286,0.7276262254921158,-1.5005477760447508,2.807865972923036
1772660834988138752,2.7742037773132324,1.4400672912597656,-0.3063671886920929,0.429312527179718,-0.7479075789451599,-0.6625396013259888,-0.040933217853307724,-0.1618977189064026,0.12808525562286377,-0.041906774044036865,-0.34690568468823013,-0.6752880789646741,-0.1533603649501618,-0.6325527903564061,0.7242042312986184,-1.5161205579171515,2.82703266484637
1772660834998175744,2.78424072265625,1.5367614030838013,-0.2952466309070587,0.4184153974056244,-0.7508165836334229,-0.6598809957504272,-0.028833873569965363,-0.1571575403213501,0.14463752508163452,-0.033559318631887436,-0.3407391333242807,-0.6791217711386568,-0.1561303392670554,-0.6311209982195434,0.7206603706259688,-1.532411836667426,2.847178174291953
1772660835008213760,2.794278860092163,1.614180326461792,-0.3355652987957001,0.4234306514263153,-0.7536681294441223,-0.6570588946342468,-0.016064289957284927,-0.15891426801681519,0.16914385557174683,-0.03972184658050537,-0.33428116392993384,-0.6831134978297292,-0.1591345474162099,-0.6295143451626258,0.7169106143060204,-1.5494847480434342,2.8683111732414797
1772660835018250752,2.8043158054351807,1.7846990823745728,-0.3494132161140442,0.41091564297676086,-0.7564614415168762,-0.6540343165397644,-0.0023433743044734,-0.1670769453048706,0.18221724033355713,-0.03745156526565552,-0.32743568065755757,-0.6873442320952986,-0.16243835583991095,-0.6276604956688917,0.7129053596923716,-1.567698525941619,2.8907981521949195
1772660835028288512,2.8143537044525146,2.0380547046661377,-0.34626293182373047,0.3727504014968872,-0.7590099573135376,-0.6509523391723633,0.012845437042415142,-0.1888202428817749,0.16235065460205078,-0.07958734035491943,-0.319860014783039,-0.6918717943527628,-0.16654170213601818,-0.6255133000406962,0.7088383023000239,-1.5877186483759755,2.916135637582815
1772660835038325760,2.8243908882141113,2.1198792457580566,-0.37646904587745667,0.3879653215408325,-0.7613802552223206,-0.6476477980613708,0.02919832430779934,-0.19157689809799194,0.13446420431137085,-0.0918203592300415,-0.31170075519040735,-0.6966223196669976,-0.17122063518277197,-0.6230919078821743,0.7044932382443337,-1.6091267445352073,2.9435874235552077
1772660835048362752,2.834427833557129,2.0634636878967285,-0.4099232852458954,0.4573405385017395,-0.7639771103858948,-0.6436171531677246,0.045782651752233505,-0.1721649169921875,0.11381673812866211,-0.07015097141265869,-0.3033769263875914,-0.701451994392726,-0.17565997081137757,-0.62054100373798,0.6992150544217406,-1.6306514784004549,2.970799492019729
1772660835058400512,2.844465732574463,2.019507646560669,-0.42342180013656616,0.471349835395813,-0.7667616605758667,-0.6389172673225403,0.06214044615626335,-0.16977715492248535,0.09877139329910278,-0.08103083819150925,-0.2950785855169654,-0.706234483447235,-0.1797305695064892,-0.6179469960747286,0.6930899819811384,-1.6516623089018818,2.99702945809524
1772660835068437760,2.8545029163360596,1.9355133771896362,-0.4322876036167145,0.45788583159446716,-0.769417405128479,-0.6339555978775024,0.07808437198400497,-0.1922982931137085,0.11198294162750244,-0.07863366603851318,-0.28699235376185916,-0.7108702345835909,-0.18359110522455607,-0.6152993000615095,0.6866573181244471,-1.671935111747275,3.0221504371701107
1772660835078474752,2.864539861679077,1.8722946643829346,-0.440204381942749,0.45382317900657654,-0.7719383239746094,-0.6287795901298523,0.09352784603834152,-0.20764541625976562,0.1523239016532898,-0.06290340423583984,-0.2791796269375642,-0.7153468270987812,-0.18719733163332744,-0.612613101113744,0.6799827314161702,-1.6913683756496307,3.045976698126966
1772660835088512768,2.874577760696411,1.9025473594665527,-0.40323397517204285,0.41311874985694885,-0.7742526531219482,-0.6234832406044006,0.10863485187292099,-0.23284268379211426,0.1843658685684204,-0.0686568021774292,-0.27146693318896636,-0.7196582371739721,-0.19081259685458493,-0.6099084617730137,0.673190063624072,-1.710195609541875,3.0692635723080617
1772660835098549504,2.8846147060394287,1.9067964553833008,-0.3818083107471466,0.35372626781463623,-0.7761743068695068,-0.6182920336723328,0.12356504797935486,-0.2646428942680359,0.20079636573791504,-0.06407106667757034,-0.2637698128923627,-0.7237828650697975,-0.1947328657908501,-0.6071597188929508,0.6665677286213325,-1.7286690747247964,3.092699496360477
1772660835108586752,2.8946518898010254,1.7796716690063477,-0.41877299547195435,0.33003318309783936,-0.7777537107467651,-0.6132090091705322,0.13810859620571136,-0.27514851093292236,0.19531655311584473,0.004591584205627441,-0.2563582028226128,-0.7277348006702085,-0.19863624329017338,-0.6043394891071383,0.6601166784120204,-1.7465381113918184,3.1153265484501613
1772660835118624768,2.9046897888183594,1.6901271343231201,-0.23925167322158813,0.3299972414970398,-0.779289960861206,-0.6081122159957886,0.1513500213623047,-0.26508259773254395,0.15756595134735107,0.1265583038330078,-0.24940455908138184,-0.7312981239751264,-0.2021832490660784,-0.6017660641504243,0.6536804014864874,-1.7626235323139279,3.1359820784555343
1772660835128661760,2.914726734161377,1.6177432537078857,-0.25006425380706787,0.32573816180229187,-0.7809134125709534,-0.6029108166694641,0.1633184403181076,-0.27081388235092163,0.09000188112258911,0.07006478309631348,-0.24249857293553337,-0.7343898726000914,-0.2057443497771162,-0.5996125896816185,0.6471445911253879,-1.7769625134477292,-3.127324665083918
1772660835138699776,2.92476487159729,1.2216169834136963,-0.17410103976726532,0.3001880645751953,-0.7824037671089172,-0.5979963541030884,0.1739102303981781,-0.25499552488327026,0.016850054264068604,0.1385897397994995,-0.23642584955406407,-0.7371603657030183,-0.20868568133092755,-0.5976183838834246,0.6409988674740428,-1.7895173120632408,-3.1102902342806846
1772660835148736768,2.9348018169403076,0.7278812527656555,0.035756319761276245,0.39987820386886597,-0.7843139171600342,-0.5936144590377808,0.18020561337471008,-0.24502891302108765,-0.014890909194946289,0.2045600861310959,-0.23191100582283386,-0.7388528950825565,-0.21023607905106945,-0.5967534575581499,0.63554283776963,-1.7966387630006433,-3.0994805744152063
1772660835158773760,2.944838762283325,0.39753401279449463,0.11954629421234131,0.508811354637146,-0.7872430086135864,-0.5889365673065186,0.1827632635831833,-0.2574501633644104,-0.028357744216918945,0.015143290162086487,-0.22839527620057637,-0.7397170665099628,-0.21023865396267774,-0.5970377468777167,0.6297424018032399,-1.798911518042678,-3.09416828197743
1772660835168811776,2.9548768997192383,0.35794925689697266,0.1202244684100151,0.39175328612327576,-0.7901926040649414,-0.584601879119873,0.18394756317138672,-0.2724906802177429,-0.0005727410316467285,-0.09298990666866302,-0.22552396835902158,-0.7402548093008157,-0.2097536703267912,-0.5976330919502058,0.624389256594836,-1.7995112850064072,-3.091059489595926
1772660835178848768,2.964913845062256,0.4263746738433838,0.12216484546661377,0.22434218227863312,-0.7921976447105408,-0.5814695954322815,0.18524691462516785,-0.28920817375183105,0.09582805633544922,-0.11026524007320404,-0.22303328916733065,-0.7406417200256644,-0.2099364160599692,-0.5980241257148053,0.6205338923187785,-1.800508020268149,-3.0872167049360586
1772660835188885760,2.9749507904052734,0.5612408518791199,0.045867010951042175,0.19030897319316864,-0.7935279011726379,-0.578968346118927,0.18737375736236572,-0.24112468957901,0.19456899166107178,-0.06672252714633942,-0.22052603265419035,-0.7411263115162204,-0.21075736221735836,-0.5980646238293769,0.617462818759812,-1.8026765044277078,-3.0819288480858833
1772660835198923520,2.9849886894226074,0.7299038767814636,-0.030182749032974243,0.22597455978393555,-0.7947563529014587,-0.5760651230812073,0.19107840955257416,-0.1872076392173767,0.20414751768112183,-0.03537777066230774,-0.21748267700750498,-0.7420433121479841,-0.21192198664013165,-0.5976302548938303,0.6139065954206645,-1.8067420712630438,-3.074792434471028
1772660835208960768,2.995025873184204,0.7783682942390442,-0.07751324772834778,0.21929402649402618,-0.7959521412849426,-0.5727720856666565,0.19593995809555054,-0.19406872987747192,0.13391399383544922,-0.026002854108810425,-0.21400584058893657,-0.7432798405602263,-0.21331913877730163,-0.5968513883965259,0.6098836649675217,-1.8121675431423183,-3.0663097129420867
1772660835218997760,3.0050628185272217,0.6607023477554321,-0.06789018213748932,0.21555601060390472,-0.7970382571220398,-0.5696059465408325,0.20069611072540283,-0.22331690788269043,0.049494922161102295,0.007861003279685974,-0.21073536150427766,-0.7445087319525809,-0.21460383558119275,-0.5960222113336674,0.6060263344954876,-1.8174706134507062,-3.0583459471049745
1772660835229035520,3.0151007175445557,0.4987751841545105,-0.02079763635993004,0.23949076235294342,-0.7982471585273743,-0.5665983557701111,0.20437227189540863,-0.22787600755691528,-0.0011965036392211914,0.021457821130752563,-0.20792228001068144,-0.7454981652845716,-0.21544980645108214,-0.5954681096082063,0.6023717030007544,-1.8214387175111584,-3.052136977700754
1772660835239072768,3.0251379013061523,0.33329540491104126,0.00789526104927063,0.2349005490541458,-0.7995925545692444,-0.5638338327407837,0.20674429833889008,-0.21932834386825562,0.0033632516860961914,0.03422248363494873,-0.20566610038407643,-0.746195062005507,-0.21578943173611007,-0.5952556821365219,0.5990205501328159,-1.823817023516446,-3.0479879505220895
1772660835249111808,3.035176992416382,0.2113487422466278,0.004961788654327393,0.2280714064836502,-0.8008947968482971,-0.5614346265792847,0.20822781324386597,-0.19486331939697266,0.03889739513397217,0.04557156562805176,-0.20397848159518117,-0.7467094450832628,-0.21572879240206652,-0.5952133344844915,0.5961184245337555,-1.825158740142956,-3.0455538508201623
1772660835259149824,3.045214891433716,0.20196668803691864,0.011214091442525387,0.21642141044139862,-0.8021959662437439,-0.5591782927513123,0.2092875838279724,-0.1606488823890686,0.06793689727783203,0.03312885761260986,-0.2025258829275285,-0.7471320749747322,-0.2154935054466807,-0.5952642374923046,0.5933943557874211,-1.8260009618690365,-3.043865690922886
1772660835269186816,3.0552518367767334,0.21442565321922302,0.014623204246163368,0.14496241509914398,-0.8032543659210205,-0.5572580695152283,0.21034707129001617,-0.1501452922821045,0.08052772283554077,0.01468956470489502,-0.20118923107457404,-0.7475050499788284,-0.21542919369074076,-0.595272512756267,0.5910799676708719,-1.8269138475692968,-3.04201825215057
1772660835279224832,3.0652899742126465,0.22800298035144806,-0.03898196667432785,0.0594022311270237,-0.803808331489563,-0.5559480786323547,0.21169307827949524,-0.1446627378463745,0.07978236675262451,0.011283621191978455,-0.20003687265020753,-0.7478722270670176,-0.21571664872677382,-0.5950955510431588,0.5895031228032626,-1.8283115219013912,-3.0396680230398587
1772660835289261824,3.075326919555664,0.11754807084798813,-0.11823537945747375,0.015793099999427795,-0.8038578033447266,-0.555253803730011,0.21332137286663055,-0.11333274841308594,0.06927663087844849,0.05727803707122803,-0.1993240071792222,-0.7483231524808245,-0.21603969156209704,-0.5946505922413426,0.5886681000431233,-1.8301896400948596,-3.0376655167035724
1772660835299298816,3.0853638648986816,-0.04846033826470375,-0.2604931890964508,-0.031932611018419266,-0.8034415245056152,-0.5552057027816772,0.2150082290172577,-0.06571447849273682,0.007750809192657471,0.1252017319202423,-0.19938950391029409,-0.7489011897196862,-0.2159887127800595,-0.5939190102020933,0.5886102406383763,-1.8322783353015917,-3.0372014094478375
1772660835309336832,3.0954020023345947,-0.327335387468338,-0.38487398624420166,-0.06909196823835373,-0.8024188876152039,-0.5560189485549927,0.21671821177005768,-0.013972043991088867,-0.13625705242156982,0.22998283803462982,-0.20058619735275107,-0.749666054947225,-0.21531351192439746,-0.5927951110270088,0.5895883522301918,-1.834583776596305,-3.0391317811985092
1772660835319373824,3.1054389476776123,-0.7271421551704407,-0.40261703729629517,-0.06710445135831833,-0.8011999726295471,-0.5576756000518799,0.21697112917900085,0.0673285722732544,-0.27267712354660034,0.31426358222961426,-0.2031696926723583,-0.7502395365982674,-0.213602899425035,-0.5918078050086718,0.5915828721753268,-1.8352608328629727,-3.045025553318235
1772660835329410816,3.11547589302063,-1.0181938409805298,-0.37348124384880066,-0.10797570645809174,-0.7999017834663391,-0.560232937335968,0.215164914727211,0.14433854818344116,-0.3703242540359497,0.3194877803325653,-0.20716355443410162,-0.7504132100644998,-0.2108612690133663,-0.5911858414736358,0.5946669750314376,-1.8335657774045073,-3.0551408902375266
1772660835339448832,3.125514030456543,-1.1484309434890747,-0.3810177147388458,-0.2425234019756317,-0.7981383204460144,-0.5639277696609497,0.21203933656215668,0.20570063591003418,-0.4234073758125305,0.28574812412261963,-0.21214806223554622,-0.7502002352717938,-0.20789246160648348,-0.5907398148350179,0.5991342904247348,-1.8304655638280858,-3.0673278176110337
1772660835349485824,3.1355509757995605,-1.3547698259353638,-0.23589250445365906,-0.270487904548645,-0.7959895133972168,-0.5686559677124023,0.20743921399116516,0.24523884057998657,-0.3904351592063904,0.21907447278499603,-0.21790708119831786,-0.749491863106873,-0.20489401350081976,-0.5905902812708813,0.6048710315048774,-1.8257314329909204,-3.0810808101306226
1772660835359522816,3.145587921142578,-1.3528424501419067,-0.21043561398983002,-0.19881747663021088,-0.7942137122154236,-0.5732976794242859,0.20138059556484222,0.28426510095596313,-0.29041075706481934,0.0704089105129242,-0.2239756346973995,-0.7484083557295295,-0.2014329417814261,-0.5908845363357031,0.6105249968846401,-1.8191224851302754,-3.0966384138139573
1772660835369560832,3.155625820159912,-1.0678119659423828,-0.1342441737651825,-0.2351645529270172,-0.7926971316337585,-0.5773538947105408,0.19568830728530884,0.23532408475875854,-0.15407615900039673,-0.11097145080566406,-0.22932511774779826,-0.7473180872014538,-0.1983931126992306,-0.5912410007676006,0.6154841575518929,-1.8128211880180696,-3.1105369832804697
1772660835379597824,3.165663003921509,-0.6401748657226562,-0.05260949581861496,-0.33995088934898376,-0.7908323407173157,-0.5813247561454773,0.19143079221248627,0.08987408876419067,0.0671493411064148,-0.17649245262145996,-0.23349567133199922,-0.746308433987675,-0.19682255459805426,-0.5914087945677162,0.6203558681332815,-1.8082904988477877,-3.119963227104884
1772660835389634816,3.1756999492645264,-0.23222465813159943,-0.002384674269706011,-0.29066911339759827,-0.7888655066490173,-0.5847315788269043,0.18915587663650513,-0.07308810949325562,0.3307643532752991,-0.1981891691684723,-0.23609218846061186,-0.7455663153286752,-0.19674554271347441,-0.5913395340507911,0.6245491628214749,-1.8061353261886908,-3.124146076922023
1772660835399672832,3.1857378482818604,0.02846844121813774,0.08374621719121933,-0.12510544061660767,-0.7877317070960999,-0.586536705493927,0.18828999996185303,-0.20659184455871582,0.5450023412704468,-0.1399654597043991,-0.237012844363429,-0.7451331905189845,-0.1972853957199659,-0.5913372706353965,0.6267760849187559,-1.8054221187397665,-3.124678205915082
1772660835409709824,3.195775032043457,0.132463738322258,0.11960488557815552,-0.05156143754720688,-0.7874619960784912,-0.5869922041893005,0.18799865245819092,-0.32443052530288696,0.6493701934814453,-0.0795849859714508,-0.2368176246952176,-0.7448564847639243,-0.19795994474134,-0.5915386658508479,0.6273386253571714,-1.805149547191744,-3.123397390061313
1772660835419747840,3.205812931060791,0.17538750171661377,0.1738119274377823,-0.0731213316321373,-0.7874083518981934,-0.5871448516845703,0.1877467930316925,-0.38107913732528687,0.6404591202735901,-0.06158711016178131,-0.23626161741461338,-0.7445476327027069,-0.1988019647775673,-0.5918673802064787,0.6275271798775649,-1.8048623192030313,-3.121375903956001
1772660835429784832,3.2158498764038086,0.20044024288654327,0.1690114438533783,-0.07889892160892487,-0.787290632724762,-0.587384045124054,0.18749214708805084,-0.34565913677215576,0.5701874494552612,-0.10568977892398834,-0.23560020118208766,-0.7441795064210557,-0.19985729212771056,-0.5922384766838564,0.6278226935324046,-1.8045899902604603,-3.1188596851017074
1772660835439821824,3.225886821746826,0.2991116940975189,0.17537853121757507,-0.07237444072961807,-0.7871685028076172,-0.5875226855278015,0.18757085502147675,-0.2718372344970703,0.4918195605278015,-0.18348145484924316,-0.23480026138944587,-0.7438997852956138,-0.20099386780642123,-0.5925229038075566,0.627993997518611,-1.8047195692768614,-3.1158986155131436
1772660835449859840,3.2359249591827393,-0.6022844910621643,-0.15965977311134338,-0.15577572584152222,-0.7869214415550232,-0.5876999497413635,0.1880519688129425,-0.2527514100074768,0.457984983921051,-0.5359370708465576,-0.23378080384921485,-0.7436674890966196,-0.20244665315153765,-0.5927230383092018,0.6282131045914148,-1.8053688005196626,-3.11196024632816
1772660835459896832,3.245961904525757,0.7330639362335205,-0.02396986074745655,-1.0034235715866089,-0.7840419411659241,-0.5922477841377258,0.18579737842082977,-0.26297032833099365,0.1232842206954956,-0.5411745309829712,-0.23555963117782897,-0.7423493227071539,-0.2044900354928511,-0.5929695913810991,0.6338456823442992,-1.8034779427192904,-3.111496260961008
1772660835469933824,3.2559988498687744,2.3935329914093018,-0.26611021161079407,-1.0153651237487793,-0.7776686549186707,-0.597036600112915,0.19692303240299225,-0.09566807746887207,-0.8658081889152527,-0.8288657665252686,-0.2324062258799426,-0.7436410449480104,-0.21321236121114895,-0.5895132090510398,0.6398020114287359,-1.8188054097394055,-3.087848140230737
1772660835479971840,3.2660369873046875,1.4657312631607056,-0.11005907505750656,-1.08010733127594,-0.7707858085632324,-0.6010298728942871,0.21131162345409393,0.19633805751800537,-1.2357163429260254,-0.24283620715141296,-0.22819564175484436,-0.7456585958787655,-0.22282071114684202,-0.5850393665755366,0.6447890550159011,-1.838372954703648,-3.059810708616914
1772660835490008832,3.276073932647705,0.04821600392460823,-0.13310793042182922,-0.9364506602287292,-0.7643837332725525,-0.6073418855667114,0.21645724773406982,0.08730530738830566,-0.8166542053222656,0.34395235776901245,-0.22862648483705944,-0.7456335866372815,-0.2286026676118203,-0.5826675414075176,0.6527103933028222,-1.8467502704949519,-3.0477018046822524
1772660835500045824,3.2861108779907227,-1.0208790302276611,-0.18147067725658417,-0.6023573279380798,-0.7594186663627625,-0.614068865776062,0.2149486541748047,-0.0900840163230896,-0.19666117429733276,0.1277027428150177,-0.23240673201649237,-0.7446105382971405,-0.23028129370749506,-0.5818185856486281,0.6612056710427315,-1.8466252036831932,-3.0496005566084734
1772660835510083840,3.2961490154266357,-1.7008731365203857,0.05535145848989487,-0.40113794803619385,-0.7563711404800415,-0.6208143830299377,0.20613707602024078,-0.29978126287460327,0.30799394845962524,-0.11675107479095459,-0.239369808750588,-0.7424490264083599,-0.22767955267875878,-0.5827809811322963,0.6697810942692394,-1.8368687500511702,-3.066159199534628
1772660835520120832,3.3061859607696533,-1.29319167137146,0.1268583983182907,-0.15399368107318878,-0.7549992799758911,-0.6259663701057434,0.19530092179775238,-0.34471702575683594,0.44272351264953613,-0.2926519811153412,-0.24595793412464112,-0.7398996475309056,-0.22405126747110576,-0.5846831277753803,0.6763700907164295,-1.8239247113801285,-3.0852237925152486
1772660835530157824,3.316222906112671,-0.16539765894412994,-0.05160588026046753,-0.17548884451389313,-0.7541875243186951,-0.6283146142959595,0.19084593653678894,-0.13861960172653198,0.2770114541053772,-0.31314513087272644,-0.2488260112402423,-0.738824268902568,-0.22262450580666224,-0.5853740146626224,0.6793848653087932,-1.8186420033173336,-3.0931802104515613
1772660835540195840,3.326261043548584,0.08438368886709213,-0.17135918140411377,-0.3508060872554779,-0.7524223327636719,-0.6302260160446167,0.1915094554424286,-0.047122955322265625,0.0852278470993042,-0.10750985145568848,-0.24971016730613405,-0.7388156386765804,-0.2233969025411233,-0.5847137196797638,0.6818442871393354,-1.82002820455885,-3.0925264056646897
1772660835550232832,3.3362979888916016,-0.052251700311899185,-0.10563196241855621,-0.2651890218257904,-0.7501450181007385,-0.6325615644454956,0.19273974001407623,-0.10074621438980103,-0.02921217679977417,0.13851335644721985,-0.25067711971909273,-0.7388981905174474,-0.22449796808196784,-0.583773279272111,0.6848561055492506,-1.8222928658804292,-3.0911069719150888
1772660835560270848,3.3463358879089355,-0.3699396550655365,-0.017941530793905258,-0.17929169535636902,-0.7487491369247437,-0.6344494819641113,0.19195972383022308,-0.20703083276748657,0.030369341373443604,0.19646798074245453,-0.25210049049232586,-0.7386213811110595,-0.22454023224338046,-0.5834941777843219,0.6872960683533381,-1.8217648776255302,-3.0930563560853286
1772660835570307840,3.356372833251953,-0.6449064612388611,0.18534314632415771,-0.11662060022354126,-0.748073160648346,-0.6364656686782837,0.18787838518619537,-0.39575624465942383,0.2630831003189087,0.11452031135559082,-0.25432985864494506,-0.7375157393144669,-0.22362854577928953,-0.5842749663786415,0.6899072800442542,-1.8168568191136216,-3.0992335825334036
1772660835580344832,3.36641001701355,-0.639764130115509,0.22625435888767242,-0.03771220147609711,-0.7480673789978027,-0.6381692886352539,0.18203090131282806,-0.44341516494750977,0.5510110855102539,-0.021493196487426758,-0.2567126694532702,-0.7359616212284712,-0.2222069745273325,-0.5857330372178684,0.6921180319925618,-1.8094921762232925,-3.107371714710979
1772660835590382848,3.376447916030884,-0.4397544860839844,0.18301953375339508,0.001250909990631044,-0.7484632134437561,-0.6391505002975464,0.17688804864883423,-0.3660539388656616,0.7099665999412537,-0.1279989629983902,-0.25849714145737723,-0.7346175125760854,-0.2208645214064748,-0.5871415173854674,0.6933932128758205,-1.8028730509375641,-3.1143449904507645
