time,seconds_elapsed,rotationRateX,rotationRateY,rotationRateZ,gravityX,gravityY,gravityZ,accelerationX,accelerationY,accelerationZ,quaternionW,quaternionX,quaternionY,quaternionZ,pitch,roll,yaw
1773063600322329344,0.033834218978881836,-0.023879753425717354,0.03759891539812088,0.017417753115296364,0.025815512984991074,-0.18018729984760284,-0.9832934737205505,-0.04295113682746887,0.004589170217514038,-0.002225935459136963,0.9870604398664694,0.08796204085953356,0.02481799958087622,0.13175125492684267,0.18117687138118685,0.026248097755178005,0.26300369143909974
1773063600332366592,0.043871402740478516,-0.02440732531249523,-0.0006757681258022785,-0.007964035496115685,0.026042819023132324,-0.17994935810565948,-0.9833310842514038,-0.028285862877964973,0.009981706738471985,-0.0037142038345336914,0.987065822270141,0.0878269340480881,0.02491773228621544,0.13178226224295542,0.18093497064081351,0.026478094747090137,0.26304632360762564
1773063600342402560,0.05390739440917969,-0.026692917570471764,-0.05541561543941498,-0.021693207323551178,0.025795113295316696,-0.179697185754776,-0.9833837151527405,0.011924613267183304,0.009348064661026001,0.0046544671058654785,0.987091163707181,0.08771902551595147,0.024769222735221443,0.13169234896791293,0.18067861597675813,0.026224960340801965,0.26288695907621273
1773063600352438528,0.06394338607788086,-0.016949210315942764,-0.06894473731517792,-0.025844808667898178,0.02521514520049095,-0.17942968010902405,-0.9834476113319397,0.03556061536073685,0.004487663507461548,0.009433329105377197,0.987129430844879,0.08762713601217029,0.024447561929160058,0.1315270115216141,0.1804066913365162,0.02563392483400338,0.2626047453168501
1773063600362475520,0.07398033142089844,0.027585433796048164,-0.051405325531959534,-0.037533290684223175,0.024652427062392235,-0.17948687076568604,-0.9834514260292053,0.025823647156357765,0.003110527992248535,0.012504160404205322,0.987154554082867,0.08769728488664169,0.02415512126777495,0.13134528024937014,0.1804648264686107,0.025062005647838694,0.2622872830131272
1773063600372511488,0.08401632308959961,0.05024733394384384,-0.012853405438363552,-0.03148019313812256,0.02439066953957081,-0.17986851930618286,-0.9833882451057434,-0.0017161071300506592,0.009733021259307861,0.002293884754180908,0.9871658262691856,0.08791089854015141,0.024032440606364808,0.13114038259070554,0.18085278615236527,0.02479760282822621,0.26189548014312874
1773063600382548224,0.09405326843261719,0.05175122246146202,0.016934184357523918,-3.7935562431812286e-05,0.024445801973342896,-0.1803651750087738,-0.9832959175109863,-0.023194575682282448,0.015997499227523804,-0.005855083465576172,0.9871532732466267,0.08815840644262099,0.02408629224135205,0.13105910060793657,0.1813577020071105,0.024855963673678365,0.26172537486932457
1773063600392584448,0.10408926010131836,0.04376174136996269,0.02193480171263218,0.004378383979201317,0.024660032242536545,-0.18084527552127838,-0.983202338218689,-0.023927614092826843,0.01865960657596588,0.002367377281188965,0.9871252923748568,0.08838444996437471,0.024228335840429105,0.13109078252583745,0.18184582941111727,0.025076082917978304,0.26176961504600016
1773063600402621440,0.11412644386291504,0.018536878749728203,0.018442898988723755,0.005531755276024342,0.02486596256494522,-0.18110214173793793,-0.9831498861312866,-0.01239953376352787,0.005488738417625427,0.005839705467224121,0.9871086313534593,0.08849918707627283,0.024350583045621054,0.1311163405905423,0.18210700852632483,0.025286746707911107,0.26180237778313326
1773063600412657408,0.12416243553161621,0.014815377071499825,0.007281590718775988,-0.0001636806409806013,0.02497652731835842,-0.18126872181892395,-0.9831163883209229,-0.0019967909902334213,-0.00649067759513855,0.0071032047271728516,0.9870964413687053,0.08857481845763404,0.024419442609089827,0.131144285545215,0.1822763872781778,0.025399999535535144,0.2618487324810401
1773063600422693376,0.13419842720031738,0.028209345415234566,-0.0014512476045638323,0.0034311427734792233,0.025008434429764748,-0.18146970868110657,-0.9830784797668457,0.0006415937095880508,-0.009616106748580933,0.007477283477783203,0.987086219747903,0.08867343711967143,0.024449420330896223,0.1311494025093882,0.18248076945743755,0.025433414298710426,0.2618559779508613
1773063600432730368,0.14423537254333496,0.06005728989839554,-0.008041772060096264,-0.003192937932908535,0.024966219440102577,-0.18189693987369537,-0.9830005764961243,-0.0016660522669553757,-0.0037872493267059326,0.005141139030456543,0.9870676937322568,0.08889081927214902,0.024456499789226288,0.13113965620978946,0.18291523674217222,0.02539250993367514,0.26183960454419103
1773063600442766336,0.15427136421203613,0.08037674427032471,0.004592430777847767,0.00014671077951788902,0.02493872493505478,-0.18257573246955872,-0.9828754663467407,-0.005453251302242279,0.012058764696121216,0.0018268823623657227,0.9870393184426222,0.08923383638655961,0.024486613755890084,0.13111492505153385,0.18360558201445273,0.0253677875589342,0.26179132444811487
1773063600452803328,0.1643083095550537,0.08722106367349625,0.017835531383752823,0.013484619557857513,0.025067538022994995,-0.1834179013967514,-0.982715368270874,-0.006879055872559547,0.019004449248313904,-0.0017817020416259766,0.9869979324404587,0.08964784802348269,0.024608501959782068,0.1311216262058505,0.18446221123879267,0.0255029113955012,0.2617921836884718
1773063600462839296,0.17434430122375488,0.05963098630309105,0.03886185586452484,0.02042889967560768,0.02533366158604622,-0.18415458500385284,-0.9825707674026489,-0.010700477287173271,0.013774946331977844,0.0030175447463989258,0.9869505075880831,0.08999809560484257,0.024798448118464763,0.13120289237555022,0.18521167101290822,0.025777328869487925,0.26193142631688904
1773063600472876288,0.18438124656677246,0.02972794696688652,0.03752228617668152,0.024662263691425323,0.025671539828181267,-0.18461163341999054,-0.9824762344360352,-0.011099394410848618,-0.00047747790813446045,0.005745887756347656,0.986908426753479,0.09020187319546175,0.02501024166982873,0.131339266943447,0.18567668659323047,0.026123482889809452,0.2621758521385057
1773063600482912256,0.19441723823547363,0.0015732741449028254,0.023563459515571594,0.017835427075624466,0.02592228166759014,-0.18476268649101257,-0.982441246509552,-0.009808998554944992,-0.013769418001174927,0.008579552173614502,0.9868854439882101,0.09025853159275946,0.025155080404793733,0.1314450970045619,0.18583038549214806,0.026379459967950023,0.26236678133809566
1773063600492948224,0.2044532299041748,-0.005848689004778862,0.005156221799552441,0.0035875150933861732,0.026050997897982597,-0.1847132444381714,-0.9824471473693848,-0.006535002961754799,-0.021234631538391113,0.008509159088134766,0.9868788609855271,0.09022370448060567,0.025221364309894266,0.13150570607630357,0.18578007356358053,0.026510226044384445,0.2624776997386336
1773063600502985472,0.21449041366577148,0.008385241031646729,-0.018626539036631584,-0.020156430080533028,0.02599039115011692,-0.18471725285053253,-0.9824479818344116,0.00010213814675807953,-0.011114045977592468,0.007289290428161621,0.986885721176995,0.09023098230659597,0.025186880293499875,0.13145570339069518,0.18578415800400971,0.026448555477908108,0.26238199510639915
1773063600513021440,0.22452640533447266,0.03665788844227791,-0.030181730166077614,-0.01571054942905903,0.02577124536037445,-0.1849452257156372,-0.9824108481407166,0.005951782688498497,0.0008784681558609009,0.0012249350547790527,0.9868909296922548,0.09036259354930999,0.025083236984781175,0.13134635000608144,0.18601613178974613,0.026226639259947716,0.2621804976720629
1773063600523058432,0.23456335067749023,0.0486580953001976,-0.018793119117617607,-0.003837822237983346,0.025506453588604927,-0.18534888327121735,-0.9823417067527771,0.008047623559832573,0.008880972862243652,-0.0038033127784729004,0.9868813461065571,0.09058414039782164,0.02497327142012888,0.13128599673621064,0.18642688062137608,0.02595911738210026,0.2620823850175403
1773063600533094400,0.2445993423461914,0.01963523030281067,0.0028767555486410856,-0.0029890728183090687,0.025405973196029663,-0.18558543920516968,-0.9822996258735657,0.0017851851880550385,0.013069584965705872,-0.004638791084289551,0.9868731077872195,0.09070994261831754,0.024937662960226113,0.13126810167411282,0.18666762424051472,0.025858007321348436,0.2620552647448705
1773063600543130368,0.2546353340148926,0.030428491532802582,0.010068089701235294,-0.007056429982185364,0.025440841913223267,-0.18576520681381226,-0.9822647571563721,-0.008595136925578117,0.013951241970062256,-0.0001418590545654297,0.9868665173231684,0.09079832072011972,0.024965702620517213,0.13125127354136884,0.18685056569362304,0.025894398527180285,0.2620177066771315
1773063600553167360,0.26467227935791016,0.015386158600449562,0.004041622392833233,-0.015350046567618847,0.025494903326034546,-0.18600110709667206,-0.9822187423706055,-0.011624662205576897,0.001278206706047058,0.004725456237792969,0.9868644618211337,0.09091502345677353,0.025002025652369475,0.1311791888803366,0.18709064651509835,0.025950615103564,0.26186630234195407
1773063600563203328,0.27470827102661133,0.0019473152933642268,0.004759211093187332,0.006454674061387777,0.025507977232336998,-0.18609561026096344,-0.9822004437446594,-0.00786881148815155,-0.009323686361312866,0.0013197660446166992,0.9868644553786745,0.09096249267735314,0.02501176775975848,0.1311445633396261,0.18718684003043018,0.025964398056364326,0.26179480277127676
1773063600573240576,0.284745454788208,0.03010864555835724,0.013086383230984211,0.017055386677384377,0.025543376803398132,-0.18633189797401428,-0.9821547269821167,0.0014189016073942184,-0.00023730099201202393,0.005973756313323975,0.9868428601796785,0.09107690761538158,0.02505234699275342,0.1312192313437653,0.18742732136067972,0.026001624543661114,0.2619425218188683
1773063600583276544,0.2947814464569092,0.02412046119570732,0.016724759712815285,-0.0008130485657602549,0.025701120495796204,-0.18665975332260132,-0.9820883870124817,0.0031532496213912964,0.008528649806976318,0.00018531084060668945,0.9868193158169289,0.09122987067359699,0.02515790138437309,0.1312699733445879,0.18776103589440576,0.026163893532993542,0.2620301598695409
1773063600593313536,0.30481839179992676,0.035446617752313614,0.015214748680591583,0.0012264000251889229,0.025870876386761665,-0.18693895637989044,-0.9820308089256287,-0.006858427077531815,0.001422598958015442,-0.003686964511871338,0.986803784629736,0.09135873064237279,0.025262116560322078,0.13127714998121137,0.18804524698863012,0.02633816984142623,0.262028382057693
1773063600603349504,0.31485438346862793,0.04572175815701485,0.0009318822994828224,-0.0153444092720747,0.02598021738231182,-0.18733027577400208,-0.9819533824920654,-0.0062963757663965225,0.0008526146411895752,0.00424647331237793,0.9867870521526683,0.09154858840566692,0.025341204864671722,0.1312555962283583,0.18844359777305103,0.0264515180574578,0.26197389620771827
1773063600613385472,0.3248903751373291,0.04052779823541641,-0.0074056764133274555,-0.032281581312417984,0.025983458384871483,-0.18767717480659485,-0.9818870425224304,0.004961367696523666,0.004632741212844849,0.00402754545211792,0.9867863095881191,0.09172567384318248,0.025355193449807068,0.13113481057411405,0.18879676364530038,0.02645660280242445,0.2617283460184376
1773063600623422464,0.3349273204803467,0.05432610213756561,-0.004466378130018711,-0.03146589919924736,0.025936484336853027,-0.1880701184272766,-0.9818130731582642,0.008151652291417122,0.005422428250312805,0.0034500956535339355,0.9867899726399803,0.09193040751538452,0.025342804360097747,0.13096627178102727,0.18919682596374743,0.026410784905547845,0.26139072221721654
1773063600633458432,0.34496331214904785,0.04794996231794357,-0.006121532991528511,-0.038289718329906464,0.025900373235344887,-0.18856894969940186,-0.9817183613777161,0.0014738962054252625,0.00013816356658935547,0.008131325244903564,0.9867898674218337,0.09218793131320821,0.02534184044566132,0.1307859311117604,0.18970474535243537,0.026376574323229315,0.26102803319178564
1773063600643495424,0.35500025749206543,0.04515976458787918,0.0032310890965163708,-0.018273930996656418,0.025898495689034462,-0.18904659152030945,-0.9816265106201172,-0.005146542564034462,-0.0033667385578155518,0.004896223545074463,0.9867875701882906,0.09243203386229719,0.025358458748529922,0.13062748594093834,0.19019113574066174,0.026377128008934176,0.2607065053844371
1773063600653531392,0.3650362491607666,0.028641510754823685,0.018561042845249176,0.007203199900686741,0.026017293334007263,-0.18940038979053497,-0.981555163860321,-0.007691489532589912,-0.0007851570844650269,0.00891423225402832,0.986771875746574,0.09260245908301935,0.025439916559050247,0.13060935865529036,0.19055144429620782,0.02649998954789088,0.2606579870741155
1773063600663568384,0.3750734329223633,0.017256630584597588,0.030958523973822594,0.012580210343003273,0.02625851519405842,-0.18957798182964325,-0.9815144538879395,-0.007581764832139015,0.006762444972991943,0.0051046013832092285,0.9867532025302135,0.0926742891329827,0.0255780488130935,0.13067231430585866,0.19073232330407752,0.02674667984848391,0.26076228087868947
1773063600673604608,0.38510942459106445,0.01131032407283783,0.026880957186222076,0.007366007659584284,0.0264987014234066,-0.18967686593532562,-0.9814889430999756,-0.0101260244846344,0.006907105445861816,0.011350393295288086,0.9867396470185069,0.09270686639084162,0.025709463000508425,0.13072598197421642,0.1908330325353517,0.02699191442588001,0.26084793973829556
1773063600683640576,0.3951454162597656,0.03170940279960632,0.02202511765062809,-0.0024809865280985832,0.026721302419900894,-0.18987800180912018,-0.9814440011978149,-0.008029285818338394,0.001859217882156372,0.007322907447814941,0.9867263066614814,0.09279296619314127,0.025835409989831516,0.13074081083309697,0.19103789110425357,0.02721979297269162,0.2608563747129029
1773063600693677312,0.4051823616027832,0.06447400897741318,0.012899262830615044,-0.0009723056573420763,0.026892323046922684,-0.19033510982990265,-0.9813507795333862,-0.0017458368092775345,0.003277599811553955,0.00802314281463623,0.9867049977540909,0.09301187523062372,0.025949989399318668,0.13072333863872843,0.191503478054871,0.02739651795688104,0.2608038193402168
1773063600703713536,0.4152183532714844,0.06705820560455322,0.02613483928143978,0.01998393051326275,0.027076471596956253,-0.1909652203321457,-0.9812232851982117,0.004280347377061844,0.006669566035270691,0.00246351957321167,0.9866659795979326,0.09331504541230333,0.02608935336466685,0.13077464031980424,0.19214536167324395,0.02758760668363253,0.26088906181367433
1773063600713750272,0.42525529861450195,0.08120172470808029,0.03618587553501129,0.013352127745747566,0.027356112375855446,-0.19168512523174286,-0.9810751676559448,0.00041488371789455414,0.006702825427055359,-0.004642605781555176,0.9866147064974081,0.09365574534075824,0.026287357317516413,0.13087758009582398,0.19287882093493627,0.02787658560926969,0.2610694482652957
1773063600723786240,0.4352912902832031,0.06973955035209656,0.03543010354042053,-0.019100487232208252,0.02767862379550934,-0.19243751466274261,-0.980918824672699,-0.011656895279884338,-0.0010134130716323853,-0.0023880600929260254,0.9865758475335805,0.0940128552330533,0.026498710770856422,0.1308722769320125,0.1936454891353,0.028209552855600586,0.2610260489737614
1773063600733823232,0.4453282356262207,0.030914384871721268,0.008561472408473492,-0.04633157700300217,0.0279585812240839,-0.19292567670345306,-0.9808149933815002,-0.0124861691147089,-0.012274503707885742,0.002726614475250244,0.9865717980265449,0.09424439597947165,0.026655387598104336,0.13070445743858605,0.19414297582759998,0.028497743162795998,0.2606576426810782
1773063600743859200,0.4553642272949219,-0.016573838889598846,-0.02430623024702072,-0.043741073459386826,0.027965476736426353,-0.19298207759857178,-0.9808036684989929,0.0032082293182611465,-0.007426843047142029,0.006057024002075195,0.9866001872727491,0.09427866639468567,0.02664009483859531,0.13046836953486515,0.194200452926082,0.028505095596858144,0.26017825872660544
1773063600753895168,0.46540021896362305,-0.019559508189558983,-0.046291954815387726,-0.02324964664876461,0.027659490704536438,-0.19275937974452972,-0.9808561205863953,0.01949016936123371,-0.004368916153907776,0.008901774883270264,0.9866370733175225,0.09419148924747027,0.026455458769836467,0.13028981090381234,0.1939734963166236,0.028191863009695544,0.25984654305715477
1773063600763932416,0.4754374027252197,-0.005158597603440285,-0.05122699588537216,-0.037836313247680664,0.02723628841340542,-0.1926409900188446,-0.980891227722168,0.02180546149611473,-0.0025189071893692017,0.009043753147125244,0.9866664594394022,0.09416367907227903,0.02622171069654956,0.13013445060805046,0.19385283433229314,0.02775974525416873,0.25957301743056715
1773063600773968384,0.4854733943939209,0.006114030256867409,-0.029682552441954613,-0.019294854253530502,0.026898959651589394,-0.19264958798885345,-0.9808988571166992,0.007769009098410606,0.0014569759368896484,-0.0028657913208007812,0.9866903358043393,0.09419434250159063,0.026038302301482682,0.1299681159413049,0.19386160822615636,0.027415895027865973,0.2592686732341666
1773063600784005376,0.4955103397369385,-0.015946995466947556,-0.008281889371573925,0.015269115567207336,0.02672966755926609,-0.19261027872562408,-0.9809111952781677,-0.00806817039847374,0.012175112962722778,-0.0067901611328125,0.9866970376784999,0.09418630817366642,0.025948666982202995,0.12994074275441855,0.19382154551014702,0.027243092495423317,0.2592297158466017
1773063600794041344,0.5055463314056396,-0.04345371946692467,0.011376501061022282,0.028360683470964432,0.026707254350185394,-0.19236117601394653,-0.9809607267379761,-0.009556377306580544,0.015939056873321533,-0.007045865058898926,0.9866936811263026,0.09405940391389958,0.025932167192903824,0.1300611950871343,0.193567694075273,0.02721888669115229,0.2594764115886116
1773063600804078336,0.5155832767486572,-0.08775940537452698,-0.002085113199427724,0.03827492147684097,0.026696113869547844,-0.1917196363210678,-0.9810866117477417,-0.005455879494547844,0.00550137460231781,-0.004051327705383301,0.9867028875280811,0.09373320756165607,0.025899628955426288,0.1302332706346974,0.19291399027998668,0.027204048394346463,0.2598272388318644
1773063600814113280,0.525618314743042,-0.09931672364473343,-0.023128613829612732,0.019023995846509933,0.026507966220378876,-0.19077177345752716,-0.9812764525413513,0.001491909846663475,-0.011468231678009033,0.004164636135101318,0.9867275279053603,0.0932645544263908,0.025758534453470143,0.1304104451901692,0.19194829610489436,0.027007191467285672,0.2602058994962433
1773063600824149248,0.5356543064117432,-0.09732002019882202,-0.05300295352935791,-0.12873563170433044,0.02625987119972706,-0.1898348033428192,-0.9814648032188416,0.014084363356232643,-0.018539220094680786,-0.005260050296783447,0.9868061426447905,0.09281605319845386,0.025549515389803785,0.1301766512613413,0.19099388780827672,0.026749413522665393,0.2597571981867914
1773063600834186496,0.5456914901733398,-0.20837277173995972,-0.17900055646896362,-0.24130453169345856,0.025527270510792732,-0.1883750855922699,-0.9817653298377991,0.02580329030752182,-0.01793898642063141,-0.004227042198181152,0.9870120744959596,0.09215553979032907,0.024993727811117764,0.12918893491113223,0.1895073494593368,0.0259955396018522,0.2578273605132542
1773063600844222464,0.555727481842041,-0.48551687598228455,-0.40126553177833557,-0.16109490394592285,0.023108692839741707,-0.1850992739200592,-0.9824481010437012,0.046211984008550644,-0.001759856939315796,-0.003071308135986328,0.9873373122928223,0.09069446295053483,0.023462100427887655,0.12801951295468667,0.18617287481806555,0.023517203975932943,0.255688384444092
1773063600854259456,0.5657644271850586,-0.735818088054657,-0.5907459855079651,-0.0841551199555397,0.018372267484664917,-0.1787736564874649,-0.9837186932563782,0.08822563290596008,-0.01760697364807129,-0.021942317485809326,0.9877512778071238,0.08783755500431724,0.020620949539966602,0.1273058557427892,0.17973987968920194,0.018674172801212124,0.2546730044794978
1773063600864295424,0.5758004188537598,-1.5638564825057983,-0.6171340942382812,0.37249377369880676,0.011756227351725101,-0.1676803082227707,-0.9857712984085083,0.12430639564990997,-0.1639542132616043,-0.029823124408721924,0.988197353452589,0.08268723183618812,0.016648095166514283,0.12787330819558262,0.168476181919331,0.011925352056732608,0.2563640147161735
1773063600874332416,0.5858373641967773,-2.323915719985962,-0.7361396551132202,0.41095274686813354,0.004577144980430603,-0.14837338030338287,-0.9889208078384399,0.1030888706445694,-0.3964416980743408,-0.027558624744415283,0.9887433066058784,0.07346149023575205,0.01195821008440901,0.1297962741373244,0.14892323884029332,0.004628390996437022,0.26070994450219026
1773063600884368384,0.5958733558654785,-3.360325574874878,-0.43401268124580383,0.35964369773864746,-0.003046021331101656,-0.12017133086919785,-0.992748498916626,0.07575415074825287,-0.541693925857544,-0.030597448348999023,0.9894898132981782,0.05987146338157528,0.006415667576421797,0.13146911595904628,0.12046246179586953,-0.0030682612548908346,0.26436882045563886
1773063600894404352,0.6059093475341797,-3.9818081855773926,-1.4741486310958862,0.5901853442192078,-0.01227231789380312,-0.0834701657295227,-0.9964346885681152,0.13245053589344025,-0.5639907717704773,-0.03093951940536499,0.9898302373284379,0.04221946700177801,-0.0004050397615002079,0.13584345371362908,0.0835673977530434,-0.012315605925752275,0.2732891691243924
1773063600904441344,0.6159462928771973,-4.675915241241455,-1.6264795064926147,0.7424584627151489,-0.02863924764096737,-0.0400959849357605,-0.9987853169441223,0.3012527823448181,-0.4883158802986145,-0.07489937543869019,0.9900173284450066,0.02184832549487507,-0.011401453908215922,0.13877434482986498,0.04010673449999339,-0.02866622320003634,0.279107466255312
1773063600914477312,0.6259822845458984,-4.849552631378174,-0.27520886063575745,2.0105111598968506,-0.04058840125799179,0.009447505697607994,-0.9991312623023987,0.4631500542163849,-0.41491931676864624,-0.15127462148666382,0.9892877765405634,-0.0017417476258898084,-0.020768328136999605,0.14448265696814694,-0.009447646278002524,-0.040601367281992796,0.2898518551531482
1773063600924514560,0.6360194683074951,-4.197906970977783,1.5803778171539307,2.3238956928253174,-0.028126239776611328,0.05480534955859184,-0.9981008172035217,0.45415163040161133,-0.34717899560928345,-0.22386878728866577,0.9872216957277926,-0.024877446596377337,-0.01818494754246848,0.15634463429957174,-0.054832820920812896,-0.028172301149061125,0.31335514076651577
1773063600934550528,0.6460554599761963,-4.521617889404297,-1.752422571182251,1.0617163181304932,-0.028310345485806465,0.09876742959022522,-0.9947077631950378,0.81613689661026,-0.23130527138710022,-0.43098193407058716,0.9851369595453732,-0.046452794668022386,-0.022096608300877525,0.16388708666647006,-0.09892871579994277,-0.028453286078402213,0.32829128917056627
1773063600944587520,0.6560924053192139,-4.739011287689209,-2.9216315746307373,1.1717878580093384,-0.05164894089102745,0.14529496431350708,-0.9880393743515015,1.0362528562545776,-0.12397843599319458,-0.24456560611724854,0.9825557282629978,-0.0674157515461055,-0.03788720869811948,0.16912700372318437,-0.14581109550575785,-0.05222663603965929,0.3371033500418479
1773063600954623488,0.666128396987915,-4.524144649505615,-2.332559108734131,1.8423198461532593,-0.07574280351400375,0.19239948689937592,-0.9783892035484314,0.7850781083106995,-0.1780104786157608,0.08919858932495117,0.9787943828399535,-0.08843054865050332,-0.05463906169588974,0.17651147126002492,-0.19360673801917677,-0.07726171426245206,0.349329676590889
1773063600964659456,0.6761643886566162,-3.9214210510253906,-1.6284197568893433,2.190349578857422,-0.09017942100763321,0.23534053564071655,-0.9677202701568604,0.4211730659008026,-0.39351314306259155,-0.16672492027282715,0.9742480552261185,-0.10798349330179308,-0.06692858138321006,0.18628150841733923,-0.23756892502478413,-0.09291914537281729,0.3667527675170788
1773063600974696448,0.6862013339996338,-3.237725019454956,-1.8123986721038818,2.0271646976470947,-0.10096699744462967,0.2720896899700165,-0.9569602012634277,0.10899311304092407,-0.3846690356731415,-0.21537256240844727,0.9695042891880067,-0.12466797443177116,-0.07731613406020725,0.19632006290675727,-0.2755639864144203,-0.10511913155756317,0.3849984201016113
1773063600984732416,0.696237325668335,-2.419337749481201,-2.1088638305664062,2.023721694946289,-0.11411352455615997,0.3012768626213074,-0.9466838836669922,0.15789099037647247,-0.11623352766036987,-0.1891803741455078,0.9647984130950984,-0.13723062171822664,-0.08846364223226995,0.20616987536768172,-0.3060314369706759,-0.11996148448617724,0.4025293008953482
1773063600994769408,0.7062742710113525,-1.7112902402877808,-1.9457366466522217,2.2962703704833984,-0.1267191767692566,0.3232719898223877,-0.9377833008766174,0.3774515986442566,0.1374976634979248,-0.16277211904525757,0.9600868497980214,-0.14597119701842934,-0.09899881171949278,0.21708302684341332,-0.32918508503143196,-0.13431275461294354,0.42239573886122855
1773063601004805376,0.7163102626800537,-1.3263894319534302,-1.6503159999847412,2.4763755798339844,-0.1355046182870865,0.3404143750667572,-0.9304603934288025,0.4902409315109253,0.2650238573551178,-0.1533408761024475,0.9553564981723844,-0.15237916964888568,-0.1074727430888379,0.2291814119354916,-0.3473575521919834,-0.14461515408918765,0.44546862916251156
1773063601014841600,0.726346492767334,-1.4359537363052368,-1.5598467588424683,2.447159767150879,-0.1416105329990387,0.3563951849937439,-0.9235414862632751,0.4356321692466736,0.22844365239143372,-0.15646028518676758,0.9504896859067737,-0.15832559076393576,-0.11472687506415774,0.24153672322652645,-0.36440688510750807,-0.15214921189471164,0.469616243079563
1773063601024878592,0.7363834381103516,-1.7690849304199219,-1.646782636642456,2.2384746074676514,-0.14772848784923553,0.37465858459472656,-0.9153181314468384,0.31992393732070923,0.11388206481933594,-0.10676133632659912,0.9453207821418073,-0.16539906566670817,-0.12240954572969354,0.25303677452808093,-0.38402850701687236,-0.16001590867107088,0.49191055228793823
1773063601034914560,0.7464194297790527,-1.900741457939148,-1.7371290922164917,2.129904270172119,-0.15483354032039642,0.39479944109916687,-0.9056268334388733,0.22575639188289642,0.0019596219062805176,-0.02711242437362671,0.9398666836607513,-0.173303043100701,-0.13096808046337885,0.263560080550939,-0.40584953576139243,-0.16933117564530253,0.5118804577418824
1773063601044951552,0.7564563751220703,-1.7886360883712769,-1.7247031927108765,2.311842679977417,-0.16158321499824524,0.41514113545417786,-0.8952925205230713,0.16580988466739655,-0.09932997822761536,-0.003267049789428711,0.9340502712775502,-0.18121387599804242,-0.1396970258093954,0.27421982326945227,-0.42809792409918057,-0.17855871936541698,0.5322023357671762
1773063601054987520,0.7664923667907715,-1.3388755321502686,-1.553192138671875,2.5190274715423584,-0.16595160961151123,0.43326130509376526,-0.8858581781387329,0.15333259105682373,-0.16243305802345276,0.04975283145904541,0.9279908361421632,-0.18803655033943548,-0.14735390970584866,0.2859405612936788,-0.4481082216374017,-0.18518785482027772,0.5554795731190006
1773063601065024256,0.7765293121337891,-0.7821205258369446,-1.2913099527359009,2.4208896160125732,-0.16749325394630432,0.44679832458496094,-0.8788158297538757,0.14779414236545563,-0.14722251892089844,0.11287039518356323,0.9222554247074102,-0.1927466748422061,-0.15310390366762217,0.2980818274466859,-0.46318336596018167,-0.18833104312230647,0.5806862204488848
1773063601075060480,0.7865653038024902,-0.20999017357826233,-1.0147219896316528,2.1160635948181152,-0.16740337014198303,0.45500069856643677,-0.8746144771575928,0.10972516238689423,-0.06231576204299927,0.21435141563415527,0.9174149068766483,-0.19505298064840434,-0.1569939541793434,0.30928474511709064,-0.47237299388013737,-0.1891151978534134,0.6046765223182783
1773063601085096448,0.7966012954711914,0.28452813625335693,-0.670856237411499,1.9519062042236328,-0.16555283963680267,0.45788174867630005,-0.8734623789787292,0.04184983670711517,0.08632296323776245,0.38908737897872925,0.9136201348144014,-0.19506612745915955,-0.15880179582850298,0.31942038502187714,-0.47561102838461394,-0.1873143773541795,0.6271445819869041
1773063601095133440,0.8066384792327881,0.5882891416549683,-0.30609241127967834,1.946142554283142,-0.16090264916419983,0.4572107195854187,-0.8746820688247681,0.011168166995048523,0.2311132550239563,0.5443750619888306,0.9104905709147302,-0.19380508017189804,-0.15842524743555536,0.32916252517644584,-0.47485636081418214,-0.18192172296917053,0.6496665641198106
1773063601105169408,0.8166744709014893,0.7818997502326965,-0.037362176924943924,1.7937273979187012,-0.15367262065410614,0.4540224075317383,-0.8776379823684692,0.01844923198223114,0.3389768600463867,0.6504346132278442,0.9078842679907472,-0.19182903835212076,-0.15614941852779782,0.33847477402467563,-0.4712747125680893,-0.1733407185759137,0.671993883725178
1773063601115206400,0.8267114162445068,0.7053767442703247,0.20902922749519348,1.5495706796646118,-0.14538143575191498,0.4498063921928406,-0.8812142014503479,0.002727016806602478,0.3749464154243469,0.6581612229347229,0.9058113124691295,-0.18979997179061245,-0.15286881561479052,0.3465732234808944,-0.4665485599490164,-0.16350572545571032,0.6919220996100572
1773063601125242368,0.836747407913208,0.4698667526245117,0.5466552972793579,1.4268041849136353,-0.13541895151138306,0.44666868448257446,-0.8843917846679688,-0.06381505727767944,0.32988160848617554,0.6785202026367188,0.9040576656087899,-0.1888992478864426,-0.14873192056310186,0.35337757331402636,-0.46303846374754715,-0.15194086008984384,0.7093537312438076
1773063601135279360,0.8467843532562256,0.39579012989997864,0.939287543296814,1.3567383289337158,-0.1225583627820015,0.44477394223213196,-0.8872179388999939,-0.1504213809967041,0.25751182436943054,0.6868242025375366,0.9024970898351624,-0.18936337451626437,-0.14329186238403308,0.35931608294420886,-0.46092183443087803,-0.1372691131880842,0.7255407476203974
1773063601145315328,0.8568203449249268,0.35288718342781067,1.2452133893966675,1.1621888875961304,-0.10704488307237625,0.44283637404441833,-0.8901894688606262,-0.21073465049266815,0.13942375779151917,0.5934823155403137,0.9013352144551576,-0.1905371222406456,-0.13638498031300855,0.36426573523991806,-0.45875969360511015,-0.11967492203387013,0.7401662852388604
1773063601155351296,0.8668563365936279,0.19473294913768768,1.5174601078033447,0.8952110409736633,-0.09015415608882904,0.44131186604499817,-0.8928135633468628,-0.22822049260139465,-0.01670554280281067,0.4876469373703003,0.9006264560038312,-0.19246384684740128,-0.12865022596212855,0.36780269148244954,-0.4570600730627259,-0.10063645759857406,0.7520023628205948
1773063601165388288,0.8768932819366455,0.5988766551017761,1.5874431133270264,0.4984358847141266,-0.07246576249599457,0.4391988515853882,-0.8954625129699707,-0.20564092695713043,-0.06731167435646057,0.4320988655090332,0.9005274137350208,-0.19452237463320962,-0.12012409744754983,0.36984003480612354,-0.45470673083123875,-0.08074954551586062,0.7606889322885857
1773063601175424256,0.8869292736053467,0.6714826822280884,1.2218281030654907,-1.0744904279708862,-0.05986955761909485,0.43108174204826355,-0.9003244638442993,-0.13918134570121765,0.07253459095954895,0.3978830575942993,0.902666000317145,-0.1931755988849472,-0.11189703863720263,0.3679081299998995,-0.445691298599764,-0.06639999888647491,0.7589945004538852
1773063601185461504,0.8969664573669434,-0.4858788847923279,0.6329577565193176,-2.0864529609680176,-0.061034440994262695,0.4330088198184967,-0.8993209600448608,-0.1284339427947998,0.5774434804916382,0.33260953426361084,0.9059382550593917,-0.19499769203252193,-0.11097490514652936,0.35907702948358666,-0.44782808625095943,-0.06776333974886384,0.7392902068463164
1773063601195497472,0.9070024490356445,2.747600555419922,1.414313793182373,-0.7467729449272156,-0.05810166895389557,0.42253899574279785,-0.904480516910553,-0.4231758117675781,2.065955877304077,0.417419970035553,0.9102154748024306,-0.1912136124056371,-0.10581633074359913,0.35177844677255443,-0.4362448447322893,-0.06414947167940634,0.7233679109888344
1773063601205534464,0.9170393943786621,5.258848190307617,1.6569095849990845,0.42946651577949524,-0.043823495507240295,0.38394975662231445,-0.9223134517669678,-0.8352963924407959,2.3290019035339355,0.18439841270446777,0.9149083847470351,-0.17470655667746926,-0.09121891629717492,0.35227757866922144,-0.3940701184336252,-0.04747904531792066,0.7256101106808515
1773063601215570432,0.9270753860473633,3.702471971511841,2.0346038341522217,0.2662142217159271,-0.02546340972185135,0.34055542945861816,-0.9398795962333679,-0.7138859629631042,0.7360894680023193,-0.2978370785713196,0.9188825836992478,-0.1566624788707452,-0.07427702426666707,0.35439346753478307,-0.34750757745534877,-0.02708557879482985,0.7314452973946274
1773063601225606400,0.9371113777160645,1.3735076189041138,2.1170432567596436,-0.20996467769145966,-0.005058650858700275,0.3171338140964508,-0.9483672976493835,-0.5791698694229126,-0.2372082769870758,-0.13103944063186646,0.921375480571952,-0.1490524990029607,-0.059997482609109906,0.35390808187271355,-0.32270577535050815,-0.005334012125998826,0.7325960816795103
1773063601235643392,0.947148323059082,0.400346964597702,1.552477240562439,-0.8745179176330566,0.01074937079101801,0.30942970514297485,-0.9508615732192993,-0.38367417454719543,-0.7412686944007874,0.4857126474380493,0.9234640145349158,-0.14840197909550507,-0.050458630139557266,0.350207017587164,-0.31459324823758056,0.011304393061415929,0.7267442706605325
1773063601245679360,0.9571843147277832,-0.6420943140983582,1.0999072790145874,-1.389024019241333,0.019731631502509117,0.3106188178062439,-0.9503297209739685,-0.020708197727799416,-0.9915575385093689,0.3891114592552185,0.9257208331571707,-0.15091306069840243,-0.04539135625344701,0.3438107957957176,-0.3158439708270558,0.020759947924806753,0.714524036296634
1773063601255716352,0.9672212600708008,-0.48333051800727844,0.9241966009140015,-0.8605415225028992,0.025363082066178322,0.3174792230129242,-0.9479259848594666,0.11196601390838623,-0.6149646043777466,0.13740962743759155,0.9274557682866086,-0.1555518796042171,-0.042902494501099925,0.3373260873954675,-0.3230700114299505,0.026750012718066884,0.702033632995179
1773063601265752576,0.977257490158081,1.2270618677139282,1.1028085947036743,-0.050763919949531555,0.033551059663295746,0.3140898048877716,-0.948800265789032,0.031176719814538956,0.0625886619091034,0.10604208707809448,0.9286667291244683,-0.15543510464931437,-0.03794468240172957,0.3346315703715836,-0.3194977819133846,0.035346832782815564,0.6974008340120201
1773063601275789568,0.9872944355010986,1.9571712017059326,1.381579041481018,0.27900198101997375,0.04577883332967758,0.2980648875236511,-0.9534472227096558,-0.09482058882713318,0.27374300360679626,-0.02215397357940674,0.9299219152435168,-0.14973295538041795,-0.029264691770317378,0.3346176906603562,-0.30266474278304906,0.04797717486018076,0.698135462233495
1773063601285825536,0.9973304271697998,2.0258705615997314,1.497472882270813,0.1206412985920906,0.06040965020656586,0.27895769476890564,-0.9584013819694519,-0.28015148639678955,0.23976480960845947,-0.15120244026184082,0.9311569789802234,-0.14296541315573857,-0.018978548169428105,0.33488401879669205,-0.2827085614610142,0.06294840156958954,0.6994394874489195
1773063601295861504,1.007366418838501,2.4277844429016113,1.5391303300857544,-0.38160237669944763,0.07486917823553085,0.25739985704421997,-0.9634001851081848,-0.45432472229003906,0.24655216932296753,0.21327811479568481,0.9330371392662563,-0.13503282615217124,-0.008126746652006555,0.3333792693289449,-0.2603304292441042,0.07755759317164923,0.6964939699450553
1773063601305898496,1.0174033641815186,1.7463204860687256,1.469817042350769,-0.5240285992622375,0.08852026611566544,0.23679034411907196,-0.9675197601318359,-0.39725133776664734,0.04442913830280304,0.29567527770996094,0.9353074943915848,-0.1274149734327026,0.0023539289890417018,0.3300905964051624,-0.23906090123289336,0.09123793199554424,0.6895165968129014
1773063601315934464,1.0274393558502197,0.14419420063495636,1.1595567464828491,-0.3498610854148865,0.10002682358026505,0.22776104509830475,-0.9685657024383545,-0.22229550778865814,-0.32856059074401855,0.3063952922821045,0.936600288987797,-0.12498962006941965,0.00973333752265834,0.3272044998545651,-0.2297776722903147,0.10290832713576104,0.6840830263528949
1773063601325971456,1.0374763011932373,-0.8670844435691833,1.0786712169647217,-0.34893515706062317,0.10990079492330551,0.232418492436409,-0.9663867950439453,-0.01734098792076111,-0.5381130576133728,0.2196369171142578,0.936811592068797,-0.12888717710111822,0.013953154255211868,0.32492697468977105,-0.2345635307642468,0.11323690814112107,0.6810759763382292
1773063601336007424,1.0475122928619385,-0.6452628374099731,1.207685947418213,-0.059063658118247986,0.12045583128929138,0.24068978428840637,-0.9630985260009766,0.045147791504859924,-0.49226146936416626,0.18805891275405884,0.9365695569773056,-0.13465483655073598,0.01785490104677738,0.3230894725762787,-0.24307646086821216,0.12442503902385837,0.6795922149288515
1773063601346044416,1.0575494766235352,0.3619286119937897,1.2898534536361694,0.6543239951133728,0.1330723762512207,0.241916224360466,-0.9611286520957947,-0.0329136848449707,-0.3181338906288147,0.3244099020957947,0.9358509329823218,-0.13740352383428694,0.02357847959784337,0.3236470630254151,-0.2443402465575047,0.13757961696684493,0.6828320427336062
1773063601356080640,1.0675854682922363,1.350836157798767,1.5173773765563965,0.9515554308891296,0.14866679906845093,0.2322017401456833,-0.9612390398979187,-0.05607648193836212,-0.19408529996871948,0.416210412979126,0.9348768778494189,-0.1354372733531912,0.03220579328875954,0.3265345583059801,-0.2343406848796438,0.1534458548749839,0.6901650587101379
1773063601366116608,1.0776214599609375,1.7158170938491821,1.6999685764312744,0.8362938165664673,0.16614432632923126,0.21569834649562836,-0.9622215628623962,-0.04390616714954376,-0.19712840020656586,0.31442493200302124,0.9341564034987943,-0.13057312390616527,0.042893920462823636,0.32933676524405314,-0.21740695845674807,0.1709815165719334,0.6965942719735907
1773063601376153344,1.087658405303955,2.1210169792175293,1.7183583974838257,0.8880819082260132,0.1846822053194046,0.19570671021938324,-0.9631154537200928,-0.0487569123506546,-0.24569450318813324,0.08039450645446777,0.9335361335556758,-0.12427714156411562,0.054749156054434124,0.33176487268056115,-0.19697804480785938,0.1894552609437211,0.7017038169593829
1773063601386189568,1.0976943969726562,1.543251633644104,1.6832127571105957,0.9495634436607361,0.20265601575374603,0.17517806589603424,-0.9634537696838379,0.03216148912906647,-0.38118696212768555,-0.09599447250366211,0.9326597047791689,-0.11773369827700471,0.06642202555259917,0.33447401317988024,-0.17608663168945388,0.2073209423665035,0.7070394775093906
1773063601396226304,1.1077313423156738,-0.047797203063964844,1.5819848775863647,0.8860347867012024,0.22031117975711823,0.16558837890625,-0.9612718224525452,0.08336924016475677,-0.6495819091796875,-0.17163223028182983,0.9309657269523607,-0.11651762394749482,0.07607720946844847,0.3375482221775016,-0.16635459306845932,0.2252962779213978,0.7145350818994644
1773063601406262272,1.117767333984375,-1.572511911392212,1.1488052606582642,0.7172908186912537,0.23514458537101746,0.17203761637210846,-0.9566138386726379,0.037804633378982544,-0.6963906288146973,-0.16110771894454956,0.928506486422211,-0.1226038683147978,0.08161714546913588,0.3408558287566381,-0.17289775146344585,0.2410306018567069,0.7246453955831333
1773063601416299264,1.1278042793273926,-1.8851380348205566,0.7023207545280457,0.22453515231609344,0.24469570815563202,0.18807609379291534,-0.9511842131614685,0.011697709560394287,-0.5649223923683167,-0.1305113434791565,0.9261218915291138,-0.13232890688097912,0.08304791728223307,0.3433517544996659,-0.189202919742613,0.25179399278884673,0.7340811471864046
1773063601426335232,1.1378402709960938,-1.398086428642273,0.3370535969734192,-0.7144599556922913,0.24928294122219086,0.2047422230243683,-0.946540355682373,0.10227955877780914,-0.2578885853290558,-0.37204790115356445,0.9251266067865654,-0.14118894721683237,0.08243483372955637,0.3426529670722773,-0.20620034361717082,0.25751476667609974,0.736227920053187
1773063601436372480,1.1478774547576904,-0.8477463722229004,0.33292463421821594,-0.9504261016845703,0.2503353953361511,0.2175285965204239,-0.943405270576477,0.16993743181228638,0.4185187816619873,-0.870162844657898,0.9257771851648318,-0.14723775148242665,0.08135359157437848,0.33858431362377606,-0.21928172315624406,0.25937550322482505,0.729949333920961
1773063601446408448,1.1579134464263916,0.21798759698867798,0.38813236355781555,-0.14702649414539337,0.2524300515651703,0.22257740795612335,-0.9416678547859192,0.029415041208267212,1.0986659526824951,-0.9653908610343933,0.9263142543949364,-0.14984435633156953,0.08193127765085897,0.33582122495825417,-0.22445739624851407,0.2619092714191251,0.7252811538598292
1773063601456444416,1.1679494380950928,1.8453428745269775,0.4110313057899475,0.43713176250457764,0.25660786032676697,0.21210946142673492,-0.942953884601593,-0.08401569724082947,1.3667021989822388,-0.703774631023407,0.9266072197946953,-0.1455282938777161,0.08570054709379857,0.33597029502380943,-0.2137330318271956,0.2656978428577386,0.7243471188233852
1773063601466481408,1.1779863834381104,2.120826244354248,0.48748353123664856,0.31430938839912415,0.2617669105529785,0.19125770032405853,-0.945990800857544,-0.14428949356079102,0.9970815181732178,-0.5403220653533936,0.9271864240838156,-0.13640892305915223,0.09163630535786271,0.33663134719998034,-0.192443338203484,0.2699570606825764,0.7227511863784412
1773063601476517376,1.1880223751068115,1.7950034141540527,0.527454137802124,0.14684395492076874,0.2672141194343567,0.17196528613567352,-0.9481690526008606,-0.3258994221687317,0.23355229198932648,-0.3528868556022644,0.9278842424607308,-0.12803560151147517,0.0975825685214467,0.3363262218875633,-0.17282432373262102,0.27469667703224143,0.7194193651220606
1773063601486554368,1.198059320449829,0.7887189984321594,0.2729654312133789,0.34072667360305786,0.2714729905128479,0.15886053442955017,-0.9492447972297668,-0.4633827805519104,-0.45732244849205017,0.05569016933441162,0.9281262076766208,-0.1224997206489675,0.10184009764352323,0.3364582097215249,-0.15953641775688898,0.2785530589477787,0.7179687801419941
1773063601496590336,1.2080953121185303,-0.15981455147266388,0.274448037147522,0.21739646792411804,0.27480265498161316,0.15559430420398712,-0.9488276243209839,-0.34938764572143555,-0.9847569465637207,0.34386247396469116,0.9275412078221217,-0.12168197292115511,0.10382519676530758,0.337758958433401,-0.15622905979216914,0.28190996230989385,0.7206518579861904
1773063601506627584,1.218132495880127,-0.43828079104423523,0.22706079483032227,-0.12131669372320175,0.27738723158836365,0.15523472428321838,-0.9481342434883118,-0.12934646010398865,-0.8844064474105835,0.5348652005195618,0.9276383540384524,-0.1218987360898715,0.10523110796988855,0.3369781002871717,-0.15586505739453008,0.28461826053581973,0.7192614875478106
1773063601516663552,1.2281684875488281,-0.4187411963939667,-0.11139822006225586,0.6021317839622498,0.2787978947162628,0.16065572202205658,-0.9468165040016174,-0.03931120038032532,-0.20397542417049408,0.45064646005630493,0.9266784275570566,-0.12496689056134344,0.10476177522610795,0.33863748127245485,-0.16135496248668388,0.2863648711136297,0.7240230686127794
1773063601526699520,1.2382044792175293,0.18015658855438232,0.019576705992221832,0.5257217884063721,0.2792133390903473,0.16024792194366455,-0.9467631578445435,0.16902881860733032,0.46293625235557556,0.14273184537887573,0.9256178868186525,-0.1251698155676547,0.10464667719665928,0.34148677073118583,-0.16094182244554528,0.28678387122438026,0.7301606772486811
1773063601536736512,1.2482414245605469,0.934987485408783,0.09544111043214798,0.6053699851036072,0.28058990836143494,0.15339045226573944,-0.9474917650222778,0.4301797151565552,0.6867584586143494,-0.38705718517303467,0.9250243320675784,-0.12236596614229832,0.10621053462231742,0.34362193091467685,-0.15399842484020124,0.2879114671481986,0.733717310863842
1773063601546772480,1.258277416229248,0.8604625463485718,-0.079707071185112,0.8811575174331665,0.2819422483444214,0.14177630841732025,-0.9488983154296875,0.4536687135696411,0.7416160106658936,-0.3968048095703125,0.924314843916992,-0.11737437159347053,0.10850848669562964,0.3465417537902336,-0.1422556165519175,0.2888179053956659,0.7381177435450069
1773063601556809472,1.2683143615722656,0.07642368227243423,-0.43184754252433777,0.9294451475143433,0.28079771995544434,0.13484276831150055,-0.9502473473548889,0.3781225383281708,0.40949925780296326,-0.3490232229232788,0.9231011309256638,-0.11432204150146986,0.10865903080677869,0.3507248533119412,-0.13525477782065973,0.2873228831437468,0.7457874835503921
1773063601566845440,1.2783503532409668,-0.4735073447227478,-0.6199750900268555,0.7220624089241028,0.2768409252166748,0.1344519853591919,-0.951462984085083,0.1799309253692627,-0.1697303056716919,-0.03454470634460449,0.9218032653892666,-0.11386893850784564,0.10631268377455055,0.3549790014944507,-0.1348603981334623,0.283145880981118,0.7544274893384486
1773063601576882432,1.2883872985839844,-0.9311870336532593,-0.6487870216369629,0.6541387438774109,0.271562784910202,0.1396319419145584,-0.9522376656532288,-0.005449503660202026,-0.550459623336792,0.26005321741104126,0.9205346015210281,-0.11575015553052981,0.10238685221329796,0.3587965476058579,-0.14008971206648177,0.2778091763388403,0.762929169105145
1773063601586918400,1.2984232902526855,-0.5306411385536194,-0.4895409047603607,0.8158529996871948,0.26710742712020874,0.1451091170310974,-0.9526788592338562,-0.02842944860458374,-0.3390025496482849,0.3662835955619812,0.9190424999309502,-0.11793857579890354,0.09874753051973409,0.3629053170650578,-0.1456232582600806,0.2733565026751306,0.7722211474590533
1773063601596954368,1.3084592819213867,-0.09783539921045303,-0.37660396099090576,0.9792821407318115,0.26442664861679077,0.1455438882112503,-0.9533601403236389,0.07328087091445923,0.186105877161026,0.2572694420814514,0.9174225739561612,-0.11809778811676198,0.09681350110663783,0.3674449648181501,-0.14606269053951074,0.27056158338785535,0.7818226476121996
1773063601606991616,1.3184964656829834,0.11607541888952255,-0.42485862970352173,0.9727712869644165,0.26212698221206665,0.14259757101535797,-0.9544398188591003,0.13595956563949585,0.3352771997451782,0.015230834484100342,0.9157808265520624,-0.11674099361703479,0.09566414955565102,0.3722437199906855,-0.14308531051082415,0.2680311390026487,0.7914784317207406
1773063601617027584,1.3285324573516846,-0.21090084314346313,-0.48549214005470276,0.812993049621582,0.25903624296188354,0.14044272899627686,-0.9556024670600891,0.08771976828575134,0.11044228076934814,-0.06453913450241089,0.9143036372335847,-0.11554908900366519,0.09405942893195851,0.37662985092856544,-0.14090855974259778,0.2647099042840043,0.8002882763612194
1773063601627064576,1.3385694026947021,-0.3617941439151764,-0.6729443073272705,0.7973355650901794,0.25431814789772034,0.14135485887527466,-0.9567345976829529,0.008346647024154663,-0.23063403367996216,-0.08867555856704712,0.912898508147439,-0.11543652257068147,0.09114336273212546,0.38076713026086445,-0.14182988877655545,0.2598107505818093,0.8088746893158604
1773063601637100544,1.3486053943634033,-0.2897878587245941,-0.5825979113578796,0.8407203555107117,0.24935483932495117,0.14237536489963531,-0.9578890204429626,-0.008464336395263672,-0.2555192708969116,-0.04729890823364258,0.9114112929248549,-0.11531807063987011,0.08807507390635823,0.3850636735129668,-0.14286081114609206,0.25466499312739255,0.8178087679200685
1773063601647137280,1.358642339706421,-0.3632042109966278,-0.5148361325263977,0.7422074675559998,0.24528715014457703,0.14349108934402466,-0.9587724208831787,0.05535675585269928,-0.03477221727371216,-0.03358292579650879,0.9098973657158418,-0.11539205287916621,0.08543109662953229,0.38919531425883086,-0.14398811010338144,0.2504624656551968,0.826528102022345
1773063601657173504,1.368678331375122,-0.341857373714447,-0.47783711552619934,0.5773274302482605,0.24153880774974823,0.1453786939382553,-0.9594394564628601,0.02237720787525177,0.06403292715549469,0.019208133220672607,0.9086085891349676,-0.1158112871024971,0.08287356265929746,0.3926195455546132,-0.14589572756314126,0.24662497716808426,0.8338702759893191
1773063601667209472,1.3787143230438232,-0.31601327657699585,-0.49635887145996094,0.5180081725120544,0.2376515418291092,0.14714890718460083,-0.96014004945755,-0.04258318245410919,-0.02933579683303833,-0.008152186870574951,0.9075591505031845,-0.11608014958809504,0.080345302450337,0.3954823820151802,-0.14768517356002397,0.24264089902797453,0.8399441527986896
1773063601677246208,1.3887512683868408,-0.3845635652542114,-0.504362940788269,0.5058881640434265,0.23367437720298767,0.14941245317459106,-0.9607664942741394,-0.030213698744773865,-0.07212670147418976,-0.0765412449836731,0.9065207449994237,-0.11653932442626388,0.07768753820879944,0.39825031845343106,-0.14997403273055365,0.23858419031497763,0.8458789715371701
1773063601687282432,1.398787260055542,-0.32970190048217773,-0.5439718961715698,0.4352448582649231,0.2292502075433731,0.15163713693618774,-0.9614834785461426,-0.00024631619453430176,-0.007716238498687744,-0.06494468450546265,0.9055849429440758,-0.11685474533916128,0.07485463660610221,0.40082129427959085,-0.15222434717687558,0.23406359325992682,0.8513145602425952
1773063601697319424,1.4088244438171387,-0.49854475259780884,-0.6404417157173157,0.4236585199832916,0.22420629858970642,0.15472197532653809,-0.9621812105178833,0.02591577172279358,-0.014173254370689392,-0.0659102201461792,0.9046868731019043,-0.11741635460133239,0.07157374309110535,0.4032770790476757,-0.15534602758916888,0.2289336122595939,0.856547481701825
1773063601707355392,1.4188604354858398,-0.6559606194496155,-0.6904113292694092,0.369173526763916,0.2184198796749115,0.15932555496692657,-0.9627606868743896,0.0565434992313385,-0.10158629715442657,-0.10788750648498535,0.9037769552187008,-0.11850706356312898,0.06764416706010017,0.4056694696288844,-0.16000744792892913,0.22309199815962852,0.8617718196221139
1773063601717392384,1.4288973808288574,-0.6138456463813782,-0.7144978046417236,0.30464911460876465,0.21210816502571106,0.16492439806461334,-0.9632290005683899,0.05435606837272644,-0.21384407579898834,-0.06892126798629761,0.9029366220936574,-0.11991416086973614,0.06329375946326642,0.40782363364925694,-0.1656813538646658,0.21674615446357223,0.8665400861307516
1773063601727428352,1.4389333724975586,-0.6255432367324829,-0.6120173335075378,0.32380226254463196,0.2061968743801117,0.17012010514736176,-0.9636088609695435,0.011393442749977112,-0.14880357682704926,-0.001509547233581543,0.9021451237704083,-0.12119172480786843,0.059229604490618856,0.4098030709467111,-0.17095154392493492,0.21080485287939185,0.8709012928500431
1773063601737464320,1.4489693641662598,-0.708624005317688,-0.5760585069656372,0.3256286680698395,0.20108076930046082,0.17596551775932312,-0.9636403322219849,-0.007996052503585815,0.07900886237621307,0.017671704292297363,0.9012107225865201,-0.12293582912628938,0.05537708582611928,0.41187310111491804,-0.1768864973234971,0.2057159849031988,0.8756619807890049
1773063601747501312,1.4590063095092773,-0.8137489557266235,-0.6775176525115967,0.24708256125450134,0.19566068053245544,0.18254852294921875,-0.963531494140625,0.0024594366550445557,0.14933013916015625,-0.012481689453125,0.9003306816000806,-0.12493012312666478,0.05125151692255267,0.4137275006022853,-0.1835779075913176,0.20034208581848287,0.8800012726036625
1773063601757537280,1.4690423011779785,-1.045050859451294,-0.7847764492034912,0.24805700778961182,0.18905527889728546,0.19122172892093658,-0.9631678462028503,0.015610843896865845,-0.07757428288459778,-0.07557415962219238,0.899406650704908,-0.12762084908669882,0.04614089601288332,0.4155136922944047,-0.19240669735623722,0.193820777834348,0.8843162529947243
1773063601767574528,1.4790794849395752,-1.027758240699768,-0.8262374401092529,0.15664537250995636,0.1815943717956543,0.20089930295944214,-0.9626333713531494,0.013885989785194397,-0.24423424899578094,-0.018705129623413086,0.898455505800597,-0.13057387064289225,0.04042016790472659,0.41724626627678074,-0.20227584879214727,0.18645222513313497,0.8885113652906256
1773063601777610496,1.4891154766082764,-0.9501776695251465,-0.7866732478141785,0.13504233956336975,0.17410889267921448,0.21038323640823364,-0.9619901180267334,0.0061889588832855225,-0.23282891511917114,0.0404202938079834,0.8976761977109696,-0.13339867981235015,0.03478122156117637,0.4185361800411513,-0.2119669570266925,0.17904999779857095,0.8916583247790056
1773063601787647488,1.499152421951294,-0.8751762509346008,-0.6472509503364563,0.2657861113548279,0.16764208674430847,0.21868647634983063,-0.9612868428230286,-0.015099972486495972,-0.057553648948669434,0.026182472705841064,0.8967708999300489,-0.13589566911567308,0.029815310149248254,0.42005413540465203,-0.22046815900269615,0.17265703318878473,0.8952685689553511
1773063601797683456,1.5091884136199951,-0.845733642578125,-0.6255936026573181,0.5055129528045654,0.16236978769302368,0.22641238570213318,-0.96040278673172,-0.014817297458648682,0.16273252665996552,0.01217585802078247,0.8954597884709503,-0.13839757948942538,0.025391431161671935,0.4223187439050018,-0.2283928274582767,0.1674805715338835,0.9006312142467232
1773063601807718912,1.519223928451538,-0.9094250202178955,-0.6399059295654297,0.6280956268310547,0.1575680822134018,0.23374943435192108,-0.9594443440437317,0.00016202032566070557,0.18827815353870392,-0.08373802900314331,0.893680174290257,-0.14082762220228423,0.02110445562997859,0.4255089302710754,-0.23593217649987866,0.1627754529201678,0.9080752254402703
1773063601817756160,1.5292611122131348,-0.8669159412384033,-0.643825352191925,0.47881823778152466,0.1527353674173355,0.2415137141942978,-0.9583021402359009,0.0029500722885131836,-0.0060248225927352905,-0.15990769863128662,0.8918908716083519,-0.1434218782119638,0.016705846084394394,0.42858097819839525,-0.24392543797142427,0.15805186298814256,0.9153148074447853
1773063601827792128,1.539297103881836,-0.8633427619934082,-0.5066555142402649,0.3317073583602905,0.14816100895404816,0.2491651177406311,-0.9570606350898743,-0.04772767424583435,-0.1319471150636673,-0.12915152311325073,0.890478151770553,-0.1459853584986504,0.012568130797898485,0.4307888313446202,-0.25181809444783715,0.1535891799069052,0.9206418850934143
1773063601837829120,1.5493340492248535,-0.7426741123199463,-0.5065889358520508,0.4967394471168518,0.14437700808048248,0.25614601373672485,-0.9557952284812927,-0.08398272097110748,-0.043362200260162354,-0.017990171909332275,0.889018331361635,-0.14840148367593117,0.008910078775190244,0.4330636122510325,-0.2590330871539544,0.14992092277197974,0.9261529690000737
1773063601847865088,1.5593700408935547,-0.726921021938324,-0.6717919707298279,0.5195520520210266,0.13999547064304352,0.2624885141849518,-0.9547256231307983,-0.05891028046607971,0.05683216452598572,-0.036851465702056885,0.8873604468330593,-0.15037258726831404,0.005025806715687432,0.43583761817867545,-0.26560023289780893,0.1455966307231563,0.9325879501562412
1773063601857902080,1.5694069862365723,-0.5695140957832336,-0.8505803942680359,0.5347126722335815,0.13404414057731628,0.2679350972175598,-0.9540665149688721,-0.032344311475753784,-0.09728080034255981,-0.10693812370300293,0.8857426548186685,-0.15154659285661365,0.0006011195446608387,0.4387405351082044,-0.2712491180927417,0.1395840270555578,0.9388978644498357
1773063601867938048,1.5794429779052734,-0.5350061058998108,-0.9156515598297119,0.6590311527252197,0.12711304426193237,0.27243202924728394,-0.9537416100502014,-0.06941956281661987,-0.21586769819259644,-0.035470426082611084,0.8840113505065712,-0.15202694322088556,-0.0041229092028765985,0.4420349222603682,-0.2759197644750189,0.13249743636307573,0.9457708865487213
1773063601877975040,1.589479923248291,-0.5871257781982422,-1.1317138671875,0.9389868974685669,0.11941114813089371,0.2766589820384979,-0.9535202383995056,-0.0814625471830368,-0.044328659772872925,-0.10096889734268188,0.8817960002411093,-0.15216202931936348,-0.009306519305296745,0.4463138816647079,-0.2803156533880383,0.12458332154794585,0.9546970749279933
1773063601888011008,1.5995159149169922,-0.7967488765716553,-1.1638814210891724,1.1340975761413574,0.11183618754148483,0.2818653881549835,-0.952913761138916,-0.08714747428894043,0.13938400149345398,-0.22140264511108398,0.8788695715203036,-0.15271581735224998,-0.014866519137957224,0.45171369448251414,-0.2857377764603273,0.11682790773522228,0.9663484895713735
1773063601898046976,1.6095519065856934,-1.3476639986038208,-1.2615001201629639,1.0478931665420532,0.1030317097902298,0.29091209173202515,-0.9511858820915222,-0.1028486117720604,0.060879260301589966,-0.21269351243972778,0.8754025493851001,-0.154673803815701,-0.021978657526541923,0.45745321723043586,-0.2951800311055319,0.10789853634312632,0.9791264458546316
1773063601908084224,1.61958909034729,-1.807719111442566,-0.8258607983589172,1.0298155546188354,0.09592174738645554,0.30531033873558044,-0.947409451007843,-0.11938976496458054,-0.11242398619651794,-0.025384128093719482,0.8715844252747701,-0.15943332867338728,-0.02960239833416488,0.4626502142413008,-0.3102642964268051,0.10090251220141043,0.9917825207951493
1773063601918120192,1.6296250820159912,-1.9675180912017822,-0.4671895205974579,0.6849817037582397,0.09312022477388382,0.32225295901298523,-0.9420624375343323,-0.13129770755767822,-0.19978591799736023,0.2742615342140198,0.867904355043472,-0.166390336339924,-0.03581948391422973,0.4666617015579467,-0.3281084440393038,0.09852712421831747,1.0030060439341386
1773063601928157184,1.6396620273590088,-2.166170835494995,-0.9354664087295532,0.3462331295013428,0.08833134919404984,0.3413794934749603,-0.93576580286026,0.036088816821575165,-0.20830759406089783,0.19565349817276,0.8648426515197345,-0.17391774748165817,-0.04324026343816549,0.46896707230998336,-0.3483841672225398,0.09411584089020188,1.010332251514375
1773063601938193152,1.64969801902771,-2.006408929824829,-1.282060980796814,0.3333074748516083,0.07886366546154022,0.36077356338500977,-0.9293131828308105,0.26218554377555847,-0.11748740077018738,0.009437084197998047,0.8619303149368391,-0.18042555646217237,-0.052820799577497704,0.47088495763155114,-0.3690971718712878,0.08465947320583415,1.0158310347395054
1773063601948230144,1.6597349643707275,-1.8709194660186768,-0.9942756295204163,0.4326947033405304,0.0694606602191925,0.3785543739795685,-0.9229690432548523,0.2239048182964325,0.005539834499359131,-0.0987442135810852,0.8588877651712629,-0.18616812548453224,-0.06210410126474487,0.4730712326207378,-0.38823393976107917,0.0751162501559254,1.0216810380371102
1773063601958266112,1.6697709560394287,-1.6695277690887451,-0.7786951065063477,0.4510265588760376,0.063341423869133,0.39475858211517334,-0.916598916053772,-0.1067068949341774,0.01957857608795166,-0.16041219234466553,0.8558490508406715,-0.1919828144532647,-0.06959276762839023,0.4752071976182064,-0.4058050839803389,0.06899515396042656,1.0279246785870022
1773063601968302080,1.6798069477081299,-1.1748183965682983,-1.0032992362976074,0.521539032459259,0.057182677090168,0.40726420283317566,-0.9115185141563416,-0.3038715124130249,0.021614551544189453,-0.20939207077026367,0.8530527780138615,-0.19603569251248823,-0.07622829739757314,0.477556398017126,-0.4194565847678067,0.06265132195842972,1.0340432031291362
1773063601978339072,1.6898438930511475,-1.0335768461227417,-0.75737065076828,0.618150532245636,0.051487404853105545,0.41587164998054504,-0.9079646468162537,-0.17540402710437775,-0.017754584550857544,-0.26706892251968384,0.8502388568149551,-0.19829530972238818,-0.08183302942789508,0.4807038722949342,-0.4289010721694086,0.056645731736147356,1.0414822099440717
1773063601988375040,1.6998798847198486,-1.2569420337677002,-0.7118581533432007,0.6763465404510498,0.04735356941819191,0.427106112241745,-0.9029607176780701,0.0018865428864955902,-0.024914950132369995,-0.05031687021255493,0.8470870239696436,-0.20215808241360536,-0.08747433437239699,0.4836569315997441,-0.4412898596926667,0.05239456049336131,1.0493475451529277
1773063601998412032,1.7099170684814453,-1.3589890003204346,-0.9088660478591919,0.5406087040901184,0.0430118627846241,0.4388003647327423,-0.8975545763969421,0.020708836615085602,0.03985258936882019,0.04889124631881714,0.8438814074171428,-0.20617003862033684,-0.09336285055406632,0.4864581947783351,-0.4542632181867575,0.04788453359348228,1.0569206948207577
1773063602008448000,1.7199530601501465,-1.3924375772476196,-1.0486289262771606,0.36561667919158936,0.03629281371831894,0.4506961703300476,-0.8919393420219421,0.07415029406547546,-0.1710788607597351,-0.11379796266555786,0.8408761511527817,-0.20968878983654984,-0.10030418139617599,0.48877100537829443,-0.467545037630823,0.040667342478373794,1.0627434759345724
1773063602018484992,1.729990005493164,-1.0814964771270752,-1.0255478620529175,0.36471253633499146,0.028447948396205902,0.4618843197822571,-0.8864838480949402,0.0795384868979454,-0.2599495053291321,-0.06680899858474731,0.8381136023469883,-0.2126026774038394,-0.10750897152699525,0.4907215045189538,-0.4801185439395369,0.032079760284020965,1.0672428360299606
1773063602028520960,1.7400259971618652,-0.8531675934791565,-0.812372624874115,0.40168818831443787,0.022027883678674698,0.4703502357006073,-0.8822048902511597,-0.022211000323295593,-0.1033610999584198,-0.06164276599884033,0.8356093279254803,-0.21458052642440825,-0.11337000463350086,0.49280788421796473,-0.4896876212488561,0.024963937625037822,1.0719480498528193
1773063602038557952,1.7500629425048828,-0.5793104767799377,-0.7167643308639526,0.46867096424102783,0.017415018752217293,0.4765510559082031,-0.8789742588996887,-0.03557297959923744,0.07598492503166199,-0.2806936502456665,0.8333379257699247,-0.21594159957276593,-0.11782225554014715,0.4950100565298363,-0.4967274595612708,0.019810295760478033,1.0770290641134739
1773063602048593920,1.760098934173584,-0.6976696252822876,-0.7283552289009094,0.48018160462379456,0.013364806771278381,0.48185548186302185,-0.8761487603187561,0.01771734654903412,0.11808958649635315,-0.4209550619125366,0.831028215419211,-0.2169785046000397,-0.12184391073201913,0.4974600193174365,-0.5027709898946143,0.015252855040442824,1.0827077328243622
1773063602058629888,1.7701349258422852,-1.0418150424957275,-0.7363705039024353,0.35791265964508057,0.009086690843105316,0.48949339985847473,-0.8719596266746521,0.061866678297519684,-0.08626464009284973,-0.14757156372070312,0.8285559535907892,-0.21908124562242517,-0.1265842799611655,0.49947453969112293,-0.51150868882918,0.010420622181661541,1.0877135293824216
1773063602068667136,1.7801721096038818,-0.9610210061073303,-0.7470847964286804,0.19495218992233276,0.0039021670818328857,0.4985068738460541,-0.8668769598007202,0.00432232953608036,-0.23918375372886658,0.09954297542572021,0.8262160707837093,-0.22166893557498127,-0.132001525047845,0.5008047907206683,-0.5218755095867652,0.004501377791327048,1.0910497594934658
1773063602078703104,1.790208101272583,-0.6240941286087036,-0.5782177448272705,-0.028044402599334717,-0.0014710592804476619,0.5054696202278137,-0.8628431558609009,-0.04502246528863907,-0.21315699815750122,0.08362257480621338,0.8246681706004463,-0.22337213406198037,-0.1366869595337808,0.5013421019786514,-0.5299261639159415,-0.001704896085184212,1.0920000936543577
1773063602088740096,1.8002450466156006,-0.24049675464630127,-0.3895303010940552,-0.16524340212345123,-0.006164426915347576,0.5091389417648315,-0.8606622219085693,-0.06605540961027145,-0.13000386953353882,-0.2293187975883484,0.8241175803885317,-0.22384558796305815,-0.1398643231827024,0.5011599075659564,-0.5341840704750832,-0.007162300275387806,1.09077311107681
1773063602098776064,1.8102810382843018,0.1805434226989746,-0.4082070589065552,-0.14940957725048065,-0.010381176136434078,0.5093847513198853,-0.8604762554168701,-0.09043364971876144,-0.048706650733947754,-0.4461185336112976,0.8242258646178525,-0.22287209527019614,-0.14173880335405215,0.5008890839176535,-0.5344696561600492,-0.012063868383490273,1.0888336098505014
1773063602108813056,1.8203179836273193,0.4623890221118927,-0.3372592329978943,-0.20777945220470428,-0.014553198590874672,0.5064613819122314,-0.8621398210525513,-0.06094729155302048,-0.09744954109191895,-0.5274628400802612,0.8247422701701811,-0.2203974164120635,-0.14267115810174713,0.500869462555289,-0.5310759476694936,-0.01687871957374311,1.0869555720409807
1773063602118849024,1.8303539752960205,0.13785701990127563,-0.31315016746520996,-0.3826804459095001,-0.018807336688041687,0.5032755136489868,-0.8639213442802429,-0.006918974220752716,-0.2517496347427368,-0.49705588817596436,0.825660098695312,-0.2178880674354581,-0.14340199063809672,0.5002459953609975,-0.527385155997002,-0.021766295753899816,1.083578199991068
1773063602128886016,1.840390920639038,-1.0926622152328491,-0.34400808811187744,-0.4364839494228363,-0.023833703249692917,0.5071825385093689,-0.8615090250968933,0.015578700229525566,-0.2420305609703064,-0.4636710286140442,0.8259498472038077,-0.2186531526085838,-0.14641133740397835,0.49855933356103993,-0.5319125224998368,-0.02765801023023985,1.0786184101298155
1773063602138921984,1.8504269123077393,-0.811143159866333,0.24498645961284637,-0.5615281462669373,-0.028514109551906586,0.5115945935249329,-0.8587536811828613,0.014094563201069832,-0.04096776247024536,-0.05698728561401367,0.8263404284644869,-0.21982111173705163,-0.14933797082893638,0.49652622862213225,-0.5370396006525012,-0.03319186675066065,1.0729892803288001
1773063602148957952,1.8604629039764404,-2.120607852935791,-0.5411570072174072,-0.24231009185314178,-0.031440552324056625,0.5260693430900574,-0.8498603105545044,-0.015083495527505875,0.08263427019119263,0.1479560136795044,0.8252726538846219,-0.22630072846231514,-0.1544597673131406,0.49381699255109945,-0.5539719961968964,-0.036978102648777884,1.0679239746639602
1773063602158995200,1.870500087738037,-0.8646506667137146,-0.43693873286247253,-0.44408929347991943,-0.03775149583816528,0.5369008183479309,-0.8428002595901489,-0.05676143243908882,0.10228985548019409,-0.0217016339302063,0.8241801013891281,-0.23004492071433627,-0.1602472828126226,0.49206421912667997,-0.5667592157802721,-0.044763009401920704,1.0634348833997627
1773063602169031168,1.8805360794067383,-1.0133973360061646,-0.28428733348846436,-0.6392865180969238,-0.04376613721251488,0.5457310080528259,-0.8368167281150818,0.03435145691037178,-0.013641774654388428,-0.3257198929786682,0.8240881097702907,-0.2331867181424391,-0.1649714632153079,0.4891700239497059,-0.5772612147958484,-0.052253134139400095,1.0558669208048528
1773063602179068160,1.8905730247497559,-0.18506239354610443,-0.518851101398468,-0.36455056071281433,-0.04967176541686058,0.5497750043869019,-0.8338346481323242,0.00047742947936058044,0.025435566902160645,-0.4073915481567383,0.8243932919320983,-0.23395473965528418,-0.16836823144356314,0.48712737316982235,-0.5820948353612467,-0.05949996896378046,1.0495628296439754
1773063602189104128,1.900609016418457,-0.7300149202346802,-0.7585216164588928,-0.3186494708061218,-0.05713580176234245,0.5534335970878601,-0.8309313058853149,0.09952470660209656,0.4059475064277649,-0.41024911403656006,0.8241308270365781,-0.23394052392620243,-0.17264468169990277,0.4860804005926242,-0.5864810997861479,-0.06865309904262755,1.0450492107034088
1773063602199141120,1.9106459617614746,-0.6424014568328857,-0.8863120675086975,-0.24164097011089325,-0.0653286874294281,0.5591750741004944,-0.8264716863632202,0.2430935800075531,0.3383163809776306,-0.4071708917617798,0.823216550899506,-0.2346687560447746,-0.17803017338314317,0.4853353415300307,-0.5933904443265676,-0.07888127101585003,1.0412881656751058
1773063602209177088,1.9206819534301758,-2.317906379699707,-1.2029739618301392,-0.6966060996055603,-0.07643472403287888,0.5688664317131042,-0.8188703656196594,0.2605472505092621,0.03263503313064575,-0.2690049409866333,0.8219445789402712,-0.23674855480675544,-0.18578193073626315,0.48357248973897204,-0.6051268960905611,-0.09307198804276168,1.0345138840511274
1773063602219214080,1.9307188987731934,-3.5071165561676025,-1.5022804737091064,-0.7536512613296509,-0.09234330803155899,0.5944742560386658,-0.7987947463989258,0.3340730667114258,-0.28539228439331055,0.19007593393325806,0.8185366852029986,-0.2459263282611368,-0.20030692145007276,0.4789520064423401,-0.636611662080392,-0.11509241194033376,1.0208692710076763
1773063602229250048,1.9407548904418945,-1.4549638032913208,-1.288587212562561,-0.7353203892707825,-0.10787605494260788,0.6132036447525024,-0.7825241684913635,0.27970531582832336,0.4337933659553528,0.8636398911476135,0.8157279301141535,-0.25185673284844645,-0.2128523315212384,0.4752367094928497,-0.6601098463325377,-0.13699304850700644,1.0080456458243252
1773063602239286272,1.9507911205291748,-0.7169150114059448,-1.0144238471984863,-0.9793986082077026,-0.12199591100215912,0.6200904846191406,-0.7749869227409363,0.17560003697872162,0.8226737380027771,0.32257914543151855,0.8152469770047356,-0.25235920625664005,-0.22095556442868775,0.4720866098531587,-0.668858036663712,-0.15613546032785625,0.9954267577844106
1773063602249323008,1.9608280658721924,-0.9184709191322327,-1.0631837844848633,-1.181816816329956,-0.13683469593524933,0.6246713399887085,-0.7688055038452148,0.03147275745868683,0.7358022332191467,-0.07837772369384766,0.8156596329033982,-0.2518474590656294,-0.22840773653949734,0.4680834232032523,-0.6747106108317681,-0.17613903937237269,0.980047091133347
1773063602259359232,1.9708640575408936,-1.543958306312561,-1.1537704467773438,-1.3505972623825073,-0.1532185971736908,0.6321707367897034,-0.7595289349555969,0.005391448736190796,0.6547250151634216,-0.08832567930221558,0.8158015705091836,-0.25279963053947796,-0.23733492804995368,0.4628523599108554,-0.6843515858864951,-0.19905698178714049,0.9610393000095832
1773063602269395968,1.9809010028839111,-1.9126611948013306,-1.3714425563812256,-1.4430805444717407,-0.17172257602214813,0.643048882484436,-0.7463240623474121,0.19448867440223694,0.19879376888275146,0.07855367660522461,0.815270418132786,-0.2553064108671689,-0.24830749384274994,0.4566139367447642,-0.6984727788681028,-0.22615498088120697,0.9384304286611079
1773063602279431936,1.9909369945526123,-2.0277581214904785,-1.5417578220367432,-1.5149108171463013,-0.19229981303215027,0.6550753116607666,-0.7306826114654541,0.38832950592041016,-0.0793917179107666,0.0894014835357666,0.8141994717361148,-0.258189510810515,-0.2607621009654494,0.44991160937052393,-0.7142823028633926,-0.2573428073230305,0.9131619241376873
1773063602289468928,2.00097393989563,-1.43893563747406,-1.5272235870361328,-1.484218716621399,-0.213443323969841,0.665183424949646,-0.715522825717926,0.4862704873085022,0.008461594581604004,0.2601090669631958,0.8131614276607795,-0.2601413767821473,-0.2730660010782394,0.4433169242192321,-0.7277394466868748,-0.28990010757461837,0.8871982769674973
1773063602299504896,2.011009931564331,-0.4407384991645813,-1.5175096988677979,-1.379913330078125,-0.23380519449710846,0.6681531667709351,-0.7063331007957458,0.45371487736701965,0.34181082248687744,0.47165292501449585,0.8130583438732969,-0.258315263578457,-0.2830312366937479,0.43829508270017487,-0.7317237787451969,-0.3196605007208854,0.8654631577127057
1773063602309540864,2.0210459232330322,-0.8476049900054932,-1.3922162055969238,-1.3599650859832764,-0.2531987726688385,0.6689806580543518,-0.6988242268562317,0.337289959192276,0.3735303282737732,0.4008200764656067,0.8131897575491587,-0.2555794388615166,-0.2920052084309539,0.43374479423036066,-0.732836507128842,-0.34760889229992037,0.8454475644005308
1773063602319578112,2.031083106994629,-1.9785386323928833,-1.3973581790924072,-1.3547186851501465,-0.27195873856544495,0.6749602556228638,-0.6859060525894165,0.19526806473731995,0.16184699535369873,0.536232590675354,0.8122955315983641,-0.2561746152469828,-0.30235996412693394,0.4279357474773363,-0.7409108488462608,-0.37748172059850554,0.8216458490418325
1773063602329614080,2.04111909866333,-2.345705032348633,-1.378708004951477,-1.2771395444869995,-0.2903903126716614,0.6865576505661011,-0.666567325592041,0.11413607001304626,0.01069265604019165,0.4370294213294983,0.8100388515840712,-0.2603708425195085,-0.31452082468981074,0.42085713576680456,-0.7567439063876731,-0.41085692192496115,0.7930468099993282
1773063602339651072,2.0511560440063477,-2.429875373840332,-1.4187250137329102,-1.1751261949539185,-0.30808886885643005,0.6985722184181213,-0.6458158493041992,0.16116195917129517,-0.20752912759780884,0.11131572723388672,0.8072157921056492,-0.26514602211380645,-0.3267868784758323,0.41389683991399123,-0.7734001658022621,-0.44512265945796053,0.7637957513956589
1773063602349687040,2.061192035675049,-1.672986388206482,-1.2999681234359741,-1.084145426750183,-0.3247775137424469,0.7085415720939636,-0.6264889240264893,0.2545871138572693,-0.3556668758392334,-0.019629180431365967,0.8044019501636106,-0.26901833460405594,-0.33820803289539836,0.40765413839735126,-0.787429303392593,-0.47826615394982896,0.7362512583287346
1773063602359724032,2.0712289810180664,-1.2271939516067505,-1.1137990951538086,-1.0410653352737427,-0.3399673104286194,0.7136268615722656,-0.6125022172927856,0.2784439027309418,-0.2680854797363281,0.35562050342559814,0.8026085592235777,-0.2703245935862673,-0.347380941753831,0.40257995665060625,-0.7946620088442814,-0.5067095632570232,0.7133752319218378
1773063602369760000,2.0812649726867676,-0.32028958201408386,-0.8696944117546082,-0.8247408270835876,-0.3526749014854431,0.7154788970947266,-0.6030840277671814,0.222135990858078,-0.08603858947753906,0.7541002631187439,0.8016174440250396,-0.27006284322928437,-0.3542937382125843,0.3986871504952879,-0.7973093378519727,-0.5291573978646321,0.6958030297695215
1773063602379796992,2.091301918029785,-0.44029054045677185,-0.6991165280342102,-0.8099661469459534,-0.363180935382843,0.7139559984207153,-0.598637044429779,0.09479415416717529,0.1708858609199524,0.5375867486000061,0.8014977127957973,-0.267957575484196,-0.3589988892082186,0.39613105694889267,-0.7951319290195148,-0.5453165538093153,0.6842841102112557
1773063602389832960,2.1013379096984863,-1.6132251024246216,-0.4000411927700043,-0.8178460001945496,-0.3724099099636078,0.7171975374221802,-0.589015007019043,0.0186958909034729,-0.0817452073097229,0.04592418670654297,0.8007041605723098,-0.2696091979155054,-0.36442198502509354,0.3916381374658465,-0.7997724086945849,-0.563802102858298,0.6662032573581592
1773063602399868928,2.1113739013671875,-1.8565698862075806,-0.23631513118743896,-0.7125419974327087,-0.37967392802238464,0.724720299243927,-0.575002908706665,-0.003077566623687744,-0.3110087513923645,0.21979355812072754,0.7992087364482795,-0.2747685528639782,-0.3701361829920762,0.38570319828605715,-0.810628346174485,-0.5835813568831659,0.6429301570780758
1773063602409906176,2.121411085128784,-2.030613660812378,-0.14738501608371735,-0.6521923542022705,-0.3859023451805115,0.7334302663803101,-0.5596066117286682,0.03418722748756409,-0.6144880056381226,0.2448483109474182,0.7973644134446543,-0.2810738777833703,-0.3757581377508411,0.37949096707502605,-0.8233545452249059,-0.6037090747118504,0.6181690134325427
1773063602419942144,2.1314470767974854,-1.2500061988830566,0.06345238536596298,-0.48592081665992737,-0.39021405577659607,0.7404987812042236,-0.54716956615448,0.10020557045936584,-0.6170094013214111,0.08157819509506226,0.7960263739844073,-0.2866460486966917,-0.3798016145770704,0.3740678351277951,-0.8338122013097877,-0.6194971808167429,0.5969853690571052
1773063602429979136,2.141484022140503,-0.853668212890625,0.1090446338057518,-0.3575391173362732,-0.39291122555732727,0.7442896366119385,-0.5400497317314148,0.10473376512527466,-0.19756722450256348,0.12969505786895752,0.7955211586711556,-0.2899758483705744,-0.3819543860533729,0.37036594426598124,-0.8394705680474982,-0.6289752748215814,0.5831379883448558
1773063602440015104,2.151520013809204,-0.818548321723938,0.25572648644447327,-0.2542702555656433,-0.3941851556301117,0.7476514577865601,-0.5344486832618713,0.10304749011993408,-0.014787077903747559,0.14931684732437134,0.7952020597428144,-0.29311277259545937,-0.3832239035659906,0.3672574798677463,-0.8445185184281043,-0.6354884449650101,0.5719099300950347
1773063602450052096,2.1615569591522217,-0.9792852997779846,0.3618102967739105,-0.2060343325138092,-0.394223153591156,0.75136798620224,-0.5291827321052551,0.022198587656021118,-0.0025123953819274902,0.34496331214904785,0.7949303832553564,-0.29668785518080293,-0.38390749579611627,0.3642486590332648,-0.8501326752025022,-0.64027160201764,0.5613997887437266
1773063602460088064,2.171592950820923,-1.531962275505066,0.4904465675354004,-0.1963774412870407,-0.3935425579547882,0.7572648525238037,-0.5212239027023315,-0.08227229118347168,-0.3296220302581787,0.17361342906951904,0.7942135443960282,-0.3021417169609846,-0.3848356091206489,0.3603288512028723,-0.8591149612882483,-0.646716074745582,0.5471918677539409
1773063602470125056,2.1816298961639404,-1.5076935291290283,0.4998491108417511,-0.02987581491470337,-0.3918270170688629,0.764828622341156,-0.5113793015480042,-0.08320960402488708,-0.5252046585083008,0.12009823322296143,0.7930321021395521,-0.30899828160698617,-0.38578543619341005,0.3560755532010214,-0.8707752962393993,-0.6537988117173807,0.5311930864887494
1773063602480161024,2.1916658878326416,-1.0011224746704102,0.42277562618255615,0.10831401497125626,-0.38912203907966614,0.7715082764625549,-0.5033478140830994,-0.005729615688323975,-0.37870126962661743,0.06355893611907959,0.791843720001125,-0.3149817887383815,-0.38615096710691654,0.3530686440005224,-0.8812084784323924,-0.6581018707390133,0.5195737077978505
1773063602490197248,2.201702117919922,-0.5268754959106445,0.35997360944747925,0.2291005402803421,-0.38589581847190857,0.775786280632019,-0.4992395341396332,0.09805402159690857,-0.16659438610076904,-0.002683103084564209,0.7911541531725881,-0.318858895324827,-0.38562836972625986,0.35170282400965863,-0.8879601917185119,-0.6580388672125335,0.5146227454689649
1773063602500234240,2.2117390632629395,-0.6161462664604187,0.4207349717617035,0.36919665336608887,-0.3816070556640625,0.7798023819923401,-0.4962702691555023,0.11488351225852966,-0.06471455097198486,0.14037427306175232,0.7904464214241292,-0.322387031195977,-0.3846185967766341,0.3511830426725121,-0.8943501266154825,-0.6555192619580857,0.5128926935849292
1773063602510270208,2.2217750549316406,-0.47476842999458313,0.5364354252815247,0.45726829767227173,-0.37595850229263306,0.7841218709945679,-0.49376916885375977,0.038388341665267944,-0.18655723333358765,0.15256741642951965,0.789738690184436,-0.3262163831495129,-0.3830121162431721,0.3509947627562018,-0.9012799412980386,-0.6507606544775855,0.5128316930034188
1773063602520306944,2.231812000274658,-0.8367618322372437,0.6004959344863892,0.4846687614917755,-0.3693978190422058,0.7888731956481934,-0.4911459684371948,-0.03483802080154419,-0.31833797693252563,-0.09140405058860779,0.7890118550668198,-0.33052426539267116,-0.38102588821885436,0.3507610443244882,-0.9089733220811499,-0.6448527699167659,0.5130236757769149
1773063602530343168,2.2418479919433594,-1.10712468624115,0.6072303652763367,0.627526581287384,-0.362097829580307,0.795953094959259,-0.4851224720478058,-0.026802897453308105,-0.34725314378738403,0.014205783605575562,0.7874778874015649,-0.3367347949495391,-0.37953713959119056,0.3499139196060877,-0.9205803374801487,-0.6411963156294324,0.5099433769115834
1773063602540379904,2.251884937286377,-0.599271297454834,0.5580675601959229,0.7799962759017944,-0.3535439670085907,0.8027609586715698,-0.4801889955997467,0.036298513412475586,-0.1852073073387146,0.1460215151309967,0.785839947022446,-0.3425751705709593,-0.37755497464842563,0.35007147538647104,-0.9319110412745679,-0.6346493972350646,0.5108030546408614
1773063602550415872,2.261920928955078,-0.14999966323375702,0.5905764698982239,0.8122909069061279,-0.3443453013896942,0.8071874380111694,-0.4794524312019348,0.1330874264240265,-0.1864141821861267,-0.0742737352848053,0.78492216416501,-0.34641681454579126,-0.37452526343975984,0.3516010948430273,-0.9393718349820339,-0.6228401036636637,0.5183792744177619
1773063602560453120,2.271958112716675,0.29537805914878845,0.5761114954948425,0.8608434796333313,-0.33480390906333923,0.8097323179244995,-0.48191291093826294,0.17347273230552673,-0.11322963237762451,-0.15593498945236206,0.7846523624192571,-0.34877625481335794,-0.3706732694666909,0.35394525481706,-0.9436957921290303,-0.6071866719376302,0.5304684860323468
1773063602570489088,2.281994104385376,0.401446133852005,0.5448093414306641,0.9574198126792908,-0.32466191053390503,0.8108513951301575,-0.4869442880153656,0.11218327283859253,0.05773991346359253,0.0002956986427307129,0.7847486692971064,-0.3499274510748958,-0.36616750521577085,0.35726979146223126,-0.9456053754680728,-0.5880486577018925,0.5471285172034294
1773063602580525056,2.292030096054077,-0.10292517393827438,0.5605230331420898,0.9980344176292419,-0.3139946758747101,0.8131431937217712,-0.4901076555252075,0.041350603103637695,-0.15127795934677124,0.01450645923614502,0.7842948395869532,-0.3520280716605018,-0.3619701797516248,0.36046560353307705,-0.9495320181453718,-0.5697845923438849,0.562823288352746
1773063602590562048,2.3020670413970947,-0.8865991830825806,0.653267502784729,1.0348570346832275,-0.3026905059814453,0.8188294172286987,-0.4877467453479767,-0.0032787024974823,-0.36637580394744873,-0.0954136848449707,0.7826203308930119,-0.35699538027192246,-0.35872124688917123,0.36246209154115516,-0.9593687874666778,-0.5554214275483691,0.5729991012378057
1773063602600598016,2.312103033065796,-0.8848955631256104,0.6389620900154114,1.1757416725158691,-0.2904563248157501,0.8266089558601379,-0.48202985525131226,0.0023398399353027344,-0.36815863847732544,-0.11846452951431274,0.7801152168459198,-0.36379049855995205,-0.3558673191671962,0.36391646696264585,-0.9730551971571105,-0.5423064396546541,0.5809692671082056
1773063602610635008,2.3221399784088135,-0.2592782974243164,0.5337597131729126,1.2406947612762451,-0.2775210738182068,0.8329580426216125,-0.4787096083164215,0.11289399862289429,-0.25721341371536255,-0.1006055474281311,0.7778140078735687,-0.36934951183598863,-0.3524572737682812,0.36655162922297524,-0.9844321704213754,-0.5253797845701275,0.5943638165320794
1773063602620670976,2.3321759700775146,0.47051703929901123,0.5529730916023254,1.208960771560669,-0.26463478803634644,0.8357328772544861,-0.4811643362045288,0.22015541791915894,-0.1486295461654663,-0.08319723606109619,0.7767234687542972,-0.3720596977412807,-0.34783532604762113,0.3705170777492962,-0.9894659928740019,-0.5028342660078303,0.6148188214785282
1773063602630707968,2.3422129154205322,0.8370948433876038,0.4518526792526245,1.3097456693649292,-0.25164660811424255,0.8355168104171753,-0.488452285528183,0.17013415694236755,0.030373692512512207,-0.03194868564605713,0.776599131858722,-0.37241923068307237,-0.34216629187908676,0.37565929887052735,-0.989072667164889,-0.47572702446494625,0.6410823817682859
1773063602640743936,2.3522489070892334,0.14948610961437225,0.22412414848804474,1.3441319465637207,-0.2387590855360031,0.8359932899475098,-0.4940740466117859,0.087163046002388,0.06722015142440796,-0.1998041272163391,0.775695257608588,-0.3731105705042476,-0.33727064039000004,0.3812266519895087,-0.9899404712688306,-0.45015444521086034,0.6676618324894402
1773063602650781184,2.36228609085083,-1.1980308294296265,-0.06548482179641724,1.0340876579284668,-0.22799734771251678,0.8415146470069885,-0.48976555466651917,0.07499745488166809,-0.14604955911636353,-0.19678837060928345,0.7724998235667592,-0.37745539221702906,-0.33562575421376495,0.38487239772542,-1.000080775606751,-0.43568796740061966,0.6837303920234762
1773063602660817152,2.3723220825195312,-1.5033950805664062,-0.5798866152763367,0.4375385642051697,-0.22337183356285095,0.8502568006515503,-0.47662195563316345,-0.03462377190589905,-0.1275395154953003,-0.12979286909103394,0.7677201307297401,-0.38368696185219087,-0.33833909010364205,0.3858974412596765,-1.0164729491756916,-0.4382596460258733,0.6846834022377047
1773063602670853120,2.3823580741882324,-0.5270715355873108,-0.6835494041442871,0.13722600042819977,-0.22431348264217377,0.8557683229446411,-0.46620163321495056,-0.21237780153751373,0.3790338635444641,-0.626327633857727,0.7640747074190661,-0.38685021059542546,-0.3424121691878146,0.38638142480381243,-1.0270341134874632,-0.44845519500915515,0.6805277900161332
1773063602680890112,2.39239501953125,0.06169453263282776,-0.5828396081924438,0.0373646542429924,-0.2263227254152298,0.8567208051681519,-0.46347329020500183,-0.3128465712070465,0.8007346391677856,-0.8619050979614258,0.762519410436716,-0.3864259189999956,-0.34487442130500123,0.3876864148971046,-1.028877924176608,-0.45425906268162697,0.680950015050605
1773063602690926080,2.402431011199951,0.28912264108657837,-0.7889506816864014,-0.09258118271827698,-0.2298843115568161,0.8559200167655945,-0.4631996750831604,-0.23125149309635162,0.7737948298454285,-0.3318747282028198,0.7617272751527079,-0.38445737206882286,-0.3472645764922042,0.3890645711841932,-1.0273273917383527,-0.4606803027079282,0.6813721215650896
1773063602700963072,2.4124679565429688,0.5744593143463135,-0.9583975076675415,0.060206759721040726,-0.23418556153774261,0.8536940217018127,-0.4651491641998291,-0.020849883556365967,0.5748032927513123,-0.0727994441986084,0.7611289371950859,-0.3809113579931149,-0.34975986234252265,0.3914810317658865,-1.023037893783449,-0.4664144683962224,0.6849994421588039
1773063602710999040,2.42250394821167,0.10451263934373856,-0.97835373878479,0.1639542430639267,-0.237739697098732,0.8522362112998962,-0.46601855754852295,0.1403733491897583,0.18127208948135376,-0.29451000690460205,0.7598776557641553,-0.37776977664494304,-0.35253470401666637,0.3944555853251877,-1.020244941890205,-0.4717351530892241,0.6902802160131323
1773063602721036032,2.4325408935546875,-0.5214423537254333,-0.9143563508987427,0.10698762536048889,-0.24089598655700684,0.8536449074745178,-0.4618004262447357,0.19408203661441803,-0.03128772974014282,-0.21295851469039917,0.7574915346220835,-0.37703194667977025,-0.35629580451105974,0.3963671107894541,-1.0229435711019117,-0.48081346428966604,0.6906865849212105
1773063602731072000,2.4425768852233887,-0.7255804538726807,-0.7979493737220764,0.1136212944984436,-0.24393633008003235,0.8567522168159485,-0.45439058542251587,0.13584303855895996,0.07513254880905151,0.00923067331314087,0.7545655598732559,-0.37786699706753396,-0.36058458115967273,0.39727348240845195,-1.0289388932831114,-0.49268566730905955,0.6868650850028151
1773063602741109248,2.4526140689849854,-1.0737314224243164,-0.7187192440032959,0.1288447231054306,-0.24634775519371033,0.8611457943916321,-0.4446803331375122,0.0922187864780426,-0.011261820793151855,-0.014639705419540405,0.7512149329742919,-0.3800005599375583,-0.36504713059288646,0.39751251256038517,-1.0375193002350798,-0.5059001817692769,0.6803706968849982
1773063602751145216,2.4626500606536865,-0.9398406147956848,-0.6137874126434326,0.19274216890335083,-0.24790318310260773,0.8661649823188782,-0.43393799662590027,0.06820045411586761,-0.08183270692825317,0.20398807525634766,0.7476779197485511,-0.38292416947577035,-0.36932380835704226,0.39742506876805667,-1.04747675669923,-0.5190394555236866,0.6728191364730723
1773063602761181952,2.472687005996704,-0.525077760219574,-0.6427058577537537,0.2520004212856293,-0.24859122931957245,0.8698819875717163,-0.4260372817516327,0.028651058673858643,-0.0002835988998413086,0.3380245566368103,0.744669224275436,-0.3848491941220811,-0.37265595249999184,0.39810348430504583,-1.0549629803270548,-0.5281961238191568,0.6694068916242211
1773063602771218176,2.4827229976654053,-0.4585408568382263,-0.7258727550506592,0.265342116355896,-0.24923576414585114,0.8725629448890686,-0.4201373755931854,0.038527145981788635,-0.05371534824371338,0.15207096934318542,0.7419295223118223,-0.3857427774741897,-0.37567782550834167,0.3995112625727252,-1.0604245493222086,-0.5354226102512387,0.6690489288300363
1773063602781254144,2.4927589893341064,-0.40762442350387573,-0.8052706718444824,0.3735748529434204,-0.24966752529144287,0.8751906752586365,-0.414375901222229,0.04350602626800537,-0.044532716274261475,0.100563645362854,0.739012064955288,-0.38644788826448073,-0.37877443691587764,0.40130925256342787,-1.0658298157592798,-0.5422664105857679,0.6699265879776513
1773063602791290880,2.502795934677124,-0.3409903347492218,-0.8797226548194885,0.5085753798484802,-0.24920395016670227,0.8778253793716431,-0.40904754400253296,0.0017979741096496582,-0.017336547374725342,0.006459653377532959,0.7357950853387483,-0.386962104964637,-0.3817545798096313,0.40389270376370373,-1.0713030993962218,-0.5471784823070095,0.6739352620770539
1773063602801327104,2.512831926345825,-0.16521984338760376,-0.916969895362854,0.4890725314617157,-0.2483825385570526,0.880266547203064,-0.4042731821537018,-0.0317230224609375,-0.16659778356552124,-0.13221052289009094,0.7324574422083473,-0.38715268383162316,-0.38467676101628406,0.40699211397043206,-1.076423671842382,-0.5509352871454587,0.6800059709125642
1773063602811363584,2.5228686332702637,-0.015738138929009438,-0.864151120185852,0.37380051612854004,-0.24817778170108795,0.8815836310386658,-0.4015195369720459,-0.08534875512123108,-0.25562238693237305,-0.13807696104049683,0.7297149780858092,-0.38636551846096007,-0.3872491634367394,0.41021420516547724,-1.0792067055509826,-0.553619514101651,0.6871911963611712
1773063602821399808,2.532904624938965,-0.19636490941047668,-0.7155030369758606,0.28374677896499634,-0.24843792617321014,0.8828631043434143,-0.39853668212890625,-0.15581321716308594,-0.1917925477027893,-0.00693511962890625,0.7272827394438147,-0.38580223368781336,-0.389728487968461,0.41270845247445076,-1.081924177620177,-0.5574301276159696,0.6918177314881885
1773063602831436544,2.5429415702819824,-0.32421061396598816,-0.6428061723709106,0.21842919290065765,-0.24889542162418365,0.8844923377037048,-0.3946191668510437,-0.20114730298519135,-0.05003499984741211,0.10583135485649109,0.7249559772882294,-0.3858182289947483,-0.392217681119541,0.41442532321456155,-1.0854047845864667,-0.5627042035184066,0.693482797590778
1773063602841472512,2.5529775619506836,-0.7785826921463013,-0.6699882745742798,0.1763099730014801,-0.24974018335342407,0.8870275616645813,-0.3883451521396637,-0.20275920629501343,-0.0657384991645813,0.013009428977966309,0.7222502747976476,-0.3867358741110778,-0.39530089013721587,0.41536379947550933,-1.090866969786771,-0.5715009761271559,0.6909536516951724
1773063602851509760,2.5630147457122803,-1.4068334102630615,-0.6324841976165771,0.1394014060497284,-0.25085145235061646,0.8917362689971924,-0.37666943669319153,-0.18013298511505127,-0.22895556688308716,-0.06000658869743347,0.7184340604123435,-0.38975359804481,-0.3996966478392903,0.41495438442826277,-1.1011673826698536,-0.5875217817646154,0.6802975350341359
1773063602861545728,2.5730507373809814,-0.8641877174377441,-0.5639386773109436,0.12334734201431274,-0.2518637180328369,0.8964380025863647,-0.3646417558193207,-0.17053008079528809,-0.24270570278167725,-0.035046935081481934,0.7146479073364119,-0.39299995335682414,-0.40401752626684406,0.41424538875693834,-1.1116654010680591,-0.6044675646110405,0.6680427696276726
1773063602871581696,2.5830867290496826,-0.46245384216308594,-0.511117696762085,0.07038691639900208,-0.252880722284317,0.8991169929504395,-0.3572671413421631,-0.1451447606086731,-0.186043381690979,-0.07203885912895203,0.7120289749489372,-0.39448964034294226,-0.4071171207062221,0.4143044770738893,-1.1177479917307418,-0.6159548261103645,0.6612161657959578
1773063602881618688,2.5931236743927,0.28509679436683655,-0.658602237701416,0.005424163304269314,-0.25460442900657654,0.8996285796165466,-0.35474634170532227,-0.07809820771217346,0.1085348129272461,-0.11581945419311523,0.7105585303193267,-0.39380054183969077,-0.4093262355955199,0.4153067842229588,-1.118918198615354,-0.6225121939370717,0.6602687032308511
1773063602891654656,2.6031596660614014,0.9186320304870605,-0.8488192558288574,0.21316830813884735,-0.25646519660949707,0.897498369216919,-0.3587789535522461,-0.02782130241394043,0.568627119064331,-0.2547922134399414,0.7101001078194445,-0.3900423839617093,-0.41046006030785237,0.4185061413153679,-1.1140640032211977,-0.6206083957304528,0.6708767512993069
1773063602901691648,2.613196611404419,0.13491089642047882,-0.9000222682952881,0.3845352530479431,-0.25686973333358765,0.8960959911346436,-0.36198070645332336,-0.0028806328773498535,0.40032124519348145,-0.46757858991622925,0.7087875419459089,-0.38662985956300006,-0.4117365695811734,0.42262355886770475,-1.110894336195961,-0.6171550132210136,0.6847172679663464
1773063602911727616,2.62323260307312,-1.0407044887542725,-0.7087283730506897,0.2307814359664917,-0.25685417652130127,0.8986324071884155,-0.3556484282016754,-0.0017212927341461182,-0.0496792197227478,-0.2944523096084595,0.7055058714118605,-0.38726149554491673,-0.4149750818022228,0.4243651120891439,-1.11664214480803,-0.6254794544592931,0.6844737909927665
1773063602921764608,2.6332695484161377,-1.7112802267074585,-0.5231550335884094,0.08148568868637085,-0.2577345371246338,0.9039749503135681,-0.34117788076400757,-0.0712755024433136,-0.21244657039642334,0.18527883291244507,0.7011455599558291,-0.39128254142403396,-0.4198916932463016,0.4230649291711293,-1.1289762724636556,-0.6469645501256542,0.667445377795807
1773063602931800576,2.643305540084839,-1.0909489393234253,-0.42899802327156067,0.11879070848226547,-0.2584715187549591,0.909236490726471,-0.32631513476371765,-0.1397523581981659,-0.22828251123428345,0.22865891456604004,0.6969725466071319,-0.39572157080074666,-0.42455490291162656,0.4211732738258628,-1.141446266726152,-0.6699001832880062,0.6474505457804395
1773063602941837824,2.6533427238464355,-0.17296284437179565,-0.23018638789653778,0.07537692785263062,-0.25856807827949524,0.911514401435852,-0.319818913936615,-0.10881778597831726,-0.15560925006866455,0.10419696569442749,0.694796494591611,-0.3973896586544104,-0.42681612429772986,0.4209125740839724,-1.1469515092563256,-0.6798920158415442,0.6401970557242647
1773063602951873792,2.6633787155151367,0.5699173212051392,-0.059615883976221085,-0.08618174493312836,-0.25912314653396606,0.9108162522315979,-0.3213551640510559,-0.05656599998474121,0.06545644998550415,0.19736221432685852,0.6949391730779283,-0.39634939095767846,-0.42688355841692177,0.4215889812921918,-1.1452570490058944,-0.6785978936058179,0.6431377137280474
1773063602961910784,2.6734156608581543,1.152998685836792,0.029875382781028748,0.05769846588373184,-0.2595228850841522,0.9078115224838257,-0.3294333219528198,-0.055922091007232666,0.5553691387176514,0.26270660758018494,0.6967708296649625,-0.3931500957381872,-0.42510745110718334,0.4233523684640036,-1.1380358586784225,-0.6672487726863209,0.6556878782768144
1773063602971946752,2.6834516525268555,0.7273097038269043,-0.03192096948623657,0.31519973278045654,-0.25770342350006104,0.9048928618431091,-0.33875954151153564,-0.03912582993507385,0.6041098833084106,0.05967625975608826,0.6983817878975431,-0.3900091651126113,-0.4225080818872865,0.42619571471474677,-1.131127947750589,-0.6503309240576204,0.6742465230830691
1773063602981982720,2.6934876441955566,-0.3852628767490387,-0.10291125625371933,0.277326375246048,-0.2550966441631317,0.9051535129547119,-0.34003379940986633,0.046890467405319214,0.04392796754837036,-0.06498026847839355,0.6978684640115931,-0.3899547110027211,-0.4218037736887214,0.42778102577645566,-1.1317406690466114,-0.6436352955090034,0.6824546239507132
1773063602992019712,2.703524589538574,-0.9550257325172424,-0.11788451671600342,0.13827338814735413,-0.2536386549472809,0.9080953598022461,-0.333212286233902,0.07749110460281372,-0.3210439085960388,0.05165711045265198,0.6957878180166666,-0.39265417946552833,-0.4233397608090809,0.4271833329556681,-1.1387131669187132,-0.650625839703476,0.6759834163862307
1773063603002055680,2.7135605812072754,-0.33584076166152954,-0.15929587185382843,0.12360308319330215,-0.25295233726501465,0.9109728932380676,-0.3257966935634613,0.010230779647827148,-0.3408129811286926,0.04390585422515869,0.6936850571190138,-0.39531272206805895,-0.4252405181218589,0.42626209852237323,-1.1456366605677832,-0.6601913380486493,0.6670389995287127
1773063603012092672,2.723597526550293,0.4628222584724426,-0.03108307532966137,0.04854930564761162,-0.2523992955684662,0.9109218716621399,-0.3263677954673767,-0.0513269305229187,-0.1869381070137024,-0.05775696039199829,0.6934418704433245,-0.39498762489920014,-0.42520686385634693,0.42699211385131014,-1.1455129883772757,-0.6582836649050475,0.6702468298390081
1773063603022128640,2.733633518218994,1.169192910194397,0.09437897056341171,-0.15021784603595734,-0.25273752212524414,0.908040463924408,-0.3340451419353485,-0.08348989486694336,0.10741657018661499,0.04165622591972351,0.6952711963636381,-0.3920661826477868,-0.4233928874574697,0.4285095928290277,-1.1385820991840008,-0.6477097709840648,0.6814573602461723
1773063603032165888,2.743670701980591,1.482860803604126,0.1586010754108429,-0.0983332172036171,-0.2536277174949646,0.9030410051345825,-0.34668421745300293,-0.1280861496925354,0.5576218366622925,0.14600062370300293,0.6985203347104272,-0.38730818971120795,-0.4202978142766567,0.43059432673247333,-1.126797093770786,-0.6316085997784553,0.6977548507118025
1773063603042201856,2.753706693649292,0.9749544262886047,0.07491815835237503,0.09172353893518448,-0.25315505266189575,0.8984930515289307,-0.3586401045322418,-0.12349286675453186,0.5862633585929871,0.03921261429786682,0.7012676863833306,-0.38306837543551714,-0.4170594358591742,0.43306309209437466,-1.116324566979488,-0.6146580165688047,0.7151622046953708
1773063603052238592,2.7637436389923096,-0.10484237968921661,-0.05201612040400505,0.08783883601427078,-0.25219962000846863,0.8971467018127441,-0.36266109347343445,-0.028546780347824097,0.11072677373886108,-0.008783608675003052,0.7019208088436281,-0.3817453505397852,-0.41586049054249213,0.4343243893669743,-1.1132672386736167,-0.6076415493360887,0.7228500689638748
1773063603062274816,2.7737796306610107,-0.9585844278335571,-0.1157359778881073,0.028624245896935463,-0.2520345449447632,0.8992970585823059,-0.3574118912220001,0.05675262212753296,-0.20822656154632568,0.09485390782356262,0.7005462178131665,-0.383624796089771,-0.41728416307202537,0.4335214212142523,-1.1181595050336202,-0.6141843726765325,0.7165635025152253
1773063603072311552,2.7838165760040283,-1.2789018154144287,-0.12365727871656418,0.0817270576953888,-0.2520051896572113,0.903517484664917,-0.3466261029243469,0.058218568563461304,-0.187727689743042,0.15174084901809692,0.6979418633519261,-0.38753367476829537,-0.42012451016272573,0.43149769798073057,-1.1279076021736516,-0.6286330210647697,0.70187918076539
1773063603082347520,2.7938525676727295,-1.145602822303772,-0.15928983688354492,0.1544302999973297,-0.2514069080352783,0.9079782962799072,-0.3352162837982178,0.018695145845413208,-0.0511210560798645,0.14379480481147766,0.6950076241883171,-0.39172877763014946,-0.423013494955106,0.4296190606078903,-1.1384336791161587,-0.6434909660993748,0.6870450835441634
1773063603092383744,2.8038885593414307,-0.7808928489685059,-0.1882881373167038,0.2012566477060318,-0.2503089904785156,0.9117893576622009,-0.3255541920661926,-0.027736663818359375,0.0406336784362793,0.11321288347244263,0.6922453427492108,-0.3952579795739234,-0.4254339319923904,0.4284547566523875,-1.1476205326951117,-0.6554691966756486,0.6758116140798186
1773063603102420736,2.8139257431030273,0.25066205859184265,-0.1158357784152031,0.17662693560123444,-0.24905729293823242,0.9131858348846436,-0.32258644700050354,-0.06386992335319519,0.11156386137008667,0.043213337659835815,0.6909304757306641,-0.3962999577441214,-0.4262078375907841,0.42884520635498236,-1.1510339620658456,-0.6574730053612059,0.6753754133560712
1773063603112456704,2.8239617347717285,0.9630343317985535,0.08582150936126709,0.03686273470520973,-0.24804207682609558,0.9113669991493225,-0.32845884561538696,-0.06622791290283203,0.12323987483978271,0.02444276213645935,0.6919262083480379,-0.3942742735312792,-0.42463911238771446,0.4306593252019539,-1.1465931572726242,-0.6468013421417723,0.6872471808771613
1773063603122493696,2.833998680114746,1.5053269863128662,0.19445770978927612,-0.15854351222515106,-0.2481948733329773,0.9071144461631775,-0.3399158716201782,-0.04095920920372009,0.2639671564102173,0.13824042677879333,0.6947881100011843,-0.39021766609841774,-0.4216304501520469,0.43269795547501255,-1.1363766811581681,-0.6306857736198324,0.7033299852904524
1773063603132529664,2.8440346717834473,2.020331621170044,0.2092595100402832,-0.041147422045469284,-0.24857977032661438,0.9005157947540283,-0.35676267743110657,-0.01117067039012909,0.6488617062568665,0.06290891766548157,0.6989883826740286,-0.38411618202107795,-0.4172210641053227,0.43565670183456506,-1.1209542979103742,-0.6085515667452012,0.7255172482572513
1773063603142566656,2.854071617126465,1.4672247171401978,0.07087608426809311,0.21576745808124542,-0.2472018152475357,0.8940747976303101,-0.3735257387161255,0.0646151751279831,0.48333609104156494,-0.22449669241905212,0.7025672250581666,-0.37822514648123867,-0.4125322730135995,0.4395020954223203,-1.1063613228828781,-0.5846304463001567,0.750553515813015
1773063603152602624,2.864107608795166,0.3692198097705841,0.013842687010765076,0.2297603338956833,-0.24494154751300812,0.8912421464920044,-0.38169488310813904,0.1871412843465805,-0.11217421293258667,-0.2568854093551636,0.7038047997173414,-0.37559451726960297,-0.40997722118965496,0.442160768802317,-1.1000766699391347,-0.57053303074373,0.7660234432168406
1773063603162639616,2.8741445541381836,-0.31351855397224426,0.1439727246761322,0.07017918676137924,-0.2433013617992401,0.8916493654251099,-0.38179299235343933,0.2162170261144638,-0.42122089862823486,-0.012280493974685669,0.7036061980897543,-0.376106497894979,-0.4094476931983408,0.4425322474669821,-1.100975329770939,-0.567366900732552,0.7687270286979417
1773063603172675584,2.8841805458068848,-0.20817004144191742,0.24138504266738892,0.019772564992308617,-0.2422461062669754,0.8928648829460144,-0.3796171247959137,0.1279425323009491,-0.4845854640007019,0.054269254207611084,0.7033737129310552,-0.37765867182190543,-0.40934748058123765,0.44167185362526934,-1.103667408940035,-0.5679873577725443,0.7658221199516252
1773063603182712832,2.8942177295684814,0.08586425334215164,0.32440295815467834,0.026972686871886253,-0.24097034335136414,0.8932669162750244,-0.3794831931591034,0.03473258018493652,-0.3603842258453369,0.029065072536468506,0.7037132487034119,-0.37863650382603553,-0.4085251563429191,0.4410546527883774,-1.1045609005558126,-0.5657552528175276,0.7652254669719705
1773063603192748800,2.9042537212371826,0.7418827414512634,0.34883713722229004,0.0209419596940279,-0.23946402966976166,0.8917213678359985,-0.3840443789958954,0.024452432990074158,-0.039228081703186035,0.118877112865448,0.7051721364496735,-0.37797858549713825,-0.40633729653440154,0.44130998527607235,-1.101134400167228,-0.5575431100438633,0.7705082630800291
1773063603202784768,2.914289712905884,0.9111756086349487,0.19753602147102356,0.08091927319765091,-0.23796722292900085,0.8884612917900085,-0.3924387991428375,0.037604063749313354,0.32391053438186646,0.06345927715301514,0.7072620964219651,-0.375616108254479,-0.4033523836043337,0.44271859928031465,-1.0939815204682226,-0.5450978445243784,0.781391257333274
1773063603212821760,2.9243266582489014,0.6941190361976624,0.15378551185131073,0.12869474291801453,-0.2363559454679489,0.8854612112045288,-0.40011799335479736,0.06870760023593903,0.33949917554855347,0.013048291206359863,0.7088903627358801,-0.373287873237713,-0.4007457608945349,0.4444474228965271,-1.087485499531884,-0.5335647762950592,0.7925445898312932
1773063603222857728,2.9343626499176025,0.21510766446590424,0.13470450043678284,0.08603888750076294,-0.23477961122989655,0.8838489055633545,-0.40458565950393677,0.11911797523498535,0.10232657194137573,0.023527920246124268,0.7097929430634085,-0.3721745855694046,-0.3989902835007394,0.4455185489060929,-1.0840275200462148,-0.5258055711587809,0.799706627484154
1773063603232894720,2.94439959526062,-0.1916954517364502,0.04306262359023094,0.027176063507795334,-0.23391997814178467,0.8839597702026367,-0.40484151244163513,0.10066498816013336,-0.13341045379638672,-0.02847754955291748,0.7098601187913843,-0.37247152904417247,-0.3985526276544788,0.4455552049201777,-1.0842645044709733,-0.523940712742652,0.8007846833829226
1773063603242930688,2.9544355869293213,-0.48110461235046387,0.0012419408885762095,0.08163424581289291,-0.23351629078388214,0.8853739500045776,-0.4019739329814911,0.05909310281276703,-0.2293986678123474,-0.02098444104194641,0.7091835164589971,-0.3737391212596473,-0.39916426408468153,0.4450231759293686,-1.0872977882920303,-0.5262749158699476,0.7980121662045682
1773063603252967680,2.964472532272339,-0.6987042427062988,0.011374402791261673,0.20122721791267395,-0.2321632206439972,0.8882380127906799,-0.39640069007873535,0.058975949883461,-0.2637416124343872,-0.04140448570251465,0.707666533772817,-0.3762706667383447,-0.4002749636450914,0.4443067161592211,-1.0934953131619058,-0.5298221784878724,0.7940098854202005
1773063603263003648,2.97450852394104,-0.40253883600234985,0.057289429008960724,0.07716067135334015,-0.23073624074459076,0.8907931447029114,-0.39146971702575684,0.07241101562976837,-0.2552034854888916,-0.08004212379455566,0.7063181205912876,-0.37860024213174226,-0.4011570778273515,0.443677461985388,-1.0990876070141704,-0.5325964864284746,0.7906487777577402
1773063603273040896,2.9845457077026367,0.07647441327571869,0.14029113948345184,-0.06740082055330276,-0.2303185760974884,0.8915355205535889,-0.390022873878479,-0.0014472007751464844,-0.20296740531921387,0.125282883644104,0.7061638425010821,-0.3795004004961894,-0.4012081784336514,0.4431073640248232,-1.1007239752338143,-0.5334240435591573,0.7885591833072801
1773063603283076864,2.994581699371338,0.7819777131080627,0.1837771087884903,-0.11920250207185745,-0.2306450605392456,0.8895511031150818,-0.39433711767196655,-0.10776437819004059,0.1405239701271057,0.34187740087509155,0.707536699744737,-0.3780529157203264,-0.3998842782060633,0.443351364026723,-1.096361609470694,-0.5292374150310487,0.7915721567956475
1773063603293112832,3.004617691040039,1.0786736011505127,0.3251740336418152,-0.09975112229585648,-0.23048709332942963,0.885469913482666,-0.4035080373287201,-0.09057310223579407,0.5419135093688965,0.12904822826385498,0.7100955771869963,-0.3750123107841845,-0.39700345284473637,0.44443033358192474,-1.0875042801721084,-0.5189799575327297,0.8001872947578068
1773063603303149824,3.0146546363830566,1.1147881746292114,0.48553577065467834,-0.11823292821645737,-0.2298639416694641,0.8805739283561707,-0.4144298732280731,-0.07613581418991089,0.42737895250320435,-0.11694216728210449,0.7133188819100628,-0.3717017310659285,-0.39322116798259427,0.44541119436374266,-1.0770719319709994,-0.5064070232561835,0.8096095268969292
1773063603313185792,3.024690628051758,0.9089905023574829,0.5624436736106873,-0.11239000409841537,-0.2284516990184784,0.8760316371917725,-0.4247097671031952,-0.0991850346326828,0.07550644874572754,-0.16514921188354492,0.7164795336541554,-0.3690188206299302,-0.3891917645708692,0.44610756670978746,-1.067570898954631,-0.493506514331547,0.818232651296912
1773063603323222528,3.0347275733947754,0.9265590906143188,0.6192997694015503,-0.2701130509376526,-0.22756844758987427,0.8716723918914795,-0.43405044078826904,-0.04847830533981323,-0.19947701692581177,-0.06878766417503357,0.7197620027523162,-0.3667151049444437,-0.38535025373330856,0.4460581137330765,-1.0586044983827647,-0.48289051316207676,0.8234679960177078
1773063603333258752,3.0447635650634766,0.7923785448074341,0.5627216100692749,-0.3870587646961212,-0.227836012840271,0.8670931458473206,-0.44299015402793884,0.007041335105895996,-0.14741241931915283,-0.026995837688446045,0.7232468881590699,-0.3642693510177036,-0.3818543737566956,0.44543133124891976,-1.0493370158078767,-0.47503307701463593,0.8256091759218837
1773063603343295488,3.054800510406494,0.6817052960395813,0.5031387209892273,-0.40869107842445374,-0.22898657619953156,0.8629072904586792,-0.4505065083503723,-0.015657588839530945,0.058189451694488525,0.028036415576934814,0.7264816812265587,-0.3620309570480431,-0.3790518807585378,0.4443845327457771,-1.040994630134274,-0.4702551646762947,0.8250137578716801
1773063603353331712,3.0648367404937744,0.6092519760131836,0.45142993330955505,-0.36390575766563416,-0.23014621436595917,0.85904461145401,-0.457247257232666,-0.0045187026262283325,0.06731641292572021,0.0872521698474884,0.7294230799143494,-0.3599732500767627,-0.37655761126076276,0.44335712115454523,-1.0334003433567576,-0.4663079882876101,0.8240590277460327
1773063603363368704,3.074873685836792,0.2839742600917816,0.45720234513282776,-0.3782082498073578,-0.23121073842048645,0.8559594750404358,-0.4624662399291992,0.010660216212272644,-0.06297546625137329,0.04855632781982422,0.7319523710111632,-0.3585014981866117,-0.37449107155071937,0.44212996702810375,-1.0274037316339804,-0.4636089134755059,0.8219613740466739
1773063603373404672,3.084909677505493,-0.12234567105770111,0.5423680543899536,-0.40657269954681396,-0.23230920732021332,0.8547829389572144,-0.4640890955924988,0.004724323749542236,-0.12774741649627686,0.19251316785812378,0.7338652088468238,-0.3586593825892468,-0.37325446592321365,0.4398710055549962,-1.0251324178222498,-0.46410372022296587,0.8155349221737581
1773063603383441664,3.0949466228485107,-0.23129133880138397,0.5863650441169739,-0.39456450939178467,-0.23311372101306915,0.8546902537345886,-0.46385613083839417,-0.06043487787246704,-0.06156891584396362,0.3898051977157593,0.7354859059529093,-0.3598282353107469,-0.3722842639419909,0.43702231887717385,-1.024953895726666,-0.4656903770904644,0.8070030347971147
1773063603393477632,3.104982614517212,-0.3578258454799652,0.5662171840667725,-0.40722474455833435,-0.233811154961586,0.8551726937294006,-0.4626142382621765,-0.12948530912399292,-0.05422365665435791,0.2521497905254364,0.7368822653609121,-0.3614757615536215,-0.37152141150955276,0.43394876772364416,-1.0258838739037726,-0.46796847240574574,0.7975379833802989
1773063603403514624,3.1150195598602295,-0.23705121874809265,0.5521445274353027,-0.43435436487197876,-0.23479369282722473,0.8556403517723083,-0.46125006675720215,-0.15326787531375885,-0.09402841329574585,0.07379889488220215,0.738263105507131,-0.36307091735075636,-0.37088338114440006,0.43080473863927055,-1.0267868224433894,-0.47085164225157095,0.7875936216585249
1773063603413550592,3.1250555515289307,0.07620310038328171,0.49913814663887024,-0.4858522415161133,-0.2363237589597702,0.8550121784210205,-0.46163317561149597,-0.1386304348707199,-0.10792666673660278,-0.052343904972076416,0.7400428299788107,-0.36370797263223087,-0.36999990536448446,0.4279639370524769,-1.0255743388069456,-0.4731458206356238,0.7787889576390972
1773063603423586560,3.135091543197632,0.6711404919624329,0.5919122695922852,-0.5333340167999268,-0.2381945103406906,0.8520718216896057,-0.4660870134830475,-0.09571364521980286,-0.07541465759277344,-0.2018207311630249,0.7428149041101619,-0.36254220095692685,-0.3681299277834757,0.42575773042123044,-1.0199308431781442,-0.4724497301965818,0.7732477890795046
1773063603433623808,3.1451287269592285,0.9058133959770203,0.6855186820030212,-0.5730454921722412,-0.23991011083126068,0.8468388319015503,-0.4746653735637665,-0.0368233323097229,0.03449362516403198,-0.3390553593635559,0.7466561076306538,-0.35978198463322714,-0.36499894441949804,0.42407246768456486,-1.0100131501785223,-0.46798214530554155,0.7710302719013039
1773063603443659776,3.1551647186279297,0.8280347585678101,0.7221043705940247,-0.6266964673995972,-0.2415868490934372,0.8411704897880554,-0.483805775642395,0.005945354700088501,0.13057023286819458,-0.3830307722091675,0.7508002792011113,-0.3568982351873028,-0.36155327278282634,0.4221395903303116,-0.9994440804102326,-0.46312489259669015,0.7683541298538348
1773063603453696768,3.1652016639709473,0.3228984475135803,0.6117700338363647,-0.6566125154495239,-0.2437199056148529,0.8366075754165649,-0.49059993028640747,0.003805980086326599,0.05239999294281006,-0.22612065076828003,0.7544738679769826,-0.3548452395241961,-0.3588661088868871,0.4196058862413951,-0.9910608471157806,-0.46106773676335416,0.7627399735918037
1773063603463732736,3.1752376556396484,-0.12354323267936707,0.5829352140426636,-0.5689572095870972,-0.24601387977600098,0.834753692150116,-0.4926086962223053,-0.019489005208015442,-0.19446444511413574,0.0959259569644928,0.7569417348982254,-0.3547033186230923,-0.3576048250128452,0.4163453507789711,-0.9876853285051754,-0.46317577759669004,0.7531938929360744
1773063603473769728,3.185274600982666,-0.44476592540740967,0.7539088129997253,-0.4640275537967682,-0.24707038700580597,0.834804117679596,-0.49199429154396057,-0.05989067256450653,-0.18836551904678345,0.45399993658065796,0.7586959967254978,-0.35615395819067924,-0.3565910902917024,0.41276823538954505,-0.9877768881950363,-0.46539119752826624,0.7427120737147075
1773063603483805696,3.195310592651367,-0.7106804251670837,0.9723178744316101,-0.48862719535827637,-0.24671141803264618,0.8366289734840393,-0.48906585574150085,-0.16425351798534393,-0.09039795398712158,0.6071383953094482,0.7601356734626532,-0.3594292969489174,-0.3553556713600855,0.4083217795255183,-0.9910999088223802,-0.4672047801556494,0.7300447505960538
1773063603493842688,3.2053475379943848,-1.079652190208435,1.1202549934387207,-0.5338016152381897,-0.24594652652740479,0.8395344018936157,-0.48445042967796326,-0.27573615312576294,-0.1002766489982605,0.5717307329177856,0.7614917125316534,-0.36390465534236466,-0.3540454591877158,0.40293360954022733,-0.9964256572555072,-0.46977392950861036,0.7144698410950994
1773063603503878656,3.215383529663086,-1.873208999633789,1.189443588256836,-0.4840835928916931,-0.24470111727714539,0.8454010486602783,-0.47478240728378296,-0.3043863773345947,-0.2095063328742981,0.5435538291931152,0.7618460281438951,-0.37097856220578684,-0.3535303349178015,0.3962092024790113,-1.0073155328037564,-0.47588868243176463,0.6934071746849828
1773063603513915904,3.2254207134246826,-1.85107421875,1.2354018688201904,-0.48021841049194336,-0.24302954971790314,0.8535038828849792,-0.46094250679016113,-0.23670685291290283,-0.1034732460975647,0.47209662199020386,0.7612046717883656,-0.38005648463923447,-0.3536747373142645,0.3886371967278496,-1.0226728596796024,-0.4852051679026596,0.6681518606738395
1773063603523951872,3.235456705093384,-1.1631673574447632,0.8645937442779541,-0.5666462182998657,-0.24243810772895813,0.8594433069229126,-0.45009008049964905,-0.11621974408626556,0.2400592565536499,0.08050692081451416,0.7610988518756999,-0.38725703099048125,-0.35353494184631434,0.3818032253859846,-1.034179783528313,-0.4940824495774951,0.6450264866918649
1773063603533987840,3.245492696762085,0.41453036665916443,0.5976663827896118,-0.6030555367469788,-0.24449960887432098,0.8597254157066345,-0.44843319058418274,0.024391546845436096,0.49949711561203003,-0.46683478355407715,0.7627526406154679,-0.3890309623143791,-0.35275814432088853,0.3773925890295634,-1.0347318075416245,-0.4991742878345789,0.6308169853006808
1773063603544024832,3.2555296421051025,1.8303186893463135,0.5254185199737549,-0.3781745135784149,-0.24620455503463745,0.8533083200454712,-0.45961761474609375,0.16307467222213745,0.6982206106185913,-0.6582717895507812,0.7668898106347954,-0.38483916531526974,-0.34941380595320753,0.37641597014935596,-1.0222977636964745,-0.49177677678630627,0.6328959971407545
1773063603554060800,3.2655656337738037,2.77937388420105,0.41652223467826843,-0.26322752237319946,-0.24658450484275818,0.8414713144302368,-0.480751633644104,0.21666201949119568,0.4711202383041382,-0.548270583152771,0.7727734669347949,-0.37613038150273126,-0.3437297081647753,0.37841384443928255,-1.0000006175954763,-0.4739257803285652,0.648370460841501
1773063603564097536,3.2756025791168213,2.588740348815918,0.48897141218185425,-0.32219046354293823,-0.24675750732421875,0.8270083665847778,-0.5051414370536804,0.19857025146484375,-0.05175513029098511,-0.12887650728225708,0.7792539839616429,-0.3656659582441409,-0.3372205414989469,0.38122690113848356,-0.9737653184191967,-0.45439882561625494,0.6664040446241208
1773063603574133760,3.2856385707855225,0.9018116593360901,0.507025957107544,-0.4423729479312897,-0.2472740262746811,0.8167234659194946,-0.5213619470596313,0.17896044254302979,-0.45002424716949463,0.22439539432525635,0.7841257270839841,-0.3588799970457827,-0.3324517528399257,0.381874048606625,-0.9557097123336078,-0.4428646000891463,0.6742675593001353
1773063603584170496,3.29567551612854,-0.6200618743896484,0.4127766788005829,-0.5771180391311646,-0.2490268051624298,0.8151466846466064,-0.5229927897453308,0.1740298569202423,-0.47952961921691895,0.3651559352874756,0.7859890714220872,-0.35869515082870174,-0.33142326448883525,0.3791009266222913,-0.9529823552387383,-0.4443920909440526,0.6666337569767782
1773063603594206720,3.3057117462158203,-0.6134910583496094,0.27716028690338135,-0.5297969579696655,-0.25189658999443054,0.8174358606338501,-0.5180219411849976,0.20344993472099304,-0.2040630578994751,0.32391488552093506,0.786355604624306,-0.3612093425070695,-0.3324407324716295,0.37504108453839635,-0.9569453521472002,-0.45260035669715787,0.6523369324817045
1773063603604243712,3.315748691558838,0.15526077151298523,0.2343481034040451,-0.3344756066799164,-0.2542456090450287,0.8175511956214905,-0.5166906714439392,0.2397955358028412,0.02078193426132202,0.07143920660018921,0.7871311990599515,-0.36184633009681894,-0.33274901181599237,0.3725181564468834,-0.9571455833219653,-0.457279815094973,0.6437610682654028
1773063603614279680,3.325784683227539,0.9089322090148926,0.41199374198913574,-0.30703943967819214,-0.25506970286369324,0.8140872716903687,-0.5217292308807373,0.22543716430664062,0.16422998905181885,-0.0773613452911377,0.7891565817000571,-0.3598899211368945,-0.33108101032520465,0.3716133561781545,-0.9511557657139176,-0.45472251709367156,0.6430088797979179
1773063603624316672,3.3358216285705566,1.9510202407836914,0.6200846433639526,-0.4479299783706665,-0.2553479075431824,0.8055634498596191,-0.5346633195877075,0.12898990511894226,0.3751463294029236,-0.1253860592842102,0.7932826843129173,-0.3545861255306448,-0.3270122523356815,0.37152948922185175,-0.9366258216118428,-0.44555645100844826,0.6478163663607761
1773063603634352640,3.345857620239258,2.5024826526641846,0.6863459944725037,-0.5591758489608765,-0.2557070255279541,0.7918190956115723,-0.5546497106552124,0.01020839810371399,0.39661163091659546,-0.21605640649795532,0.7993109127715652,-0.34591200235507347,-0.32096732345893997,0.3720575614620767,-0.9137817409561887,-0.4319838435863217,0.6564026702308333
1773063603644389632,3.3558945655822754,2.4363837242126465,0.5919667482376099,-0.7074673175811768,-0.25698065757751465,0.7760530114173889,-0.5759363174438477,-0.004341334104537964,0.19693893194198608,-0.25641530752182007,0.8057832054236213,-0.33607386770838876,-0.31477960123299625,0.37239965379630924,-0.8883830205843013,-0.41968626030332806,0.6638099964002584
1773063603654425600,3.3659305572509766,1.9252080917358398,0.5701721906661987,-0.7453017830848694,-0.25939539074897766,0.7611086368560791,-0.5944979786872864,0.08974817395210266,0.13780194520950317,-0.15417450666427612,0.8117383436298933,-0.32696479073096,-0.30958850510300184,0.37192739611424075,-0.8650205737751925,-0.4114252973696627,0.6672092698573152
