time,seconds_elapsed,rotationRateX,rotationRateY,rotationRateZ,gravityX,gravityY,gravityZ,accelerationX,accelerationY,accelerationZ,quaternionW,quaternionX,quaternionY,quaternionZ,pitch,roll,yaw
1772660019374012160,0.09487032890319824,-0.0399579294025898,0.025822728872299194,0.055510684847831726,0.1084672287106514,0.09402206540107727,-0.9896437525749207,-0.013237126171588898,0.02076980471611023,-0.022242844104766846,-0.09996131212642693,-0.04937706196174839,-0.05234539384183056,0.9923858707480191,-0.09416114886134648,0.10916656111971396,-2.9356648304649857
1772660019384050176,0.10490822792053223,-0.04591848701238632,0.022142373025417328,0.05666450038552284,0.10875087231397629,0.09438170492649078,-0.989578366279602,-0.008134417235851288,0.017816171050071716,-0.01191699504852295,-0.10025103444808334,-0.04948585683563359,-0.052554425039138306,0.9923400833126471,-0.09452239696969339,0.10945693428136036,-2.9350439970058657
1772660019394087168,0.1149451732635498,-0.04467851668596268,0.018404893577098846,0.058902088552713394,0.10900960117578506,0.09476815909147263,-0.9895129799842834,-0.005478717386722565,0.018436796963214874,-0.0009197592735290527,-0.10055391137280228,-0.049580053486456103,-0.05277629694323581,0.9922929519559472,-0.09491058693735503,0.1097224573862292,-2.9343962593140565
1772660019404125184,0.12498331069946289,-0.046785034239292145,0.017530176788568497,0.06524427235126495,0.10924017429351807,0.0951559841632843,-0.9894503355026245,0.0003026723861694336,0.0212685689330101,0.004175066947937012,-0.10086942718548467,-0.0496592964949129,-0.05299808754863584,0.9922452033901307,-0.09530017590306544,0.10995957641685165,-2.9337243680900227
1772660019414162176,0.13502025604248047,-0.04890197888016701,0.007335064932703972,0.06064845621585846,0.10941967368125916,0.09553789347410202,-0.9893936514854431,0.004334591329097748,0.019116640090942383,0.00944375991821289,-0.10119291415889452,-0.04971274376118923,-0.05321470188529399,0.9921980554847946,-0.09568382970218656,0.11014506189506175,-2.933039392031344
1772660019424200192,0.14505839347839355,-0.04904711991548538,-0.007361588999629021,0.05459855496883392,0.10945791751146317,0.09595786035060883,-0.989348828792572,0.004143767058849335,0.013005152344703674,0.013823926448822021,-0.10149146820238598,-0.04969487547780415,-0.05344172299417993,0.992156190772721,-0.09610573634190576,0.11018819957425785,-2.9324098386758757
1772660019434237184,0.15509533882141113,-0.04397273436188698,-0.01910346746444702,0.04601651802659035,0.10936885327100754,0.09635113924741745,-0.9893204569816589,0.001348927617073059,0.003944873809814453,0.020784080028533936,-0.10175185945379243,-0.049616625733642894,-0.053646759935629694,0.99212243965615,-0.09650084707917682,0.11010239656401571,-2.9318658285535095
1772660019444275200,0.16513323783874512,-0.05231539532542229,-0.02994612790644169,0.03759227320551872,0.10916446894407272,0.09677857160568237,-0.9893012642860413,0.0006377696990966797,-0.00360841304063797,0.022229790687561035,-0.1019796454167451,-0.049480680752785354,-0.05386112480858743,0.9920941733945302,-0.09693028477246711,0.10990040625955555,-2.9313917171195376
1772660019454312192,0.1751701831817627,-0.057174600660800934,-0.04455702751874924,0.031057141721248627,0.10881410539150238,0.097272589802742,-0.9892914295196533,0.0023003965616226196,-0.008100226521492004,0.02479863166809082,-0.1021755904609178,-0.049270046922506985,-0.05409941203465448,0.9920715895885905,-0.09742664212669402,0.10955158552259801,-2.930985918639346
1772660019464349184,0.18520736694335938,-0.06261584162712097,-0.06318623572587967,0.01595395617187023,0.10828308761119843,0.09785007685422897,-0.9892927408218384,0.006081528961658478,-0.01221776008605957,0.034977614879608154,-0.10232483958782305,-0.04896737479581707,-0.05436748881680325,0.9920564630873109,-0.09800690293054141,0.10902106359040789,-2.9306792566431352
1772660019474387200,0.19524526596069336,-0.07623471319675446,-0.08422307670116425,0.001331337378360331,0.10758063197135925,0.09851955622434616,-0.989302933216095,0.008111506700515747,-0.02167629450559616,0.03726130723953247,-0.10240881862232733,-0.04857788596606285,-0.05466918074570789,0.9920503863151698,-0.09867962957341382,0.10831824868899799,-2.9305085063500553
1772660019484424192,0.20528221130371094,-0.07708185911178589,-0.09855514764785767,-0.0116806011646986,0.10668151080608368,0.0992707833647728,-0.989325225353241,0.010826416313648224,-0.0322999581694603,0.03810757398605347,-0.10243624607082855,-0.048089071975909656,-0.054998519847251896,0.9920531371182045,-0.09943455469384964,0.10741754131263145,-2.9304582703851456
1772660019494462208,0.21532034873962402,-0.07996819913387299,-0.11082087457180023,-0.02443847432732582,0.10563140362501144,0.10004927217960358,-0.989359438419342,0.015599675476551056,-0.03735090792179108,0.03863006830215454,-0.10239416529883824,-0.047527296394806434,-0.05533013762107529,0.9920660771918555,-0.10021693896924391,0.10636452776924031,-2.9305556534284416
1772660019504499200,0.2253572940826416,-0.07166174799203873,-0.12185847759246826,-0.039368823170661926,0.10444201529026031,0.10082932561635971,-0.9894065260887146,0.021427735686302185,-0.03515549749135971,0.0322074294090271,-0.10228578882443887,-0.04689960606669711,-0.05565207918448007,0.9920891656176952,-0.10100095735116468,0.10517077931407229,-2.930795271174252
1772660019514537216,0.23539519309997559,-0.061670638620853424,-0.13461314141750336,-0.057707615196704865,0.10312063992023468,0.1015184298157692,-0.9894746541976929,0.02371041476726532,-0.034807004034519196,0.02740800380706787,-0.10208482178431638,-0.04621585752749284,-0.05591738637541082,0.9921270682658907,-0.10169361843563472,0.10384268962567457,-2.931235172801525
1772660019524574208,0.24543237686157227,-0.05909496173262596,-0.1434089094400406,-0.0709196925163269,0.10167437046766281,0.10217941552400589,-0.9895563125610352,0.023188292980194092,-0.03942001610994339,0.020989418029785156,-0.10181889995877044,-0.045474947923194314,-0.05615937118010613,0.9921748910790851,-0.1023580611918477,0.1023881400280441,-2.9318154800896408
1772660019534612224,0.25547027587890625,-0.05697828158736229,-0.1515296846628189,-0.08093584328889847,0.10014331340789795,0.10279931128025055,-0.9896482229232788,0.02261364459991455,-0.04046715795993805,0.01952493190765381,-0.10149604349990121,-0.04469714499373397,-0.056374205707207775,0.9922310827433584,-0.10298123675140798,0.10084753773170312,-2.932518556961571
1772660019544649216,0.26550722122192383,-0.047505639493465424,-0.15516848862171173,-0.08755818754434586,0.0985434278845787,0.10338035970926285,-0.9897482991218567,0.021405912935733795,-0.03953758627176285,0.02102881669998169,-0.10113308075042875,-0.04388938082739145,-0.05656476759310439,0.9922934625616956,-0.1035653991556505,0.09923708092486558,-2.933309464642555
1772660019554687232,0.2755453586578369,-0.03691771253943443,-0.15119612216949463,-0.09482035785913467,0.09692878276109695,0.1038576290011406,-0.9898577928543091,0.017466358840465546,-0.037939660251140594,0.016713261604309082,-0.10074401753787372,-0.04308110281400093,-0.05670215002228146,0.9923605894364341,-0.10404525186153274,0.09761073566942813,-2.9341601810951996
1772660019564724224,0.2855823040008545,-0.02858605422079563,-0.14334872364997864,-0.09587138146162033,0.09536971896886826,0.10425343364477158,-0.9899675846099854,0.012647256255149841,-0.035894058644771576,0.011772394180297852,-0.10031537262424807,-0.042307072958006633,-0.056800650556906605,0.9924316779093415,-0.10444321120923006,0.09603982669489164,-2.9350924418937288
1772660019574761216,0.29561924934387207,-0.022874105721712112,-0.13420049846172333,-0.1053658127784729,0.09390029311180115,0.10457583516836166,-0.9900740385055542,0.0053123533725738525,-0.03385134041309357,0.004905581474304199,-0.09985908119142248,-0.041583186736864244,-0.056866619111229005,0.9925044875068971,-0.10476738456303464,0.09455884881423707,-2.936079536171964
1772660019584799232,0.30565738677978516,-0.021038655191659927,-0.13048724830150604,-0.10787797719240189,0.0924711674451828,0.10486152768135071,-0.9901783466339111,0.0016145333647727966,-0.03535774350166321,0.0018513202667236328,-0.0993706320214685,-0.04088319548581649,-0.05691567482607418,0.9925798331292898,-0.10505465643824077,0.09311831247952197,-2.937131342846587
1772660019594836224,0.31569433212280273,-0.02045462466776371,-0.12479980289936066,-0.10500841587781906,0.09109753370285034,0.10512662678956985,-0.9902775287628174,0.0009739920496940613,-0.03685881197452545,0.0015996098518371582,-0.09888750647034086,-0.04021174421161992,-0.05695822618553143,0.9926530044861432,-0.10532123624747423,0.09173373336198495,-2.938170400602851
1772660019604874240,0.3257322311401367,-0.010379930958151817,-0.12184036523103714,-0.10685519129037857,0.08977547287940979,0.1053495928645134,-0.9903745651245117,0.003348909318447113,-0.034228384494781494,0.0015440583229064941,-0.09839709525168573,-0.03956861604533456,-0.056982711465946724,0.9927262405389112,-0.10554544287553226,0.09040092788895472,-2.9392235592284432
1772660019614910976,0.3357691764831543,0.006383336149156094,-0.11528685688972473,-0.11113515496253967,0.08849966526031494,0.10544026643037796,-0.9904797673225403,0.004365324974060059,-0.03088582307100296,0.006562530994415283,-0.09789231346537845,-0.03895588705634927,-0.05694345704095879,0.9928026196084151,-0.10563662143050949,0.08911366013655442,-2.940309755027606
1772660019624949248,0.3458073139190674,0.02244255319237709,-0.10724783688783646,-0.11355117708444595,0.08727718144655228,0.10538192093372345,-0.9905944466590881,0.0025970861315727234,-0.02406783401966095,0.008416712284088135,-0.09735368232474634,-0.038378903617670254,-0.05683167523817417,0.9928844817217288,-0.10557795339648783,0.08787894412932619,-2.9414684523341315
1772660019634986240,0.35584425926208496,0.030821656808257103,-0.10056570172309875,-0.11757973581552505,0.08612033724784851,0.10517722368240356,-0.9907174110412598,0.005783349275588989,-0.011946022510528564,0.009378910064697266,-0.0967924085802823,-0.037842928873757696,-0.05664975341403191,0.9929702307920972,-0.10537210877831076,0.0867092800507488,-2.9426758555832513
1772660019645024256,0.36588239669799805,0.028242960572242737,-0.09931974112987518,-0.11782408505678177,0.08502449095249176,0.10496459901332855,-0.990834653377533,0.01049552857875824,-0.008956298232078552,0.010121762752532959,-0.0962338729610914,-0.037337486874287985,-0.05646764965558898,0.9930540945730117,-0.10515830379895376,0.08560128074012564,-2.9438742739433175
1772660019655061248,0.3759193420410156,0.01845637708902359,-0.10468388348817825,-0.11531990766525269,0.08389034122228622,0.10480344295501709,-0.9909483790397644,0.014422036707401276,-0.01250302791595459,0.013409316539764404,-0.09567212823801814,-0.03681051338543376,-0.056309916176006516,0.9931369834484449,-0.10499625078761296,0.0844552526213452,-2.9450783715770594
1772660019665098240,0.3859562873840332,0.01261304784566164,-0.10452089458703995,-0.1125670000910759,0.08273264020681381,0.10471448302268982,-0.9910550713539124,0.01499989628791809,-0.012383557856082916,0.013271927833557129,-0.09512885437464384,-0.03626721208014211,-0.05618848312265121,0.9932159934588336,-0.10490680184126984,0.08328624750630398,-2.9462427816354695
1772660019675136000,0.3959941864013672,0.0035652238875627518,-0.10664822906255722,-0.10976455360651016,0.08156288415193558,0.10470549017190933,-0.9911530017852783,0.012339703738689423,-0.010528244078159332,0.01050114631652832,-0.09460880607997257,-0.03571275504576692,-0.05610795180631816,0.9932903359802309,-0.10489775900114864,0.08210590851020316,-2.9473571044357127
1772660019685173248,0.40603137016296387,-0.0070747267454862595,-0.10220421105623245,-0.10115855187177658,0.08042637258768082,0.10478322207927704,-0.9912376403808594,0.007387958467006683,-0.008195087313652039,0.009304046630859375,-0.09411902382482211,-0.03516912958343261,-0.056074124627124404,0.9933582431345347,-0.10497591813161872,0.08095997743993436,-2.9484044172628923
1772660019695211264,0.41606926918029785,-0.0023265762720257044,-0.09829069674015045,-0.09391395002603531,0.07932661473751068,0.10490142554044724,-0.9913137555122375,0.0013618618249893188,-0.005505681037902832,0.011409580707550049,-0.09365791476289385,-0.034640379465866365,-0.05606390755547356,0.993420937857893,-0.10509478147780604,0.07985154885514449,-2.949389925564446
1772660019705248000,0.42610621452331543,-0.002575492952018976,-0.08870437741279602,-0.08458010852336884,0.07831820100545883,0.10497640073299408,-0.9913859963417053,0.0004781857132911682,-0.0023610442876815796,0.006461679935455322,-0.09323762162515584,-0.034156968867042066,-0.05603836243115431,0.9934785924936316,-0.1051701676664593,0.07883497063734421,-2.95029000231299
1772660019715286272,0.4361443519592285,0.00659536849707365,-0.07949118316173553,-0.07157083600759506,0.07738959789276123,0.10501870512962341,-0.9914544224739075,-0.0026520565152168274,0.00507345050573349,0.0007318258285522461,-0.09286907435931116,-0.0337120066507594,-0.056002475912132414,0.9935303024821585,-0.10521271300791164,0.0778986818754158,-2.951082810358956
1772660019725323264,0.4461812973022461,0.022711310535669327,-0.07064282894134521,-0.06710445135831833,0.07656978815793991,0.10491613298654556,-0.9915289282798767,-0.006791345775127411,0.010226689279079437,-0.004229068756103516,-0.0925391947621039,-0.033325823964814316,-0.055900898308384794,0.9935799361612235,-0.1051095673519816,0.07707099327581238,-2.951798036290091
1772660019735361024,0.4562191963195801,0.03932170942425728,-0.06023785099387169,-0.06072298064827919,0.07584382593631744,0.10464225709438324,-0.9916136860847473,-0.012001052498817444,0.01124824583530426,-0.0075013041496276855,-0.09224422582140217,-0.03299231777529857,-0.05571948671654524,0.9936286827516113,-0.1048341781147109,0.076336632506458,-2.952444958609675
1772660019745398272,0.46625638008117676,0.05829194188117981,-0.05290723592042923,-0.04801437631249428,0.07522883266210556,0.10418923199176788,-0.9917082190513611,-0.019290119409561157,0.01336447149515152,-0.007132053375244141,-0.09198260242813198,-0.032720424661115834,-0.05545498614096883,0.9936766863922878,-0.10437866350971332,0.07571282399771502,-2.9530260023109713
1772660019755436288,0.47629427909851074,0.06958293914794922,-0.03985428810119629,-0.03458458557724953,0.07473189383745193,0.10355514287948608,-0.9918122291564941,-0.022592611610889435,0.01921706646680832,-0.0012145042419433594,-0.09177303489714339,-0.032512687532472814,-0.055107311063697643,0.9937222508837475,-0.10374112708973368,0.07520671965295476,-2.9535031622003025
1772660019765473024,0.4863312244415283,0.07471974194049835,-0.027720656245946884,-0.0317017138004303,0.07437843084335327,0.10284758359193802,-0.9919124245643616,-0.02701514959335327,0.02296113222837448,0.004577219486236572,-0.0916006387059537,-0.032377756031652404,-0.05473095424948587,0.9937633155951426,-0.10302976523718646,0.07484481255377096,-2.9539002600470883
1772660019775510272,0.496368408203125,0.07850968092679977,-0.023533901199698448,-0.01702423393726349,0.07410810142755508,0.1020689308643341,-0.9920130372047424,-0.02538679540157318,0.018521271646022797,0.008782505989074707,-0.09146875476026758,-0.03228521455775623,-0.05432432176980213,0.9938008063529681,-0.10224699569580613,0.07456625533898646,-2.954214001871058
1772660019785548288,0.506406307220459,0.0723366066813469,-0.026201456785202026,-0.003399635199457407,0.07385184615850449,0.10131439566612244,-0.9921095371246338,-0.018431924283504486,0.011234432458877563,0.009962320327758789,-0.09141065411914505,-0.03219451135438719,-0.053932860530598765,0.9938304442627479,-0.10148852572857668,0.07430216950161862,-2.954377193108299
1772660019795585280,0.5164432525634766,0.07225911319255829,-0.02195025235414505,0.011507675051689148,0.07360095530748367,0.10059106349945068,-0.9922017455101013,-0.01459522545337677,0.013056382536888123,0.009352684020996094,-0.09142608634011867,-0.032101076502894794,-0.053559683149347025,0.9938522000576167,-0.10076148289439728,0.07404381208789218,-2.9543905175972776
1772660019805623296,0.5264813899993896,0.07490412145853043,-0.017333529889583588,0.02533094584941864,0.0734315738081932,0.0998324304819107,-0.9922909140586853,-0.012487977743148804,0.0200253427028656,0.006954669952392578,-0.09150937821100051,-0.03204632720802801,-0.05317487623501035,0.9938670176790806,-0.09999901077600318,0.07386741820643047,-2.954264205527755
1772660019815660288,0.5365183353424072,0.08951155841350555,-0.01373213715851307,0.036603040993213654,0.07332708686590195,0.09899342060089111,-0.9923827052116394,-0.015618354082107544,0.02461802214384079,0.0031096935272216797,-0.09165397573786581,-0.03202444173603605,-0.052754910523152565,0.9938767091939389,-0.09915582036141735,0.07375589518152648,-2.9540142066507786
1772660019825698048,0.5465562343597412,0.10385547578334808,-0.005302300676703453,0.04304163157939911,0.07328171283006668,0.09798406064510345,-0.9924862384796143,-0.017877042293548584,0.025657907128334045,0.006982088088989258,-0.09184077875652794,-0.032037710006676566,-0.05225390328522603,0.9938855096963453,-0.09814152820624607,0.07370275624061633,-2.953683225999759
1772660019835735040,0.5565931797027588,0.11570440977811813,-0.008523127995431423,0.04624781385064125,0.07327234745025635,0.09682894498109818,-0.9926002621650696,-0.015197396278381348,0.026996128261089325,0.01274186372756958,-0.09205071715467233,-0.03207458702663267,-0.05168249295969043,0.9938947815240332,-0.09698089344396228,0.07368494017807037,-2.9533098242331945
1772660019845773312,0.5666313171386719,0.11362288147211075,-0.011042477563023567,0.05606209486722946,0.07324345409870148,0.09564399719238281,-0.9927172660827637,-0.006638847291469574,0.028272628784179688,0.019328653812408447,-0.09228899927943825,-0.03210186345178629,-0.05109622837575402,0.9939020428722422,-0.09579041898846292,0.07364733660246836,-2.952881524335604
1772660019855810048,0.5766682624816895,0.11058022081851959,-0.01870013028383255,0.0569598451256752,0.07315663993358612,0.09445520490407944,-0.9928374886512756,-0.0012877434492111206,0.027264155447483063,0.024652063846588135,-0.09256013339119794,-0.0320990155363528,-0.05050641925191153,0.9939071366629733,-0.09459622116909115,0.07355148580551286,-2.952390216888946
1772660019865848320,0.5867063999176025,0.10202765464782715,-0.032275594770908356,0.05576701834797859,0.07296262681484222,0.09333521872758865,-0.9929577112197876,0.0006305128335952759,0.020556382834911346,0.025367379188537598,-0.09283160856560717,-0.0320398021407166,-0.049945982495680497,0.9939120850554805,-0.09347126685591102,0.07334827293876973,-2.9519005828735665
1772660019875885312,0.5967433452606201,0.0909382551908493,-0.03512517735362053,0.05501680448651314,0.07266659289598465,0.09233082085847855,-0.9930732846260071,-0.0018658190965652466,0.01560983806848526,0.026017069816589355,-0.09310560162232334,-0.03192453310146723,-0.04943857205001095,0.99391554177403,-0.09246251678008457,0.07304326460249921,-2.951405892660094
1772660019885922304,0.6067802906036377,0.07746900618076324,-0.04250679537653923,0.05543132498860359,0.07232997566461563,0.09144174307584763,-0.9931801557540894,0.002071879804134369,0.014683134853839874,0.019989848136901855,-0.09337644973433924,-0.03178412344926889,-0.04898674713005638,0.9939169551327043,-0.09156965486585854,0.07269830071178428,-2.9509143989000157
1772660019895960064,0.6168181896209717,0.06363122165203094,-0.054200734943151474,0.052796393632888794,0.07190392911434174,0.09069918841123581,-0.9932791590690613,0.005259759724140167,0.01092434674501419,0.01226109266281128,-0.09365619681695544,-0.031592111298518355,-0.0486041263735378,0.9939154667655233,-0.09082400830506984,0.07226440138338379,-2.950403027126527
1772660019905997312,0.6268553733825684,0.04428127035498619,-0.06207610294222832,0.05440480634570122,0.07136726379394531,0.09009724855422974,-0.9933726191520691,0.007230751216411591,0.0024625584483146667,0.008402585983276367,-0.09393422860877985,-0.03133865757911149,-0.04828632139655652,0.9939128515960195,-0.09021958723282138,0.07172017329677147,-2.9498945392547515
1772660019916035072,0.6368932723999023,0.04089133441448212,-0.06621918082237244,0.05350812152028084,0.07076849788427353,0.08964178711175919,-0.9934566617012024,0.008577205240726471,-0.0011560767889022827,0.004626154899597168,-0.09421586418640293,-0.031047397019534958,-0.0480387338919832,0.9939073566176176,-0.08976227857106082,0.07111448049137006,-2.9493754975272606
1772660019926072064,0.6469302177429199,0.045758526772260666,-0.0611778162419796,0.05431452766060829,0.07017147541046143,0.08918046951293945,-0.9935405254364014,0.004688136279582977,0.00443219393491745,0.00020867586135864258,-0.09449187210389268,-0.030757715466211737,-0.047787993939215165,0.993902148057988,-0.089299107545424,0.07051060318161588,-2.948867554858719
1772660019936110336,0.656968355178833,0.05847805365920067,-0.05795565992593765,0.0503259114921093,0.06961429119110107,0.08861979842185974,-0.9936298727989197,0.00024043768644332886,0.011889837682247162,-0.006156444549560547,-0.09475912570150827,-0.030493150408186866,-0.04748912696706598,0.9938991947301958,-0.08873620889937923,0.06994629038344753,-2.9483790205643094
1772660019946147328,0.6670053005218506,0.07720154523849487,-0.04340614378452301,0.04644501954317093,0.06916536390781403,0.08789604157209396,-0.9937255382537842,-0.003293171525001526,0.015573807060718536,-0.00990605354309082,-0.09499549831146291,-0.03029192113066007,-0.047112972288442204,0.9939007000085264,-0.08800961188306747,0.06949001060558699,-2.9479535484830546
1772660019956185088,0.6770431995391846,0.08663712441921234,-0.026115836575627327,0.04427161067724228,0.0688525140285492,0.08702446520328522,-0.9938239455223083,-0.007161237299442291,0.015957094728946686,-0.013973236083984375,-0.0952082557979182,-0.030166865325557447,-0.046668811979536345,0.9939050380580152,-0.08713468458551138,0.06916986414178515,-2.947574553661269
1772660019966222336,0.6870803833007812,0.0810558870434761,-0.020608019083738327,0.042730044573545456,0.06867191195487976,0.08612323552370071,-0.9939149618148804,-0.00948306918144226,0.012402758002281189,-0.01720869541168213,-0.09541173504075563,-0.030109823065004572,-0.04621597287784247,0.9939085270060436,-0.08623006078720104,0.06898271203749903,-2.947208984040455
1772660019976259328,0.6971173286437988,0.0682452842593193,-0.017061486840248108,0.045021962374448776,0.06854500621557236,0.08534280955791473,-0.9939910173416138,-0.009630829095840454,0.006057329475879669,-0.015637218952178955,-0.09562636436547683,-0.0300735248429639,-0.04582644440916969,0.9939070596483046,-0.08544674813561474,0.06885038509814767,-2.9468135167555993
1772660019986297088,0.7071552276611328,0.06441707909107208,-0.01084886584430933,0.048372749239206314,0.06847038120031357,0.08463156968355179,-0.9940569996833801,-0.011341467499732971,-0.0006166845560073853,-0.014259040355682373,-0.09585660316496132,-0.030059475454191444,-0.04547451244634842,0.9939014950062985,-0.08473292940065984,0.06877111012347611,-2.946381407797772
1772660019996334080,0.7171921730041504,0.04917341098189354,-0.011406797915697098,0.05200902745127678,0.06838925182819366,0.08400847017765045,-0.99411541223526,-0.011977516114711761,-0.006127618253231049,-0.015741705894470215,-0.09609648494670525,-0.03003771705343197,-0.04516658918333179,0.9938929219746008,-0.08410759757059169,0.06868585485144353,-2.9459266055389657
1772660020006372096,0.7272303104400635,0.05639319494366646,-0.009044441394507885,0.06158988177776337,0.06833495944738388,0.08343742042779922,-0.9941672682762146,-0.01054992526769638,-0.0017113462090492249,-0.0094490647315979,-0.09637987145405548,-0.030025046236171,-0.04488729675533508,0.9938785560049381,-0.08353454022111104,0.06862793738347815,-2.945381031213382
1772660020016409088,0.737267255783081,0.06474460661411285,-0.006680353544652462,0.0750039592385292,0.06832191348075867,0.08277587592601776,-0.9942234754562378,-0.006294935941696167,0.005755618214607239,-0.007088780403137207,-0.0967107682848131,-0.03003531871360639,-0.04456628971816716,0.9938605247614785,-0.08287069524649528,0.0686110088724716,-2.94474140914362
1772660020026447360,0.7473053932189941,0.08269093930721283,0.008751600049436092,0.08315722644329071,0.06838705390691757,0.08198502659797668,-0.9942845106124878,-0.004467986524105072,0.012192219495773315,-0.002099156379699707,-0.09708803774473879,-0.030088967454423205,-0.04418601759841192,0.9938391357864468,-0.08207715273453559,0.06867201448490087,-2.944009980129495
1772660020036484352,0.7573423385620117,0.10246144235134125,0.013960476964712143,0.093951016664505,0.0685751661658287,0.08097780495882034,-0.9943540692329407,-0.006181977689266205,0.014374375343322754,0.002837955951690674,-0.09750755853330924,-0.03021285010017024,-0.043705177867275555,0.9938154824409849,-0.08106656523065055,0.0688555115772427,-2.943196412493686
1772660020046522112,0.7673802375793457,0.12762773036956787,0.025933915749192238,0.096734419465065,0.06884549558162689,0.07975242286920547,-0.9944344162940979,-0.010373808443546295,0.015584491193294525,0.0090675950050354,-0.09796305911017346,-0.030387176542103322,-0.043120766818007215,0.9937910465211486,-0.07983720885728568,0.06912051219450747,-2.9423155936225562
1772660020056559104,0.7774171829223633,0.1522633135318756,0.027611440047621727,0.10603231936693192,0.0691784918308258,0.07828063517808914,-0.9945282936096191,-0.013575471937656403,0.016064457595348358,0.01560068130493164,-0.09844035486490021,-0.0306044088797546,-0.042417399379046344,0.9937673724656818,-0.07836080735745328,0.06944724045520966,-2.941397908495983
1772660020066597120,0.7874553203582764,0.1676277071237564,0.021876854822039604,0.11498027294874191,0.0695195123553276,0.07659311592578888,-0.9946358799934387,-0.015137188136577606,0.011144928634166718,0.02342921495437622,-0.09896041739412899,-0.030835116309243814,-0.041608364032208765,0.9937428005328647,-0.07666819980967143,0.0697809496098418,-2.9404026824561083
1772660020076633856,0.7974920272827148,0.17986227571964264,0.02553204447031021,0.13171397149562836,0.06984613835811615,0.07476428151130676,-0.9947521686553955,-0.01898859441280365,0.006137818098068237,0.03848385810852051,-0.09954140690218259,-0.031063981796871736,-0.040730324634271085,0.9937140247677194,-0.07483411215733299,0.07009956485390487,-2.939291361620642
1772660020086670848,0.8075289726257324,0.19372545182704926,0.0209554024040699,0.1566651314496994,0.07017002254724503,0.07281555980443954,-0.9948738813400269,-0.027262307703495026,0.0034173503518104553,0.051667094230651855,-0.10022244000262125,-0.031294473307166754,-0.03979585106461359,0.9936761943201757,-0.07288006271089781,0.07041496329678339,-2.9379838818281927
1772660020096708864,0.8175668716430664,0.207248717546463,0.021764203906059265,0.18263201415538788,0.07049869745969772,0.07068201154470444,-0.9950045347213745,-0.04220890253782272,-0.00035425275564193726,0.06736171245574951,-0.10103260509416136,-0.03153287226602429,-0.038773958529287875,0.9936270756066271,-0.07074100022565494,0.07073443608030791,-2.9364239895825546
1772660020106745600,0.827603816986084,0.23291194438934326,0.017720326781272888,0.21370911598205566,0.07083326578140259,0.06834203749895096,-0.9951441884040833,-0.06787306815385818,-0.004010990262031555,0.08959615230560303,-0.1019912046576832,-0.03178071831018826,-0.037654712842514156,0.9935641857314786,-0.06839535296091852,0.07105905167639694,-2.9345734971877193
1772660020116783872,0.8376419544219971,0.29205650091171265,0.017597822472453117,0.24776801466941833,0.07114150375127792,0.06557460874319077,-0.9953083992004395,-0.09163406491279602,-0.0029983222484588623,0.11316734552383423,-0.1030948298143665,-0.03203418954533811,-0.03632628866782109,0.9934916259375941,-0.06562169517337113,0.07135549048835288,-2.93244933647245
1772660020126820864,0.8476788997650146,0.3724181354045868,0.014169667847454548,0.29404881596565247,0.0714818611741066,0.0620666965842247,-0.9955089688301086,-0.1066381111741066,0.003530837595462799,0.12926751375198364,-0.10438280353882137,-0.03233858221731443,-0.034637279955745205,0.9934076829986651,-0.06210661520452708,0.07168131763160558,-2.929982411868089
1772660020136858624,0.8577167987823486,0.4744771122932434,0.015336665324866772,0.3453037440776825,0.07182469964027405,0.05758357048034668,-0.9957536458969116,-0.11361852288246155,0.01770329475402832,0.13981187343597412,-0.10591447070030412,-0.03269193709572653,-0.032471666424716494,0.993307034983022,-0.05761544179593406,0.07200628669029054,-2.9270633100627053
1772660020146895872,0.8677539825439453,0.5711269378662109,0.021731315180659294,0.40502822399139404,0.07222119718790054,0.05208984762430191,-0.9960274696350098,-0.11956921964883804,0.03010924905538559,0.14889001846313477,-0.10769427810309203,-0.033125397907526555,-0.029815546776496282,0.9931845511012415,-0.05211343441496927,0.07238256345922953,-2.9236827331811024
1772660020156933888,0.8777918815612793,0.6648624539375305,0.012243537232279778,0.46681249141693115,0.07262488454580307,0.045582860708236694,-0.9963171482086182,-0.12708351016044617,0.029932890087366104,0.15828919410705566,-0.10976754563652354,-0.03361951415914042,-0.026667622293294748,0.9930304825943717,-0.04559866066248806,0.07276464542201441,-2.919750611324752
1772660020166970624,0.8878288269042969,0.7587575912475586,-0.007388221099972725,0.5283547043800354,0.07287479937076569,0.0380881242454052,-0.9966135621070862,-0.13207890093326569,0.013776499778032303,0.16655069589614868,-0.11212595464134327,-0.034098973428132534,-0.023032316879271226,0.9928416162021627,-0.03809734065945532,0.07299251731001435,-2.9152856519596613
1772660020177008896,0.89786696434021,0.8281031250953674,-0.02444550208747387,0.5880587697029114,0.07291269302368164,0.029738422483205795,-0.9968948364257812,-0.13857126235961914,0.0004587192088365555,0.17751318216323853,-0.11476386524622924,-0.034534140198873305,-0.01897267069097057,0.9926110498172985,-0.029742807379191216,0.07300979979083606,-2.910292180204388
1772660020187045888,0.9079039096832275,0.9044851660728455,-0.03987252712249756,0.6509749889373779,0.0727558359503746,0.020624445751309395,-0.9971365332603455,-0.1457233726978302,0.005284979939460754,0.18494170904159546,-0.11770097305307621,-0.03493508547711347,-0.014535635373507874,0.9923279027160418,-0.02062590846337836,0.07283569829675773,-2.904722351294723
1772660020197082880,0.9179408550262451,0.9868780374526978,-0.052603237330913544,0.7157513499259949,0.07239721715450287,0.010650555603206158,-0.9973189830780029,-0.15061378479003906,0.018829423934221268,0.1797683835029602,-0.12093946400718622,-0.035311757407326526,-0.009673400606670308,0.991984418149577,-0.010650756683394375,0.07246472826506611,-2.898570594957146
1772660020207120896,0.9279789924621582,1.0731514692306519,-0.06294696033000946,0.782032310962677,0.07185439020395279,-0.000183771742740646,-0.9974151253700256,-0.1591346561908722,0.025238703936338425,0.18206173181533813,-0.12449252434165384,-0.03568185272169038,-0.004387226673252313,0.9915690186497221,0.00018377174407372212,0.07191636989674266,-2.891804206194651
1772660020217157888,0.9380159378051758,1.163938045501709,-0.07866626232862473,0.8488994836807251,0.07109764218330383,-0.011980419978499413,-0.9973974227905273,-0.16242149472236633,0.027071360498666763,0.18746089935302734,-0.12834413365165517,-0.03604720616519069,0.0013760460664235027,0.9910734213446375,0.011980706868694067,0.07116279177376167,-2.884452324801203
1772660020227195648,0.9480538368225098,1.2380048036575317,-0.10628204047679901,0.9222290515899658,0.07000578194856644,-0.024644607678055763,-0.9972420930862427,-0.15150296688079834,0.028032060712575912,0.18902981281280518,-0.13252533153249493,-0.03635294323579798,0.007576719807521343,0.9904837216992091,0.024647102335199834,0.07008441099240381,-2.876439435428951
1772660020237232896,0.9580910205841064,1.309273362159729,-0.14477963745594025,1.0002391338348389,0.06841828674077988,-0.03806605935096741,-0.9969302415847778,-0.14050081372261047,0.033961448818445206,0.19405853748321533,-0.13706365835125653,-0.03652457386256403,0.014171571299054797,0.9897871120388577,0.038075259796695515,0.06852152179947532,-2.867692153952226
1772660020247270912,0.9681289196014404,1.3638691902160645,-0.17559467256069183,1.0662332773208618,0.06634807586669922,-0.052137844264507294,-0.996433436870575,-0.14053630828857422,0.034758083522319794,0.19589632749557495,-0.1419390642864055,-0.0365736875449223,0.021110446250927825,0.9889741974869874,0.05216149372176837,0.06648741029640075,-2.8582315764079613
1772660020257307648,0.978165864944458,1.4230819940567017,-0.214361771941185,1.1162729263305664,0.06374195963144302,-0.06677427142858505,-0.9957299828529358,-0.15488269925117493,0.028306864202022552,0.1934228539466858,-0.1470687057128999,-0.036478090319559335,0.02836136755531945,0.9880464949232252,0.06682399272122413,0.06392807735495122,-2.8482040313977155
1772660020267345920,0.9882040023803711,1.482967734336853,-0.249309241771698,1.167077660560608,0.06057668849825859,-0.08201785385608673,-0.9947881698608398,-0.1703941971063614,0.02372927963733673,0.18964290618896484,-0.15242804648694142,-0.036239803679069676,0.035952513993424876,0.9869953075596882,0.08211008434208512,0.060818958074578655,-2.8376398976595585
1772660020277382912,0.9982409477233887,1.5469480752944946,-0.2898057997226715,1.22018301486969,0.05679791048169136,-0.09782785922288895,-0.993581235408783,-0.17590802907943726,0.017169907689094543,0.18874120712280273,-0.15800830418687115,-0.03583984354705615,0.04387344404451391,0.9858113320816224,0.09798457847599536,0.05710269115633799,-2.8265318428984747
1772660020287420672,1.0082788467407227,1.6243302822113037,-0.33493825793266296,1.2668339014053345,0.05237019062042236,-0.11431831866502762,-0.9920628666877747,-0.17767536640167236,0.013030476868152618,0.18842822313308716,-0.1638044881556943,-0.035281627927805544,0.05218989287808531,0.9844793462164955,0.1145687953084045,0.05274023262312322,-2.8148649146573534
1772660020297457920,1.0183160305023193,1.7048118114471436,-0.382902055978775,1.3101792335510254,0.04720383137464523,-0.13152223825454712,-0.990188717842102,-0.17931443452835083,0.01390749216079712,0.18627941608428955,-0.169766579699816,-0.034533950229529695,0.06093477426788225,0.9829922241568207,0.13190440295166198,0.04763548838801972,-2.8027056515077855
1772660020307494912,1.028352975845337,1.7903995513916016,-0.43211275339126587,1.350671648979187,0.04128386080265045,-0.14945587515830994,-0.9879061579704285,-0.17685820162296295,0.019115298986434937,0.18733853101730347,-0.17589530309941254,-0.03360409549659896,0.07012619728262297,0.9813327315617928,0.15001793958495668,0.0417649519845735,-2.7900159425577913
1772660020317532672,1.038390874862671,1.8825103044509888,-0.4890173077583313,1.3927338123321533,0.034534599632024765,-0.16815350949764252,-0.9851557016372681,-0.17651763558387756,0.021852239966392517,0.18203985691070557,-0.182161246427309,-0.03246961778050424,0.0797989475419547,0.9794872025883007,0.1689562042364051,0.035040616439271484,-2.77680932740653
1772660020327569664,1.0484278202056885,1.9780070781707764,-0.542465329170227,1.439001441001892,0.026903243735432625,-0.1876348853111267,-0.9818703532218933,-0.17579850554466248,0.03077453374862671,0.1625954508781433,-0.1885833119529604,-0.031122555094251565,0.08997897031463668,0.9774311396093892,0.1887537074136356,0.027393143229284142,-2.762994338307128
1772660020337607936,1.0584659576416016,2.066803216934204,-0.5848152041435242,1.4927291870117188,0.01843934878706932,-0.20787282288074493,-0.9779820442199707,-0.17381960153579712,0.045275166630744934,0.1489262580871582,-0.19518096602096233,-0.0296027700457456,0.10066109080881167,0.9751386017031551,0.20939977649123281,0.018852253270608788,-2.74848041124874
1772660020347644928,1.0685029029846191,2.1479125022888184,-0.6262058019638062,1.5433748960494995,0.009177403524518013,-0.2287403792142868,-0.9734442234039307,-0.17145462334156036,0.054973289370536804,0.13897156715393066,-0.2019688218995129,-0.027933026884226737,0.11179286153260705,0.9725897028832162,0.23078355333979755,0.009427486059401285,-2.733183763247705
1772660020357682688,1.0785408020019531,2.206352472305298,-0.6655630469322205,1.5926737785339355,-0.0008873625774867833,-0.2500458359718323,-0.968233585357666,-0.16375496983528137,0.056060850620269775,0.12773370742797852,-0.20893814258250598,-0.02610643601427853,0.12329498785025213,0.9697740606296908,0.2527275807534586,-0.0009164754555843654,-2.7170631471733517
1772660020367719936,1.0885779857635498,2.252474069595337,-0.708854079246521,1.649475336074829,-0.01178670022636652,-0.2715405821800232,-0.962354838848114,-0.15517497062683105,0.04513067007064819,0.11657541990280151,-0.21608041824822274,-0.024093771904198886,0.13506325251735524,0.9666885689652644,0.27499340443480025,-0.012247157611207354,-2.700075235306882
1772660020377757696,1.0986158847808838,2.281729221343994,-0.7557653784751892,1.7030600309371948,-0.023618508130311966,-0.29309189319610596,-0.9557924866676331,-0.14657802879810333,0.03151047229766846,0.10255151987075806,-0.223413380087719,-0.021847150787266602,0.14705933282140612,0.9633186710291252,0.29745915532293954,-0.024705888422767844,-2.682107380659826
1772660020387794688,1.1086528301239014,2.2493338584899902,-0.7839802503585815,1.7597543001174927,-0.036253422498703,-0.31424570083618164,-0.9486492276191711,-0.1373763382434845,0.02652597427368164,0.08997613191604614,-0.23093402727209592,-0.019386851496250693,0.1590582899228317,0.9596844414392621,0.31966199846611637,-0.03819724858155833,-2.663143033848004
1772660020397832960,1.1186909675598145,2.195277690887451,-0.8080053925514221,1.8250350952148438,-0.04966292530298233,-0.33456259965896606,-0.9410640001296997,-0.12971940636634827,0.034437477588653564,0.07413589954376221,-0.2386899923636012,-0.016686094851871808,0.1708495566295026,0.9558028850482754,0.341141051016276,-0.05272425278516424,-2.643065382708912
1772660020407869696,1.128727912902832,2.148059368133545,-0.8220310807228088,1.8714966773986816,-0.06371430307626724,-0.3539424240589142,-0.9330944418907166,-0.12795135378837585,0.031447917222976685,0.04321712255477905,-0.24664519850917968,-0.013792367690574766,0.18238022275450633,0.9516897503015673,0.3617830463697861,-0.06817697303779494,-2.621946477331919
1772660020417906688,1.1387648582458496,2.075143337249756,-0.8223128318786621,1.908835530281067,-0.07828304171562195,-0.37230974435806274,-0.9248011708259583,-0.13222721219062805,0.009882986545562744,0.009548485279083252,-0.254745575690854,-0.01074472303332205,0.1936077619086092,0.9473675226343274,0.3814964489852645,-0.08444719235446389,-2.5999073531048045
1772660020427944960,1.1488029956817627,1.9759392738342285,-0.8168475031852722,1.9382436275482178,-0.09322161227464676,-0.38939306139945984,-0.9163420796394348,-0.13845258951187134,-0.01732996106147766,-0.016397178173065186,-0.2629486116349882,-0.007562977384595789,0.20438142863809441,0.9428834186551117,0.3999725609181107,-0.10138353534206788,-2.577091491021366
1772660020437981952,1.1588399410247803,1.8615522384643555,-0.8060683608055115,1.9657937288284302,-0.10843262076377869,-0.40500789880752563,-0.9078606367111206,-0.1369287073612213,-0.042196691036224365,-0.042227864265441895,-0.2712544273531632,-0.004256631195143314,0.21459625087296097,0.938270447296984,0.4169874717387883,-0.11887439172616877,-2.553559373011256
1772660020448019712,1.1688778400421143,1.7471834421157837,-0.7996494770050049,1.972108006477356,-0.12387904524803162,-0.41907796263694763,-0.8994596600532532,-0.1293252855539322,-0.06772315502166748,-0.06817644834518433,-0.2796020532925383,-0.000803035969701623,0.22420869730397278,0.9335697085171868,0.43242956071666,-0.13686503540529305,-2.5294937179088044
1772660020458056960,1.178915023803711,1.6375666856765747,-0.7947564721107483,1.9628918170928955,-0.1394304633140564,-0.43167561292648315,-0.8911876082420349,-0.1202741265296936,-0.09102946519851685,-0.09565931558609009,-0.28789459930545397,0.00276494309630124,0.23323499070499445,0.9288221199625498,0.4463495572071747,-0.15519653774792877,-2.505170539276481
1772660020468094720,1.188952922821045,1.5480074882507324,-0.7826915383338928,1.9436947107315063,-0.15505099296569824,-0.44295188784599304,-0.8830361366271973,-0.10897183418273926,-0.10868385434150696,-0.12279272079467773,-0.29608400941653085,0.006437765491841444,0.24174468239414368,0.924041297517312,0.45888853407753466,-0.17381662529432437,-2.480726554450012
1772660020478131712,1.1989898681640625,1.453133463859558,-0.7524598836898804,1.9163570404052734,-0.17049601674079895,-0.45303061604499817,-0.8750396370887756,-0.09802816808223724,-0.12001320719718933,-0.14290469884872437,-0.3041300314718658,0.010105731490282986,0.24975597756410117,0.919252339466758,0.47016189564998667,-0.1924327623512995,-2.456350035982858
1772660020488169984,1.2090280055999756,1.3661444187164307,-0.7201830148696899,1.8726201057434082,-0.18565453588962555,-0.4619522988796234,-0.867255687713623,-0.08407507836818695,-0.1298598051071167,-0.15039867162704468,-0.31200205694749306,0.013735769116714999,0.2572614867311929,0.9144848848908121,0.48019519726280846,-0.2108882954676033,-2.432194375768955
1772660020498206976,1.2190649509429932,1.2943540811538696,-0.6895793080329895,1.8155931234359741,-0.20038029551506042,-0.4698958992958069,-0.8596776127815247,-0.06574824452400208,-0.14662021398544312,-0.16646069288253784,-0.31963386037272146,0.017263423874856857,0.26431643542763267,0.9097653197424533,0.48917284718213977,-0.2289989935109747,-2.408472829222109
1772660020508244736,1.2291028499603271,1.2216095924377441,-0.6595713496208191,1.7457481622695923,-0.214641273021698,-0.4769994616508484,-0.8522914052009583,-0.045200660824775696,-0.1651514172554016,-0.18857163190841675,-0.32695546949225474,0.020687327674001,0.2709729264056209,0.905122050713132,0.49723759249192656,-0.2467099013393814,-2.3853767489551743
1772660020518281984,1.2391400337219238,1.1524484157562256,-0.6297548413276672,1.6723780632019043,-0.22839303314685822,-0.48331597447395325,-0.84512859582901,-0.023575350642204285,-0.18430182337760925,-0.20223468542099,-0.33394280646325725,0.024001896219097152,0.2772356700240788,0.9005812302033755,0.5044385077114395,-0.2639415579392895,-2.363021048454176
1772660020528318976,1.2491769790649414,1.0854820013046265,-0.6021254658699036,1.602421760559082,-0.24159984290599823,-0.48890385031700134,-0.8382138609886169,0.00011424720287322998,-0.19703975319862366,-0.21069049835205078,-0.3406063149686189,0.027193372748600904,0.2831140689700412,0.8961552559615978,0.510832747022391,-0.2806255654574405,-2.3414392292052923
1772660020538356736,1.2592148780822754,1.0281758308410645,-0.5736991763114929,1.5159577131271362,-0.25422632694244385,-0.4938804805278778,-0.8315353393554688,0.024245858192443848,-0.2045600712299347,-0.21805572509765625,-0.3469135827472501,0.030248424568243816,0.2886474631160214,0.8918624559176731,0.5165468735501263,-0.2967064682832796,-2.3207366112195906
1772660020548393728,1.269251823425293,0.9608515501022339,-0.5427596569061279,1.4294040203094482,-0.2662135660648346,-0.49829062819480896,-0.8251283764839172,0.049386173486709595,-0.20260658860206604,-0.22484415769577026,-0.3528304085711893,0.033156705260641454,0.29383064102601547,0.8877358852675898,0.5216260765486546,-0.31208945510026065,-2.301053161338485
1772660020558431744,1.279289960861206,0.9066937565803528,-0.5081343054771423,1.349042534828186,-0.2775258719921112,-0.5021887421607971,-0.8190151453018188,0.0760183334350586,-0.1968163251876831,-0.22579985857009888,-0.3583865700705883,0.03589526485777529,0.2986703125747895,0.8837797211856528,0.5261279981890491,-0.32671014585238256,-2.2823705880729315
1772660020568468736,1.2893269062042236,0.8594048619270325,-0.4743052124977112,1.2576910257339478,-0.2881537079811096,-0.5057314038276672,-0.8131440281867981,0.10097414255142212,-0.19441813230514526,-0.2252470850944519,-0.3635746434446374,0.0384424886730369,0.30323286272416383,0.8799917421691066,0.5302295695101354,-0.34056244679361963,-2.2646978940888016
1772660020578506752,1.2993648052215576,0.8091704249382019,-0.43749794363975525,1.1716551780700684,-0.29805395007133484,-0.5089626908302307,-0.8075399398803711,0.12649941444396973,-0.195947527885437,-0.22311490774154663,-0.36839862042790184,0.04077871224752655,0.3075176724501141,0.8763859893223568,0.5339793217604512,-0.3535782077642376,-2.248069422087066
1772660020588544000,1.3094019889831543,0.7626522779464722,-0.40899530053138733,1.086472749710083,-0.307250440120697,-0.5118613243103027,-0.8022438287734985,0.15193119645118713,-0.19549036026000977,-0.21695172786712646,-0.37286334986313313,0.04292941926493814,0.3115046668597896,0.8729803738669659,0.5373500534005309,-0.36575612383438466,-2.232516034092679
1772660020598581760,1.3194398880004883,0.7129156589508057,-0.3908013701438904,1.017132043838501,-0.31587398052215576,-0.5144842267036438,-0.7972011566162109,0.18025386333465576,-0.1930810809135437,-0.21575355529785156,-0.37698785619968295,0.044947626725604796,0.3152445822883636,0.8697590281088878,0.5404060526416645,-0.3772510345544309,-2.217949904809196
1772660020608618752,1.3294768333435059,0.6548488736152649,-0.3593045771121979,0.940944492816925,-0.32394659519195557,-0.5167940258979797,-0.7924534678459167,0.20236456394195557,-0.19098490476608276,-0.21407723426818848,-0.38080856165645227,0.0468480216838461,0.31871384596312435,0.866724625875175,0.5431018787466653,-0.3880604092690261,-2.204328194937092
1772660020618656000,1.3395140171051025,0.6066275238990784,-0.32534313201904297,0.8742632269859314,-0.33139872550964355,-0.5188082456588745,-0.7880436778068542,0.21816325187683105,-0.185949444770813,-0.21279555559158325,-0.3843534270006986,0.04859169927514248,0.32189594502034036,0.8638832681300516,0.545456345128186,-0.39808136214002365,-2.191643674447682
1772660020628693760,1.3495519161224365,0.5400448441505432,-0.28226903080940247,0.8029710650444031,-0.3381847143173218,-0.5205333232879639,-0.7840128540992737,0.23021352291107178,-0.18239331245422363,-0.21087545156478882,-0.3876320027981095,0.05015965802852518,0.32477312924277196,0.8612478090799692,0.5474754380700602,-0.40723766132848155,-2.179924538005787
1772660020638730752,1.359588861465454,0.46510079503059387,-0.24469611048698425,0.7341331243515015,-0.34428176283836365,-0.5218625068664551,-0.7804675102233887,0.24011003971099854,-0.18426847457885742,-0.20644044876098633,-0.39064749303057605,0.05157246791522745,0.327271328664284,0.8588528173464025,0.5490328842388192,-0.41544690163466297,-2.1692618915460296
1772660020648769024,1.3696269989013672,0.37926191091537476,-0.21200621128082275,0.6630942225456238,-0.3497287631034851,-0.5227434039115906,-0.777450442314148,0.2539950907230377,-0.18807202577590942,-0.20129406452178955,-0.39338468336119137,0.05287421830763841,0.32936166644737935,0.8567226766599958,0.5500658912262826,-0.42272135063167926,-2.159733078463315
1772660020658805760,1.3796639442443848,0.288717120885849,-0.18891660869121552,0.5978078842163086,-0.3546229600906372,-0.5231086611747742,-0.774983823299408,0.2657710015773773,-0.19262009859085083,-0.19411706924438477,-0.39585390625940303,0.054129859611762726,0.33102573612802927,0.85486354513474,0.5504943797395283,-0.429145781877057,-2.151331144372901
1772660020668843776,1.3897018432617188,0.20166805386543274,-0.15463052690029144,0.5302554965019226,-0.3589400053024292,-0.5229821801185608,-0.7730793952941895,0.2736891508102417,-0.1963323950767517,-0.18631696701049805,-0.3980512078159733,0.05532993000576449,0.33226332021459337,0.8532848069400524,0.5503460281909899,-0.43468117759590824,-2.1440896604797905
1772660020678881024,1.3997390270233154,0.1332242786884308,-0.11312197893857956,0.4554736614227295,-0.36257243156433105,-0.5224844217300415,-0.7717196941375732,0.27399516105651855,-0.193412184715271,-0.17946743965148926,-0.39998558551824526,0.05639637009696439,0.3331059790951683,0.8519809261215776,0.5497621144795046,-0.43921672298181713,-2.137995112156547
1772660020688918784,1.4097769260406494,0.08075761795043945,-0.06092321500182152,0.37418919801712036,-0.3654329478740692,-0.5217717289924622,-0.7708521485328674,0.2715913951396942,-0.18878430128097534,-0.1779240369796753,-0.40164447475024795,0.05725871391834734,0.33360958199491486,0.8509452867752498,0.5489264622909678,-0.44268404079068335,-2.133047217529504
1772660020698955776,1.419813871383667,0.04395512491464615,-0.016516072675585747,0.29911813139915466,-0.3674982786178589,-0.5210002660751343,-0.7703918814659119,0.2685603201389313,-0.18464237451553345,-0.18029165267944336,-0.4030373100216436,0.05786657668896109,0.33384953181573335,0.8501510239041148,0.5480224097737549,-0.4451014758036589,-2.129156180766953
1772660020708993792,1.42985200881958,0.027867412194609642,0.03438412770628929,0.22532755136489868,-0.3688061535358429,-0.5203012228012085,-0.7702393531799316,0.2667706310749054,-0.176949143409729,-0.17888784408569336,-0.4041825119352987,0.058199572436890314,0.3339058664941627,0.8495623916452578,0.5472036532647341,-0.4465606516141083,-2.1261908488514063
1772660020719030784,1.4398889541625977,0.017430750653147697,0.08953339606523514,0.14784635603427887,-0.36929312348365784,-0.5197636485099792,-0.7703689932823181,0.26741018891334534,-0.16332656145095825,-0.1796736717224121,-0.40508617131100816,0.05820458580962484,0.3338079041719848,0.8491701045095533,0.5465742598430593,-0.4470092179046643,-2.124119896389285
1772660020729067776,1.4499258995056152,0.024563271552324295,0.14709828794002533,0.06795110553503036,-0.36894309520721436,-0.5195130109786987,-0.7707056403160095,0.26251304149627686,-0.1517210602760315,-0.1780552864074707,-0.4057521030248736,0.057841996279191295,0.3336187575942957,0.8489511232287835,0.5462809201841154,-0.44646950471825575,-2.122871641020092
1772660020739105792,1.4599637985229492,0.034547995775938034,0.19660964608192444,0.0018887370824813843,-0.36778220534324646,-0.5196006298065186,-0.7712013125419617,0.25743067264556885,-0.14682692289352417,-0.17789536714553833,-0.40619777455522993,0.057104626739692604,0.33337429116822115,0.848883981719257,0.546383481499909,-0.4449935176773537,-2.122363653545586
1772660020749142784,1.470000982284546,0.03663023188710213,0.2591089606285095,-0.05832826346158981,-0.36584746837615967,-0.5199881196022034,-0.7718600630760193,0.25384795665740967,-0.14125150442123413,-0.1772518754005432,-0.40646763603014946,0.05600183294040574,0.3330672078735189,0.8489487801040622,0.5468370592395789,-0.44261707578317727,-2.1224931015642654
1772660020759180800,1.4800388813018799,0.03954213485121727,0.3092091679573059,-0.1209716722369194,-0.36317387223243713,-0.5206190347671509,-0.7726969122886658,0.24775639176368713,-0.14055949449539185,-0.18402916193008423,-0.4065746793356567,0.0545588883542378,0.3326783201895837,0.849143981661825,0.5475758662954244,-0.4393675768834475,-2.1232432126721745
1772660020769217792,1.4900758266448975,0.032907310873270035,0.3559148907661438,-0.15711688995361328,-0.3598478436470032,-0.5214206576347351,-0.7737118601799011,0.23493939638137817,-0.1446560025215149,-0.18867522478103638,-0.4065410079415713,0.05282541817354329,0.3321950314566244,0.8494588779547251,0.5485149832518489,-0.43533399897006625,-2.1245574287624014
1772660020779255808,1.5001139640808105,0.027717342600226402,0.4078678488731384,-0.18796375393867493,-0.35596001148223877,-0.5222609043121338,-0.7749426364898682,0.22389522194862366,-0.1465165615081787,-0.18773436546325684,-0.40644956721548914,0.050843989463309716,0.3315774142526959,0.8498647732045446,0.5494999900913016,-0.4305916149980757,-2.1262664319799263
1772660020789292800,1.5101509094238281,0.032497406005859375,0.46665990352630615,-0.23315373063087463,-0.3514387309551239,-0.5232317447662354,-0.7763500213623047,0.2089979350566864,-0.14617133140563965,-0.1861286163330078,-0.40629801655858555,0.048559277707447585,0.3308579330509675,0.8503511306008475,0.5506388510768149,-0.4250809965380845,-2.1283581187480176
1772660020799330816,1.520188808441162,0.027125010266900063,0.5354267358779907,-0.28356045484542847,-0.3461545407772064,-0.5243686437606812,-0.7779552936553955,0.1870969533920288,-0.14300495386123657,-0.18481320142745972,-0.40602771003466803,0.04592502759668216,0.3300200465383616,0.8509518522762834,0.5519735059612224,-0.4186499796062617,-2.1310125444343777
1772660020809367808,1.5302259922027588,0.03875978663563728,0.602763831615448,-0.3114641308784485,-0.3401285707950592,-0.525628924369812,-0.7797607183456421,0.1652933657169342,-0.135076642036438,-0.1803985834121704,-0.4057037584666062,0.04293628850492066,0.3290533409073878,0.8516366126192798,0.5534542269650701,-0.4113154835330698,-2.134086895122218
1772660020819405824,1.5402638912200928,0.06858772039413452,0.6637294292449951,-0.3463155925273895,-0.33342334628105164,-0.5271656513214111,-0.7816171050071716,0.15246933698654175,-0.12847399711608887,-0.18386751413345337,-0.40535319578922224,0.039573315026486526,0.328063090166663,0.8523482233012643,0.5552616335567407,-0.4032093520161333,-2.1374003785100313
1772660020829442816,1.5503008365631104,0.0871385931968689,0.7253286242485046,-0.37096020579338074,-0.32604047656059265,-0.5289754271507263,-0.7835065722465515,0.13889148831367493,-0.1178750991821289,-0.1826493740081787,-0.4049842584398468,0.0358344849486757,0.3270513699267482,0.8530773797521536,0.557392817962662,-0.3943336413676233,-2.140934174643027
1772660020839479808,1.560338020324707,0.12520873546600342,0.7768362760543823,-0.3886297345161438,-0.3181021511554718,-0.5310280919075012,-0.7853789925575256,0.12469702959060669,-0.10123509168624878,-0.16628116369247437,-0.40460550931960665,0.03178064395397482,0.32603755431107456,0.8538055119265805,0.5598133808751262,-0.38483515820576125,-2.1446254001400042
1772660020849517824,1.570375919342041,0.14831601083278656,0.8439972400665283,-0.40728145837783813,-0.309572696685791,-0.533360481262207,-0.7872048020362854,0.11955496668815613,-0.07723522186279297,-0.1496390700340271,-0.40423928973271867,0.027377243351809792,0.325035503610863,0.8545133736095141,0.5625683067581607,-0.37467873126735096,-2.148421297432648
1772660020859554816,1.5804128646850586,0.18874306976795197,0.8969699144363403,-0.42820513248443604,-0.3004343509674072,-0.5359521508216858,-0.7889832258224487,0.10921120643615723,-0.05924743413925171,-0.12987053394317627,-0.4038881501473218,0.022619860437386657,0.32403199813995237,0.8551993584759622,0.5656351242557953,-0.3638343037144444,-2.1523362368479546
1772660020869592832,1.5904510021209717,0.20527677237987518,0.9446327686309814,-0.4608277678489685,-0.2907247245311737,-0.5388677716255188,-0.7906330823898315,0.0946187674999237,-0.0485956072807312,-0.11195480823516846,-0.40350442262804387,0.017527249389300868,0.32307314172192947,0.8558625605362428,0.569092459453289,-0.35236531321366593,-2.1564349440742716
1772660020879629824,1.6004879474639893,0.16384969651699066,0.9906420707702637,-0.4698433578014374,-0.28049367666244507,-0.5416674613952637,-0.7924138307571411,0.08156481385231018,-0.04233217239379883,-0.09111583232879639,-0.4030861603830791,0.012232947434409048,0.3219370009767874,0.8565795702173068,0.572419506644621,-0.3402104957678606,-2.1609154669322974
1772660020889667840,1.6105258464813232,0.1376904994249344,1.0170567035675049,-0.4781786799430847,-0.269900918006897,-0.5441462993621826,-0.7943917512893677,0.07367289066314697,-0.04411053657531738,-0.061656832695007324,-0.40267909601219076,0.006845007306653191,0.3205577517167248,0.8573478682530408,0.575371278751753,-0.3275215275444947,-2.1656856080340217
1772660020899704832,1.62056303024292,0.148125559091568,1.0247598886489868,-0.5060606598854065,-0.25905096530914307,-0.5465704202651978,-0.7963375449180603,0.062319397926330566,-0.054564833641052246,-0.04217875003814697,-0.40220642563739717,0.0013733763583980677,0.3191071229711355,0.8581368624411392,0.578263279224653,-0.31450590226084296,-2.1707418723437386
1772660020909742848,1.630600929260254,0.17536300420761108,1.0390630960464478,-0.5309346914291382,-0.24794532358646393,-0.5491744875907898,-0.798079252243042,0.048863887786865234,-0.047673046588897705,-0.025925874710083008,-0.401616833340444,-0.00422257469465338,0.3177145584028928,0.8589199554648108,0.5813760869147611,-0.30122371326938985,-2.176092900578477
1772660020919779840,1.6406378746032715,0.16646191477775574,1.0550254583358765,-0.535211980342865,-0.2365855872631073,-0.5518785119056702,-0.7996607422828674,0.04406547546386719,-0.006852507591247559,-0.008795619010925293,-0.4009669912740316,-0.009944289415509292,0.3163395993125128,0.8596834853912103,0.5846151918193342,-0.28765197604987025,-2.181646728111668
1772660020929816832,1.650674819946289,0.1351557821035385,1.0703470706939697,-0.5142418742179871,-0.22511689364910126,-0.5542948246002197,-0.8012986779212952,0.04523102939128876,0.03743386268615723,0.014799654483795166,-0.40037271030919297,-0.015669658228414252,0.31480964503863407,0.8604365327121678,0.587515512215883,-0.27388018950280946,-2.1872368680740606
1772660020939854848,1.6607129573822021,0.12913145124912262,1.0657213926315308,-0.5052565932273865,-0.21367263793945312,-0.5564867854118347,-0.8029112219810486,0.045413970947265625,0.05064266920089722,0.036233365535736084,-0.39984753915132276,-0.02135762498442712,0.3131904089200696,0.8611489867127143,0.5901513677548638,-0.2600941533784981,-2.19273584501229
1772660020949891840,1.6707499027252197,0.13721361756324768,1.0524570941925049,-0.516406774520874,-0.20226700603961945,-0.5586231350898743,-0.8043806552886963,0.031109169125556946,0.03492623567581177,0.04330277442932129,-0.39929250430253876,-0.02700854248628674,0.31157697091131864,0.8618328187712799,0.5927248403045274,-0.24634931555511203,-2.198293619814506
1772660020959929600,1.6807878017425537,0.12432470917701721,1.0479323863983154,-0.51932692527771,-0.1908741295337677,-0.5607302784919739,-0.8056976199150085,0.0107136070728302,0.019623100757598877,0.043749988079071045,-0.39865686761403174,-0.0326235859077047,0.30997885201093056,0.8625089235723156,0.5952675252745324,-0.23261688563819116,-2.204029758633209
1772660020969966848,1.6908249855041504,0.0675259679555893,1.0602550506591797,-0.5090684294700623,-0.17942385375499725,-0.562487781047821,-0.8071025609970093,-0.0029491782188415527,0.019046008586883545,0.04359853267669678,-0.3980509414432283,-0.038194239451922275,0.30820433779585527,0.8631956685721199,0.5973916667726734,-0.21874890376517916,-2.2098415217975944
1772660020980004864,1.7008628845214844,0.024720709770917892,1.0424222946166992,-0.4892648756504059,-0.16807901859283447,-0.5637162923812866,-0.8086862564086914,-0.016109824180603027,0.01964890956878662,0.043747901916503906,-0.3975011290745422,-0.043607974913699776,0.3061947589081696,0.8639074440142375,0.5988782542321673,-0.20492451116440782,-2.2156514612351526
1772660020990041856,1.710899829864502,-0.0053402092307806015,1.0391011238098145,-0.4793146252632141,-0.15690526366233826,-0.5646038055419922,-0.8103106021881104,-0.02818383276462555,0.008436203002929688,0.04880547523498535,-0.3969906410299038,-0.04887574747258386,0.30406556837021104,0.8646118748841775,0.5999531804722975,-0.19126886766976806,-2.221385759242459
1772660021000079872,1.720937967300415,-0.09863393753767014,1.050482153892517,-0.46051645278930664,-0.1457061469554901,-0.5649043321609497,-0.8121901154518127,-0.040802001953125,0.0038692355155944824,0.04261314868927002,-0.3965462857010664,-0.05403551092668061,0.3016373836578782,0.8653589063706502,0.6003173378545086,-0.17751080343536396,-2.2271420480718978
1772660021010116864,1.7309749126434326,-0.1660102754831314,1.060365915298462,-0.4332543611526489,-0.13456645607948303,-0.5644439458847046,-0.8144292235374451,-0.05023273825645447,-0.0014740228652954102,0.04253286123275757,-0.3962334084774612,-0.05902515433039624,0.29883344275684065,0.8661487803996075,0.5997594470525048,-0.16374850445628308,-2.2327681902200984
1772660021020154624,1.7410128116607666,-0.2208000272512436,1.0784231424331665,-0.4254606068134308,-0.12337752431631088,-0.5634152889251709,-0.8169095516204834,-0.05661515146493912,-0.0197908878326416,0.0310361385345459,-0.3960175023117459,-0.06393194615641225,0.29573287646111557,0.8669630175381308,0.5985138444532638,-0.14989674205826725,-2.238300220442386
1772660021030191872,1.7510499954223633,-0.2688835859298706,1.0998942852020264,-0.40878576040267944,-0.11205548793077469,-0.5618934035301208,-0.8195849061012268,-0.0697530135512352,-0.03800588846206665,0.004826605319976807,-0.39588834302898773,-0.06881021888366795,0.2923571353741075,0.8677931892734487,0.5966729117779384,-0.13587975333489294,-2.2437516866591087
1772660021040228864,1.7610869407653809,-0.3026159703731537,1.1291632652282715,-0.38790178298950195,-0.10062509775161743,-0.5599818825721741,-0.8223715424537659,-0.08205312490463257,-0.04217571020126343,-0.02615445852279663,-0.39586811282726136,-0.07368174332603755,0.288765029752209,0.868604821669622,0.594363952900774,-0.12175443659121964,-2.249010104672294
1772660021050266624,1.7711248397827148,-0.3400699496269226,1.1857706308364868,-0.3661695718765259,-0.08893594890832901,-0.5576593279838562,-0.8252917528152466,-0.0875777155160904,-0.0336492657661438,-0.05538451671600342,-0.39600423643394356,-0.07862638163763425,0.2849070513409134,0.8693827979070486,0.5915632846087543,-0.1073487834375622,-2.254015404079027
1772660021060303872,1.7811620235443115,-0.35303211212158203,1.2265393733978271,-0.350660115480423,-0.07690002024173737,-0.5550824403762817,-0.828233003616333,-0.10205506533384323,-0.03578364849090576,-0.07624697685241699,-0.39630019421469825,-0.08372515013783424,0.280844458122403,0.8700934433520161,0.5884620614535675,-0.0925828555005029,-2.258734834511302
1772660021070341888,1.7911999225616455,-0.43025290966033936,1.285595417022705,-0.3131355345249176,-0.06456943601369858,-0.5520732402801514,-0.8312917351722717,-0.10793118923902512,-0.04846692085266113,-0.09513038396835327,-0.3967761947677587,-0.08891283643989202,0.2764934702018543,0.8707551482441428,0.5848486804674409,-0.07751797085353349,-2.263128221428067
1772660021080379392,1.8012375831604004,-0.4583340287208557,1.3017405271530151,-0.2679203748703003,-0.05215919762849808,-0.5484833121299744,-0.8345330357551575,-0.10642538964748383,-0.046655237674713135,-0.10788023471832275,-0.3974932654085086,-0.09406703431483261,0.2718176976325942,0.8713584480651381,0.5805492959112492,-0.06241986258012614,-2.266984620359775
1772660021090417408,1.8112754821777344,-0.47178420424461365,1.3605496883392334,-0.23226770758628845,-0.039632365107536316,-0.5447203516960144,-0.8376807570457458,-0.10108418762683868,-0.032382309436798096,-0.12327200174331665,-0.3984178628546991,-0.09929540440528246,0.26702068323495276,0.8718392081943891,0.5760555866407288,-0.04727676317916627,-2.270288085890115
1772660021100454400,1.821312427520752,-0.5677200555801392,1.4559731483459473,-0.1848868727684021,-0.026619497686624527,-0.5404343008995056,-0.8409650325775146,-0.10202734172344208,-0.012956202030181885,-0.11577630043029785,-0.3996359421163853,-0.10470531842062725,0.2618287318757948,0.8722233418555906,0.5709531723010667,-0.03164294896735619,-2.2730325447088546
1772660021110492416,1.831350564956665,-0.6213095188140869,1.500235915184021,-0.1371465027332306,-0.013210353441536427,-0.5354222059249878,-0.8444812297821045,-0.10766977816820145,-0.011956334114074707,-0.09483456611633301,-0.40117818828189494,-0.11020625741252635,0.2561522282074505,0.8725231425058629,0.5650075440363601,-0.01564188244955074,-2.2751199385013696
1772660021120529408,1.8413875102996826,-0.6468729376792908,1.5051084756851196,-0.10162660479545593,0.00020002944802399725,-0.530038595199585,-0.8479735255241394,-0.09588789194822311,-0.039465248584747314,-0.0820649266242981,-0.4029361209175196,-0.11566521580995132,0.25026946129163,0.8727137189481206,0.5586460512255704,0.00023589115115857693,-2.27657050639031
1772660021130566400,1.8514244556427002,-0.6965441107749939,1.522273063659668,-0.0925779789686203,0.013639885932207108,-0.5243123173713684,-0.851416826248169,-0.0816788300871849,-0.06287640333175659,-0.07270121574401855,-0.40478662283319705,-0.12106408361072324,0.24420295546104642,0.872843780843894,0.5519073090732821,0.016018850974773003,-2.277660145324568
1772660021140604416,1.8614625930786133,-0.7135864496231079,1.5049984455108643,-0.07531536370515823,0.02704812027513981,-0.5182225108146667,-0.8548180460929871,-0.07534219324588776,-0.06153517961502075,-0.06348639726638794,-0.4066877230956889,-0.126355220012309,0.23796080731089403,0.8729342471371073,0.5447713005554401,0.03163140870315271,-2.27845736667424
1772660021150641408,1.8714995384216309,-0.7353718876838684,1.4947956800460815,-0.053561337292194366,0.04024918004870415,-0.5119879841804504,-0.8580490946769714,-0.06419020891189575,-0.037252068519592285,-0.06687760353088379,-0.40863545039293414,-0.13150996510873914,0.23169067818259248,0.8729499292041015,0.5374975254379291,0.04687342212596653,-2.2788829757230746
1772660021160679424,1.8815374374389648,-0.7558491826057434,1.5189883708953857,-0.042114272713661194,0.05349406972527504,-0.5055040121078491,-0.861164391040802,-0.05738506093621254,-0.0007520914077758789,-0.05489706993103027,-0.4106598535090391,-0.13662671172889038,0.22527973615531413,0.8728921052947112,0.5299660135849881,0.0620385894985204,-2.27895931244207
1772660021170716416,1.8915746212005615,-0.7100147008895874,1.5332125425338745,-0.03299028426408768,0.06687754392623901,-0.49915963411331177,-0.8639253973960876,-0.056760966777801514,0.021040737628936768,-0.06818825006484985,-0.4127049472313926,-0.14183556927152124,0.2189063378561632,0.8727183235696323,0.5226286675598388,0.07725717482909782,-2.278802587793203
1772660021180754432,1.9016125202178955,-0.6627814173698425,1.5193233489990234,-0.046454161405563354,0.0803840234875679,-0.4931430220603943,-0.8662264943122864,-0.0558936670422554,0.014856308698654175,-0.10095179080963135,-0.41469028609618835,-0.14715876547821488,0.21267592718998,0.8724363256414349,0.5156989618167137,0.09253291985433458,-2.278585610348542
1772660021190791424,1.911649465560913,-0.6234647035598755,1.5143890380859375,-0.05357758328318596,0.09380113333463669,-0.48755648732185364,-0.8680380582809448,-0.051091790199279785,0.008338958024978638,-0.09207546710968018,-0.4165478938900025,-0.1525085739440422,0.20669329445053994,0.8720704727722564,0.5092888698595143,0.10764339486226057,-2.2784140169141116
1772660021200829440,1.9216876029968262,-0.6054319143295288,1.4770315885543823,-0.03723669424653053,0.10705970227718353,-0.48214584589004517,-0.8695249557495117,-0.03410743176937103,0.020124971866607666,-0.05451679229736328,-0.41835936173550364,-0.15780833010926046,0.20083342080955832,0.8716294811693693,0.5031024069798103,0.12250778740924144,-2.2781159389804384
1772660021210866432,1.9317245483398438,-0.6161531805992126,1.4526032209396362,-0.03546928986907005,0.12006909400224686,-0.47677475214004517,-0.8707865476608276,-0.004453249275684357,0.038313478231430054,-0.008699476718902588,-0.42014666203070167,-0.16298561806888348,0.19504462919906093,0.8711314373111056,0.4969819181549865,0.13702177273541713,-2.2776356441803536
1772660021220904448,1.9417624473571777,-0.659313976764679,1.4175394773483276,-0.036204054951667786,0.13275876641273499,-0.4711894690990448,-0.8719837069511414,0.02111087739467621,0.0442332923412323,0.03496283292770386,-0.4219009884390368,-0.16793879348301885,0.1892213262775535,0.8706269876711911,0.4906388523745262,0.15108885946879855,-2.276992379007053
1772660021230941440,1.9517996311187744,-0.742468535900116,1.3585948944091797,-0.04578171297907829,0.14511412382125854,-0.4650181829929352,-0.8733269572257996,0.038449108600616455,0.03127184510231018,0.08055657148361206,-0.423618869908317,-0.17256233572854188,0.18319051255458116,0.8701784337797172,0.4836551576712878,0.16465803046167568,-2.2761990328023716
1772660021240978432,1.961836576461792,-0.8784583210945129,1.3018075227737427,-0.061863742768764496,0.15703663229942322,-0.45784392952919006,-0.8750534057617188,0.05217662453651428,0.011966854333877563,0.12058258056640625,-0.4252972165951081,-0.17669841115513846,0.17677944794292672,0.8698557261877455,0.47556847621369114,0.17756934065561106,-2.2752343867243296
1772660021251016448,1.971874475479126,-1.0286686420440674,1.2061727046966553,-0.08820626884698868,0.16840878129005432,-0.4493204951286316,-0.8773537278175354,0.06772097945213318,-0.017216980457305908,0.1290779709815979,-0.4269144906967727,-0.1801954971147768,0.16986086695119387,0.869724605547991,0.46600457829233616,0.18964413655943985,-2.2741047388498377
1772660021261053440,1.9819116592407227,-1.1475087404251099,1.1084192991256714,-0.11862542480230331,0.1790916472673416,-0.4395405352115631,-0.8801876902580261,0.07359389960765839,-0.06071886420249939,0.11581385135650635,-0.42841846172218767,-0.18300359765245897,0.16252954454704227,0.869799717876281,0.45508709210062626,0.20072970488857186,-2.2728835211119325
1772660021271091456,1.9919495582580566,-1.234755277633667,1.0022836923599243,-0.14266298711299896,0.18902099132537842,-0.42871370911598206,-0.8834453225135803,0.07799254357814789,-0.10101041197776794,0.09456592798233032,-0.42979598081678355,-0.1851491514587508,0.1549100541153879,0.8700564689928318,0.44306852850818595,0.2107808511732584,-2.27158451752089
1772660021281128448,2.001986503601074,-1.28047776222229,0.9051720499992371,-0.16256825625896454,0.19813862442970276,-0.41722777485847473,-0.8869397044181824,0.09432658553123474,-0.11635681986808777,0.06085938215255737,-0.4310384464422175,-0.18670979571690818,0.14720595887266852,0.8704456889681174,0.4303927704428051,0.21978702946785655,-2.2702299506081953
1772660021291166464,2.0120246410369873,-1.3479526042938232,0.8099397420883179,-0.1509597897529602,0.206444650888443,-0.40517598390579224,-0.8906250596046448,0.107001394033432,-0.10870951414108276,-0.0023497343063354492,-0.43218554454620295,-0.18772156708616577,0.13945633570029367,0.8709352742110165,0.4171713097047674,0.2277748798820013,-2.2687479883782617
1772660021301203456,2.022061586380005,-1.4077608585357666,0.7476465702056885,-0.08537865430116653,0.213897705078125,-0.39254629611968994,-0.8945139050483704,0.1072235107421875,-0.06939828395843506,-0.029298901557922363,-0.43349624580737006,-0.18820543169471818,0.13161211727590053,0.8714000018418309,0.4033984797905886,0.2347143685971478,-2.266554439892624
1772660021311241472,2.032099485397339,-1.4427440166473389,0.7123109698295593,-0.014719135127961636,0.22063860297203064,-0.3796224296092987,-0.8984460830688477,0.10004009306430817,-0.018433570861816406,-0.01787465810775757,-0.4350877540873637,-0.1883158226549757,0.12375013543238858,0.87173487981494,0.38938814693685353,0.24081247667666794,-2.2634370515343396
1772660021321278208,2.0421364307403564,-1.4253191947937012,0.6522321701049805,0.022976843640208244,0.2267804890871048,-0.36665886640548706,-0.9022925496101379,0.0740465521812439,0.00867241621017456,0.00908881425857544,-0.43688222047177794,-0.18815499545328165,0.11598023470996523,0.8719404186809471,0.3754152096392218,0.2462376407341427,-2.2596249221983222
1772660021331315456,2.052173614501953,-1.4107139110565186,0.5719796419143677,0.041092995554208755,0.2322610765695572,-0.3538810610771179,-0.9059928059577942,0.04670010507106781,0.00327986478805542,0.05049353837966919,-0.4387001546811799,-0.1877236383453805,0.10845932218157425,0.8720886668184876,0.36171745083915624,0.25095630913621403,-2.255554104649333
1772660021341353472,2.062211513519287,-1.3731971979141235,0.4967256784439087,0.054091885685920715,0.2369527816772461,-0.3412811756134033,-0.9096046090126038,0.022431373596191406,-0.0003325939178466797,0.12360912561416626,-0.44050422062732103,-0.18695464780307916,0.10122081284322468,0.8722146541106603,0.34827956955701905,0.25483713915495,-2.251315993094188
1772660021351390464,2.0722484588623047,-1.3364038467407227,0.4359440803527832,0.0290864035487175,0.24106667935848236,-0.3290197253227234,-0.913034975528717,-0.0008475631475448608,0.006616771221160889,0.16474395990371704,-0.44218307794790046,-0.18597728556175364,0.09431307073014035,0.872348362370063,0.3352653130921227,0.2581371601942441,-2.2472260485751714
1772660021361428480,2.0822865962982178,-1.338168740272522,0.3894548714160919,0.0002385093830525875,0.244819775223732,-0.31680765748023987,-0.9163493514060974,-0.02838912606239319,0.009846627712249756,0.2007427215576172,-0.44367527639465065,-0.18481750549122972,0.08756599620411079,0.8725404815482459,0.32236188777343555,0.2610709395845199,-2.2434489028589213
1772660021371465472,2.0923235416412354,-1.3443783521652222,0.30378082394599915,-0.041066721081733704,0.24813367426395416,-0.3043769299983978,-0.9196653366088867,-0.04998303949832916,0.0013831853866577148,0.208132803440094,-0.44498423330336245,-0.1833756995590344,0.08087446501460914,0.8728239295238027,0.30928425130736786,0.26353348545628086,-2.2399600130779374
1772660021381503232,2.1023614406585693,-1.3808844089508057,0.2100149244070053,-0.10924231261014938,0.25074148178100586,-0.29163676500320435,-0.9230800271034241,-0.06688833236694336,-0.017292678356170654,0.16484028100967407,-0.4460007557691405,-0.1814997280280308,0.07428217146428297,0.8732831013625653,0.29593753936648937,0.2652357609450388,-2.2369872071532866
1772660021391540480,2.112398624420166,-1.4296015501022339,0.11675556749105453,-0.11375370621681213,0.2525474429130554,-0.2782829701900482,-0.9267029762268066,-0.08782881498336792,-0.0022193491458892822,0.10715341567993164,-0.4468162551258028,-0.17908486167702922,0.06765446795306837,0.8739031841809944,0.2820059958115341,0.26606146257168073,-2.234304150505899
1772660021401578496,2.1224365234375,-1.532690405845642,0.06906687468290329,-0.03652177006006241,0.253627210855484,-0.26431289315223694,-0.9304901361465454,-0.0936693549156189,0.057464778423309326,0.08724373579025269,-0.4478127434143235,-0.1762006766198582,0.06089534342386088,0.8744762763284749,0.267491398785978,0.26610915936556445,-2.2310567192465394
1772660021411615488,2.1324734687805176,-1.636435627937317,0.01634507067501545,0.08344165235757828,0.25399866700172424,-0.24953074753284454,-0.9344618916511536,-0.08689969778060913,0.13098523020744324,0.12701261043548584,-0.44932050023766607,-0.17282689969404624,0.05385075599234224,0.8748382748118413,0.25219563888593455,0.26540065473728514,-2.2264901593178736
1772660021421653504,2.1425116062164307,-1.694274663925171,-0.07439575344324112,0.1567334532737732,0.2534717321395874,-0.2341613620519638,-0.9385736584663391,-0.0685046911239624,0.1549987643957138,0.2142694592475891,-0.45128804829232033,-0.16891910903607443,0.04668512092374257,0.8750004805718401,0.23635585195729628,0.2637682772894314,-2.220742373840089
1772660021431690496,2.1525485515594482,-1.724743366241455,-0.2000466138124466,0.2251545786857605,0.2517591416835785,-0.21848218142986298,-0.9428058862686157,-0.05200633406639099,0.11638562381267548,0.2700153589248657,-0.4535266411480849,-0.164396190230473,0.03963538920794949,0.8750523632941213,0.22025880810462722,0.2609432475200891,-2.2142728524751716
1772660021441727488,2.162585496902466,-1.6688259840011597,-0.3523205816745758,0.29646843671798706,0.24860581755638123,-0.2030107080936432,-0.9470912218093872,-0.035211652517318726,0.05345931649208069,0.2845240831375122,-0.45600677955236174,-0.1592638787052431,0.033006116939157774,0.8749876100091819,0.204431676411447,0.2567027672150276,-2.207206683152061
1772660021451765504,2.172623634338379,-1.5437514781951904,-0.4870224595069885,0.34936708211898804,0.2439480721950531,-0.1884816586971283,-0.9512959718704224,-0.0372525155544281,0.002965301275253296,0.23300373554229736,-0.4586314277808814,-0.15366894354980618,0.02716387405564045,0.8748172526970922,0.18961587158262694,0.2510283635694017,-2.1998557625717523
1772660021461802496,2.1826605796813965,-1.443292260169983,-0.5574305653572083,0.4057858884334564,0.23828411102294922,-0.17512206733226776,-0.955276370048523,-0.06453227996826172,-0.0033905059099197388,0.12135303020477295,-0.461345640327914,-0.14789612413674155,0.02210313374067313,0.8745275721478856,0.17602974664916549,0.24445150411170016,-2.1924035472270273
1772660021471840256,2.1926984786987305,-1.3973602056503296,-0.6160025596618652,0.5004407167434692,0.23189203441143036,-0.16258832812309265,-0.9590573906898499,-0.10059015452861786,0.019079402089118958,0.030987322330474854,-0.4642967440393403,-0.14199360676212325,0.017581433566427156,0.8740465388847317,0.16331331480577743,0.23723832356246338,-2.1845032958583985
1772660021481877248,2.202735424041748,-1.3637324571609497,-0.6975418925285339,0.5833020806312561,0.22475364804267883,-0.15048563480377197,-0.9627252221107483,-0.10588769614696503,0.037723198533058167,0.028597474098205566,-0.46758544046536477,-0.13585789732776982,0.01341700917775873,0.8733421093492222,0.15105947608648307,0.2293479354609196,-2.1758978128821154
1772660021491915520,2.212773561477661,-1.2930095195770264,-0.8082100749015808,0.6245507001876831,0.2165970355272293,-0.13898871839046478,-0.9663166403770447,-0.08869786560535431,0.030025705695152283,0.06990855932235718,-0.4710778271769929,-0.12940637208303185,0.009781035998656205,0.8724929585801754,0.13944014481091555,0.22050245721390013,-2.1669082327147158
1772660021501952512,2.2228105068206787,-1.2905954122543335,-0.9256136417388916,0.6735621690750122,0.2073327600955963,-0.12789426743984222,-0.9698743224143982,-0.06341186165809631,-0.008198872208595276,0.1182965636253357,-0.47468929632085965,-0.12255190016068959,0.006623863383250277,0.8715544531162106,0.12824551725352049,0.21060289266491292,-2.157717700410735
1772660021511990528,2.232848644256592,-1.6343119144439697,-1.020838737487793,0.6565799713134766,0.19744165241718292,-0.11539360880851746,-0.9734994173049927,-0.03324182331562042,-0.07901861518621445,0.23556911945343018,-0.4783693519259112,-0.11506963587585646,0.003045111766117332,0.8705816488460532,0.11565124874908693,0.20010216832504701,-2.1483236556460343
1772660021522027520,2.2428855895996094,-2.095829725265503,-1.3817687034606934,0.8444367051124573,0.18481475114822388,-0.098460853099823,-0.9778286814689636,-0.0002139359712600708,-0.2105448842048645,0.3448941707611084,-0.4827006803750868,-0.10527263164730238,-0.001822733425846138,0.8694334007375276,0.09862063802691133,0.18680167642364462,-2.1372000846360475
1772660021532064512,2.252922534942627,-2.350557804107666,-1.239731788635254,0.636918842792511,0.1706233024597168,-0.07796303927898407,-0.9822471737861633,0.04914902150630951,-0.29052144289016724,0.36139756441116333,-0.4871953248915846,-0.09389227628737128,-0.007788974587067277,0.8681960082636564,0.07804223925124752,0.17199091013131126,-2.125584734546984
1772660021542102272,2.262960433959961,-2.308706283569336,-1.1451762914657593,0.15272419154644012,0.15924805402755737,-0.05531786382198334,-0.9856875538825989,-0.07015198469161987,-0.32279491424560547,0.4543154835700989,-0.49016757773531766,-0.08322802324447431,-0.015142990510431671,0.8675134192834625,0.055346113792809605,0.1601763234028731,-2.1174234560110836
1772660021552139520,2.2729976177215576,-1.5558462142944336,-0.9737980961799622,-0.34149298071861267,0.14841267466545105,-0.03583071380853653,-0.9882761836051941,-0.14706990122795105,-0.19625546038150787,0.4428355097770691,-0.4903279743635363,-0.07363967751599773,-0.02095473143999016,0.868168485421877,0.03583838415477224,0.14905940929930314,-2.116022752853986
1772660021562177536,2.2830355167388916,-0.724683403968811,-0.8592616319656372,0.005703049711883068,0.13955166935920715,-0.024190198630094528,-0.9899192452430725,-0.21430449187755585,-0.030131088569760323,-0.17154920101165771,-0.4901155456400885,-0.06688367137027638,-0.023810483300097097,0.8687613480368028,0.024192558871743326,0.14004989524424835,-2.1159988329865067
1772660021572214272,2.293072462081909,-0.16411520540714264,-0.5370733737945557,0.033849865198135376,0.13245072960853577,-0.020157471299171448,-0.9909846186637878,-0.04083696007728577,0.32841554284095764,-0.12084704637527466,-0.4904779888468015,-0.06276713142136117,-0.02383246817716238,0.8688634398691377,0.020158837534561585,0.13286824775304074,-2.1151110471604975
1772660021582252544,2.3031105995178223,-0.16217854619026184,-0.4243391156196594,0.26226091384887695,0.1278151422739029,-0.018994426354765892,-0.9916161298751831,-0.0763167291879654,0.48278531432151794,-0.1106330156326294,-0.4910955103396352,-0.06043364813759887,-0.023231917846620424,0.8686962462551535,0.018995569240796765,0.12818899866302516,-2.1137464130177284
1772660021592289536,2.31314754486084,-0.28922608494758606,-0.4562930464744568,0.5654197335243225,0.12348442524671555,-0.017136767506599426,-0.9921985268592834,-0.04133111238479614,0.26953238248825073,-0.022175252437591553,-0.49311697791125464,-0.05802640159619385,-0.023101297894916138,0.867718328531732,0.017137607262431562,0.12381870083817192,-2.109099027069868
1772660021602327296,2.323185443878174,-0.5206132531166077,-0.5798041224479675,0.5057334899902344,0.11820172518491745,-0.01388502772897482,-0.9928925037384033,0.03781939297914505,0.034179218113422394,0.07997441291809082,-0.4956313916794726,-0.05484583230554114,-0.023359676803050677,0.8664846982394988,0.013885473572507186,0.11849019415897556,-2.103258948458392
1772660021612364544,2.3332226276397705,-0.8916926980018616,-0.7390590906143188,0.5767108798027039,0.1115667000412941,-0.007528271060436964,-0.9937284588813782,0.0452020987868309,-0.04485514760017395,0.13935834169387817,-0.49821311596597356,-0.050299302868816086,-0.024612279856511307,0.8652443779168261,0.007528342391698664,0.11180263445820904,-2.0971339094183254
1772660021622402304,2.3432605266571045,-0.9002127051353455,-0.7643833756446838,0.4796525239944458,0.10392050445079803,0.0011940044350922108,-0.9945849180221558,0.061271145939826965,-0.023227695375680923,0.11178767681121826,-0.5008975066700554,-0.04471262053738107,-0.02661459616110786,0.8639410583194943,-0.0011940047443348939,0.1041085442587891,-2.090689099306487
1772660021632439296,2.353297472000122,-0.5721630454063416,-0.6020784378051758,0.35486623644828796,0.09700480848550797,0.00817616656422615,-0.9952503442764282,-0.041829027235507965,0.03552500903606415,-0.12503468990325928,-0.5029454222803834,-0.03989348271280305,-0.02798831652267502,0.8629432171272634,-0.00817625788411596,0.0971608525532828,-2.0858039541477553
1772660021642476544,2.3633346557617188,-0.2751961052417755,-0.3196641206741333,0.31488049030303955,0.09242012351751328,0.012039355002343655,-0.9956473112106323,-0.13876107335090637,0.10304243117570877,-0.2621346712112427,-0.5045099390614909,-0.03688303996969962,-0.028565436159931294,0.862144650576448,-0.012039646320172565,0.09255892732650563,-2.082132519126711
1772660021652514560,2.3733725547790527,-0.26830101013183594,-0.11597461998462677,0.5157344937324524,0.09035240113735199,0.01405119989067316,-0.9958107471466064,-0.168446883559227,0.19088959693908691,-0.39276957511901855,-0.5063408098747719,-0.03541888442033173,-0.02898513762746782,0.8611180960954479,-0.014051662223527774,0.09048474475795695,-2.0778522027022506
1772660021662551296,2.3834095001220703,-0.7063326835632324,-0.2708438038825989,0.5740476250648499,0.08878179639577866,0.01838211715221405,-0.9958814382553101,-0.13292548060417175,0.17009444534778595,-0.38665640354156494,-0.5089199175133955,-0.03355074381757205,-0.03055512194393125,0.8596169290447464,-0.01838315201551165,0.08891390648247417,-2.0716960926337427
1772660021672589568,2.3934476375579834,-0.7008906602859497,-0.3899407684803009,0.27749010920524597,0.08561340719461441,0.025565721094608307,-0.996000349521637,-0.2505914568901062,0.020470045506954193,-0.17462337017059326,-0.5109707667853343,-0.030275612229597994,-0.03291203590904872,0.8584340749168087,-0.025568506411195364,0.08574643905457556,-2.066677495557706
1772660021682626560,2.403484582901001,-0.262315958738327,-0.40361636877059937,0.16418243944644928,0.08153437823057175,0.03005027398467064,-0.9962174296379089,-0.5736455917358398,0.012063983827829361,-0.23544150590896606,-0.511946753133543,-0.027334437776932962,-0.033824906373806654,0.8579155693400409,-0.030054798782023544,0.0816619525837323,-2.0643365774798643
1772660021692664320,2.413522481918335,-0.014677652157843113,-0.1048366129398346,0.2622765302658081,0.07897556573152542,0.031227432191371918,-0.9963873028755188,-0.8321188688278198,0.22815671563148499,-0.5188256502151489,-0.5129449870715035,-0.025893382699496814,-0.03370264753164163,0.857368755717378,-0.03123250972908384,0.07909654660337298,-2.0620518524210825
1772660021702701312,2.4235594272613525,0.23904064297676086,0.32158395648002625,0.22562049329280853,0.08006969094276428,0.029906103387475014,-0.9963405132293701,-0.9543525576591492,0.38778799772262573,-0.6224491000175476,-0.5139976498909669,-0.02666177836174635,-0.03344966635611655,0.8567243317906099,-0.02991056294912015,0.08019143829925032,-2.0596169678191343
1772660021712739584,2.4335975646972656,0.4877055585384369,0.6181383728981018,0.08696354925632477,0.08484164625406265,0.026126159355044365,-0.9960518479347229,-0.8469418883323669,0.24285577237606049,-0.6202353835105896,-0.5145976894311503,-0.029660416930643727,-0.03308061108155894,0.8562798664020268,-0.026129131530112388,0.08497283716570495,-2.058218390476614
1772660021722776320,2.443634510040283,0.5555131435394287,0.8762575387954712,-0.1960550993680954,0.09254682809114456,0.020691361278295517,-0.9954932928085327,-0.48678815364837646,-0.031891316175460815,-0.5238547921180725,-0.5141612457381792,-0.03438571076011409,-0.03272555817440244,0.8563789976432886,-0.02069283837847044,0.09269935252844123,-2.0592207362871973
1772660021732813312,2.453671455383301,0.5806788206100464,0.8189249038696289,-0.4616195261478424,0.10106328874826431,0.015242346562445164,-0.9947632551193237,-0.1394391506910324,-0.14681889116764069,-0.38452446460723877,-0.5124627052274315,-0.03951278674971246,-0.032513460887540716,0.8571835258129898,-0.015242937170867731,0.10124792984689121,-2.063153766028862
1772660021742851584,2.463709592819214,0.6982978582382202,0.7159841060638428,-0.6981662511825562,0.10863102227449417,0.00955534540116787,-0.9940361976623535,0.10332881659269333,-0.05162382870912552,-0.266141414642334,-0.5097140334718359,-0.04433274437793483,-0.031882601728049735,0.8586091827686626,-0.009555490738856873,0.10885080726716238,-2.069596297719946
1772660021752888320,2.4737465381622314,1.0469962358474731,0.6544842720031738,-0.8644066452980042,0.11528175324201584,0.0021729469299316406,-0.9933304786682129,0.15920861065387726,0.10794973373413086,-0.2805342674255371,-0.5060338824585973,-0.04921882682744447,-0.0302039575363147,0.8605782016579837,-0.0021729485700169057,0.1155389109089783,-2.078344410881233
1772660021762926336,2.4837844371795654,1.381253957748413,0.8326015472412109,-1.026534080505371,0.12280268222093582,-0.009027209132909775,-0.9923900365829468,0.11149602383375168,0.19397899508476257,-0.3214527368545532,-0.5015229043231036,-0.055460527786155865,-0.027001936525852928,0.8629425727643643,0.009027331400518044,0.12311849020871235,-2.0892200954046887
1772660021772963584,2.493821620941162,1.6768444776535034,0.8718181848526001,-1.3136608600616455,0.13147784769535065,-0.022630324587225914,-0.9910607933998108,0.10268352925777435,0.21588288247585297,-0.2341589331626892,-0.4958809388357453,-0.06280933426150326,-0.022904236244259236,0.8658131884441612,0.022632255721856707,0.1318935974754944,-2.102827601199855
1772660021783001344,2.503859519958496,1.938928246498108,0.7858062982559204,-1.5057355165481567,0.14032931625843048,-0.03838665783405304,-0.9893604516983032,0.15328028798103333,0.20293745398521423,-0.1060526967048645,-0.48901187324233053,-0.07075083935397813,-0.017722359836865,0.8692224144465023,0.03839608976368147,0.14089855741581428,-2.119393708047192
1772660021793038336,2.5138964653015137,2.159620761871338,0.6460979580879211,-1.5280195474624634,0.14817465841770172,-0.056587815284729004,-0.9873409271240234,0.23947487771511078,0.1657339334487915,-0.12795448303222656,-0.48149739602753244,-0.07878771911109121,-0.011047034934822024,0.8728291038166743,0.056618060317136704,0.14896277895930246,-2.137598132883674
1772660021803076608,2.5239346027374268,2.2835443019866943,0.5207882523536682,-1.4312211275100708,0.15492035448551178,-0.07619623839855194,-0.9849841594696045,0.2789022922515869,0.19590142369270325,-0.019196748733520508,-0.47398844460783035,-0.08658318056290124,-0.0033566728548173304,0.8762573784694007,0.07627015961590841,0.1560040570577199,-2.1558604094784446
1772660021813113344,2.5339715480804443,2.354630708694458,0.48282063007354736,-1.3066952228546143,0.16104236245155334,-0.09712593257427216,-0.9821567535400391,0.27297860383987427,0.35947027802467346,0.32319068908691406,-0.4670539167661847,-0.09431472821037531,0.005133141833540634,0.8791695620923099,0.09727928783672089,0.1625218914285174,-2.1728622119317
1772660021823150336,2.544008493423462,2.5786125659942627,0.24553032219409943,-1.2968875169754028,0.1661018580198288,-0.11877650022506714,-0.9789291620254517,0.2459922581911087,0.5294057726860046,0.45108187198638916,-0.4600615079729661,-0.10163851147357389,0.014318850524438672,0.8819342477762729,0.11905757143396846,0.16807631232373804,-2.189998110804247
1772660021833188608,2.554046630859375,2.717820167541504,0.17703089118003845,-1.1373077630996704,0.16966865956783295,-0.14313504099845886,-0.97505122423172,0.18189384043216705,0.46939846873283386,0.43421870470046997,-0.4532122859039501,-0.108818323377556,0.025158610836033872,0.8843778890454148,0.14362835204376168,0.1722849131433689,-2.2068782106264475
1772660021843225600,2.5640835762023926,2.8205413818359375,0.0962526872754097,-0.8736949563026428,0.17265774309635162,-0.1682446300983429,-0.9705066084861755,0.14004060626029968,0.2456829845905304,0.32672303915023804,-0.4471747290456077,-0.1158270445472934,0.036480105173664526,0.8861648487607342,0.16904864159153674,0.17606272027041778,-2.221877860495869
1772660021853263360,2.5741214752197266,3.0306520462036133,0.1536726951599121,-0.737649142742157,0.1750325709581375,-0.19540494680404663,-0.964976966381073,0.07409767806529999,0.05224698781967163,0.3468281626701355,-0.44196524124553793,-0.12298067386062074,0.0488598148340458,0.8872176776385213,0.19667034226307648,0.1794343815094251,-2.235012674726999
1772660021863300608,2.5841586589813232,2.890336275100708,0.1622006744146347,-0.7488937973976135,0.1782139092683792,-0.22207245230674744,-0.9586050510406494,-0.04663735628128052,0.02839265763759613,0.23222565650939941,-0.4367267737943039,-0.13031815541768368,0.06094801563114017,0.8880158230080879,0.22393949176642663,0.1838111512026484,-2.2481846189038497
1772660021873338368,2.5941965579986572,3.0039899349212646,0.36306267976760864,-0.5793367028236389,0.18237267434597015,-0.24933795630931854,-0.9510892629623413,-0.13604699075222015,0.08413106203079224,0.3616422414779663,-0.43184215089056055,-0.138217280911663,0.07315293960335166,0.888288757056894,0.2519965669205834,0.18945174950837596,-2.2606474655149444
1772660021883375360,2.604233503341675,2.742666244506836,0.37986108660697937,-0.563414454460144,0.1875501126050949,-0.27558034658432007,-0.9428045749664307,-0.10776190459728241,0.12703603506088257,0.29957032203674316,-0.4273959721322899,-0.14635881714540497,0.08471609261076259,0.8881075452439726,0.2791933672703917,0.19636445651553375,-2.272210966533762
1772660021893413632,2.614271640777588,2.812915086746216,0.3352617919445038,-0.477977454662323,0.1922423094511032,-0.3008142411708832,-0.9341058135032654,-0.0998961329460144,0.12213382124900818,0.3904504179954529,-0.4231857438998564,-0.15404997362112072,0.09599839547124908,0.8876749951712359,0.3055463407669737,0.20296963711212354,-2.2832237747622197
1772660021903450368,2.6243085861206055,2.735426425933838,0.32310977578163147,-0.3691665530204773,0.19670861959457397,-0.3259385824203491,-0.9246998429298401,-0.05312342941761017,0.012400984764099121,0.2603626847267151,-0.4192337884018912,-0.1616384338636604,0.10734571597886171,0.8869008314432737,0.33200437039227415,0.20960257545920663,-2.293703561937953
1772660021913488384,2.6343464851379395,2.519502639770508,0.2849771976470947,-0.24873881042003632,0.20048588514328003,-0.34961795806884766,-0.9151899814605713,-0.02397221326828003,-0.10321712493896484,0.2069990634918213,-0.4158633634125599,-0.16864381391384897,0.11817053684025826,0.8858062144458603,0.3571632980530848,0.21565807686875688,-2.3028058907358346
1772660021923525376,2.644383430480957,2.384429931640625,0.21164199709892273,-0.11026589572429657,0.20322664082050323,-0.37196052074432373,-0.9057285785675049,0.0025991499423980713,-0.18835747241973877,0.21014142036437988,-0.4131767006303078,-0.174955366299797,0.12855472129281556,0.8843920693127356,0.3811201864077184,0.22072346219013753,-2.3102284495451064
1772660021933562624,2.6544206142425537,2.0890066623687744,0.1633860468864441,-0.019445713609457016,0.20517922937870026,-0.3921026289463043,-0.8967480063438416,0.00299641489982605,-0.2262750267982483,0.18887758255004883,-0.4110039691626034,-0.18046739815998575,0.13804891857778695,0.8828645346877451,0.40291613662684345,0.2249318508177178,-2.3163224082141185
1772660021943600384,2.6644585132598877,1.8157248497009277,0.14406508207321167,0.07574977725744247,0.20641693472862244,-0.4095247685909271,-0.888640284538269,-0.01443086564540863,-0.20967689156532288,0.27839553356170654,-0.4094448246214577,-0.185102124156068,0.14634572344474234,0.8812917187110252,0.42193307751786857,0.2282365759971849,-2.3208223768651814
1772660021953637376,2.6744954586029053,1.7396599054336548,0.14135825634002686,0.1936465948820114,0.20711059868335724,-0.42549431324005127,-0.8809425830841064,-0.02270813286304474,-0.17782294750213623,0.25461506843566895,-0.408487882611656,-0.18925271805950203,0.1539874355552242,0.8795503837110824,0.4395080270757156,0.2309078042406846,-2.323812627781839
1772660021963675392,2.6845335960388184,1.4765657186508179,0.2362711876630783,0.19525061547756195,0.2079356163740158,-0.4402024745941162,-0.8734898567199707,-0.054905250668525696,-0.1377088725566864,0.16563469171524048,-0.4079337909812198,-0.19326279172385863,0.1609489090648854,0.8776873333071967,0.45582416988738417,0.23370182589350763,-2.325874814211991
1772660021973712384,2.694570541381836,1.1622835397720337,0.2766795754432678,0.2982321083545685,0.20903822779655457,-0.452183336019516,-0.8670831918716431,-0.10900159180164337,-0.05649891495704651,0.17972052097320557,-0.40790802256845,-0.19685254022407483,0.16645567665843716,0.8758724571667726,0.4692117273951671,0.2365678870262537,-2.326691075139745
1772660021983750400,2.70460844039917,0.7309995293617249,0.3784823715686798,0.42518553137779236,0.21024663746356964,-0.4612935781478882,-0.8619771003723145,-0.10888251662254333,-0.02343234419822693,0.21886497735977173,-0.40883432847135426,-0.19997252881628833,0.1703596962747426,0.8739811096559352,0.4794526185795495,0.23924070855984905,-2.325244556484777
1772660021993787648,2.7146456241607666,0.33491745591163635,0.3936919569969177,0.543610692024231,0.21135595440864563,-0.46687179803848267,-0.8586963415145874,-0.08203771710395813,-0.09430068731307983,0.2351001501083374,-0.41078453062760584,-0.20235299733728035,0.17235165577302505,0.8721262926725277,0.4857500551357935,0.241338518717388,-2.321278261298301
1772660022003825408,2.7246835231781006,-0.05002303421497345,0.3904636800289154,0.5807258486747742,0.21215838193893433,-0.46928584575653076,-0.8571812510490417,-0.058105647563934326,-0.19611942768096924,0.25195664167404175,-0.41340459028895304,-0.20389966848991742,0.1727261155022314,0.8704524098656583,0.4884818636838564,0.24263096294898054,-2.3155564356371614
1772660022013862400,2.734720468521118,-0.45251554250717163,0.0644347071647644,1.0345418453216553,0.21045087277889252,-0.4687276780605316,-0.857907235622406,-0.04501508176326752,-0.24918308854103088,0.2494325041770935,-0.41733565847342247,-0.20369852382253936,0.17191070607792774,0.8687834402422008,0.4878498620782275,0.2405571116510668,-2.3060971556505603
1772660022023899648,2.744757652282715,-1.034166932106018,0.19059637188911438,1.362924575805664,0.20571136474609375,-0.4650096893310547,-0.8610742092132568,-0.00022125244140625,-0.2162799835205078,0.31775450706481934,-0.42344448965609277,-0.20160578378370458,0.16975865532367057,0.8667363006379288,0.48364556139998527,0.2345054419085286,-2.290791136356991
1772660022033937408,2.754795551300049,-1.6787238121032715,0.19387924671173096,1.5720386505126953,0.200754314661026,-0.4561688005924225,-0.8669531345367432,-0.05654348433017731,-0.12310060858726501,0.42199158668518066,-0.4313465309974538,-0.19835823054828186,0.16485585621911042,0.864532597859286,0.4736851802641558,0.22755240036103447,-2.2711495076353385
1772660022043974400,2.7648324966430664,-2.067070960998535,0.1799764782190323,1.7427371740341187,0.19474922120571136,-0.4429176151752472,-0.8751552700996399,-0.09333929419517517,0.029282361268997192,0.4967373013496399,-0.4405427443011301,-0.19361035294035808,0.1579158253260859,0.8622642435971194,0.4588502883376536,0.21896323328759296,-2.248241600690949
1772660022054012416,2.7748706340789795,-1.9076368808746338,0.24318726360797882,1.7576453685760498,0.18890777230262756,-0.42846113443374634,-0.8835920691490173,-0.07733549177646637,0.18297773599624634,0.42694228887557983,-0.4502861899415987,-0.18864441422733552,0.1503903563960104,0.8596733914128603,0.4427889633836729,0.21062433495263977,-2.224175833336982
1772660022064049408,2.784907579421997,-1.498186469078064,0.195484459400177,1.5807651281356812,0.18384210765361786,-0.41651204228401184,-0.8903481364250183,-0.06923334300518036,0.25960591435432434,0.2140328288078308,-0.45927036032238566,-0.1845281378468929,0.14413639768201633,0.8568808561309946,0.4296053519425632,0.20362175244056838,-2.2021331861368365
1772660022074086912,2.794945001602173,-1.1657004356384277,0.0750693678855896,1.388458490371704,0.17889389395713806,-0.4073026180267334,-0.895601212978363,-0.05798324942588806,0.1806790828704834,0.06584352254867554,-0.4669398427921957,-0.18094973053794,0.13948686402194505,0.8542644522103346,0.4194986409525052,0.1971525357844843,-2.1832365837843675
1772660022084123904,2.8049819469451904,-0.8401585817337036,0.03486096113920212,1.2041679620742798,0.17405298352241516,-0.4005564749240875,-0.8995888233184814,-0.01923730969429016,-0.054399579763412476,0.044547319412231445,-0.47342556068635583,-0.1778817414626908,0.13624856230016935,0.8518583424678505,0.41212409086329405,0.19111911953306426,-2.167155129988735
1772660022094161920,2.8150200843811035,-0.46346139907836914,0.06792157888412476,0.9778636693954468,0.1701282113790512,-0.39654603600502014,-0.9021129012107849,0.0072857290506362915,-0.34831175208091736,-0.009431958198547363,-0.47872245005800973,-0.1757953124938273,0.13431147194800164,0.849635979301243,0.4077513556603054,0.18639937881298274,-2.1540247532343195
1772660022104198912,2.825057029724121,-0.3303278386592865,0.1756158173084259,0.7176957130432129,0.1677975058555603,-0.394689679145813,-0.9033626317977905,0.024295389652252197,-0.599603533744812,-0.09373819828033447,-0.48274017347104525,-0.17483753630636298,0.13323104933953434,0.8477283400406951,0.4057300846021781,0.1836545997100281,-2.144162617081379
1772660022114236928,2.835094928741455,-0.46173879504203796,0.25471794605255127,0.4920384883880615,0.16746549308300018,-0.3920307755470276,-0.9045812487602234,0.06176728010177612,-0.7193126082420349,-0.1544092297554016,-0.4857898291454356,-0.17441000358198924,0.1314934825173398,0.8463444821661994,0.40283803995300443,0.1830578594657169,-2.1369275826828664
1772660022124273920,2.8451321125030518,-0.4699839651584625,0.2220178097486496,0.4518521726131439,0.1678260862827301,-0.38862937688827515,-0.9059810042381287,0.146733820438385,-0.7064785957336426,-0.18126869201660156,-0.4882847762926402,-0.173993759323172,0.12936636826594886,0.8453215525661926,0.399143560140486,0.18316612699791182,-2.131120208894501
1772660022134310912,2.8551690578460693,-0.8844910264015198,0.18989768624305725,0.5471432209014893,0.16779813170433044,-0.38331225514411926,-0.9082486033439636,0.30259981751441956,-0.5978736281394958,-0.3494723439216614,-0.4911394103951831,-0.17290099802967535,0.12641580235158167,0.8443378016190516,0.3933798264112236,0.18268918403371434,-2.124405117794257
1772660022144348928,2.8652069568634033,-1.050333023071289,0.16460378468036652,0.5046517252922058,0.16731439530849457,-0.37528154253959656,-0.911685049533844,0.42825138568878174,-0.33947062492370605,-0.39355170726776123,-0.49436565063708743,-0.17087087782187038,0.12231356719882638,0.8434721247885386,0.38470051125545845,0.18150243262554744,-2.1167513152153625
1772660022154385920,2.875244140625,-1.1167086362838745,0.05878440663218498,0.39394012093544006,0.16676057875156403,-0.3661115765571594,-0.9155070781707764,0.41769683361053467,0.002754032611846924,-0.5608417987823486,-0.49723561345242034,-0.1684197282667572,0.11781874393687224,0.842917674770852,0.3748270337262069,0.18017570280653142,-2.1099331399227315
1772660022164423936,2.885282039642334,-1.1903573274612427,-0.08123528212308884,0.5063444375991821,0.16510222852230072,-0.35620632767677307,-0.9197055697441101,0.3157174587249756,0.41615813970565796,-0.6765316128730774,-0.5000395248849401,-0.16524229501239393,0.11332346140809808,0.8425041963344817,0.36420477266032525,0.17762448009035503,-2.1031081545851524
1772660022174460928,2.8953189849853516,-0.7356595993041992,-0.1539832502603531,0.5786889791488647,0.16187193989753723,-0.3477734625339508,-0.9234994053840637,0.17086121439933777,0.8387097716331482,-0.6561972498893738,-0.5031808454665382,-0.16181452783760283,0.10984702666038439,0.8417593185731427,0.3551952760074238,0.17351834481110784,-2.0952525752166418
1772660022184498944,2.9053571224212646,0.48117414116859436,0.06021851673722267,0.15473634004592896,0.15989433228969574,-0.34688788652420044,-0.9241766929626465,-0.058774352073669434,1.0219062566757202,-0.5316795706748962,-0.5049616310058966,-0.1609099728322801,0.10963406266108838,0.8408935649561582,0.3542509036731016,0.1713167957734883,-2.0907483401611566
1772660022194535936,2.9153940677642822,1.7274901866912842,0.5020740628242493,-0.3851832151412964,0.1629074066877365,-0.35724350810050964,-0.9196946620941162,-0.3041427731513977,0.7626543045043945,-0.3113691806793213,-0.5036039668617917,-0.16503279135954108,0.11365231541584216,0.8403751815270695,0.36531498011944075,0.17531362167199635,-2.094304655672478
1772660022204573952,2.925431966781616,1.9132696390151978,0.7106448411941528,-0.342254638671875,0.17024821043014526,-0.3739904761314392,-0.9116724729537964,-0.31311625242233276,0.2972692847251892,0.07076060771942139,-0.5006582017888972,-0.17273204179713253,0.11969717764034402,0.8397485208484057,0.3833080276688148,0.1846163012294543,-2.1022713709312124
1772660022214610944,2.935469150543213,1.3138599395751953,0.5173488855361938,-0.008647127076983452,0.17668934166431427,-0.3886539340019226,-0.9042837023735046,-0.046867579221725464,-0.07234460115432739,0.40379542112350464,-0.49889655531434307,-0.17963139108242476,0.12486275617972907,0.8385965735883287,0.3991702125505658,0.1929603971206976,-2.107391647773882
1772660022224647936,2.9455060958862305,0.6308400630950928,0.17272122204303741,-0.04799320176243782,0.17977853119373322,-0.39732882380485535,-0.8998941779136658,0.16481070220470428,-0.31641629338264465,0.42508643865585327,-0.4982292651628882,-0.18346202323770772,0.12804140364129393,0.8376842091515861,0.4086041990007825,0.1971815263835269,-2.109444762134695
1772660022234685952,2.9555439949035645,0.08675029873847961,-0.0885579064488411,-0.24033322930335999,0.18069587647914886,-0.40018150210380554,-0.898445188999176,0.15377677977085114,-0.37128761410713196,0.21868139505386353,-0.49728518254848636,-0.18456871219170762,0.12927406927334212,0.8378127220607217,0.4117148777707199,0.1984728616872095,-2.111838288566529
1772660022244722944,2.965580940246582,-0.07396667450666428,-0.2248704731464386,-0.22332119941711426,0.18022792041301727,-0.3995191156864166,-0.8988339304924011,0.09729892015457153,-0.21646293997764587,0.013137519359588623,-0.49617120902686374,-0.18399026770674076,0.12934692206861909,0.8385888240789887,0.4109922161423388,0.19788882659865475,-2.114419722642577
1772660022254760960,2.975619077682495,0.2367853820323944,-0.18709047138690948,-0.14059291779994965,0.17894159257411957,-0.39975717663764954,-0.8989850282669067,0.06706060469150543,-0.025734156370162964,-0.12239253520965576,-0.49520431590393893,-0.18332433169410273,0.1299987159439665,0.8392051248943555,0.4112519206718855,0.196480448077588,-2.116502154078804
1772660022264797952,2.9856560230255127,0.7009711861610413,-0.027136225253343582,-0.1524333357810974,0.17854826152324677,-0.40376895666122437,-0.8972687125205994,-0.006688520312309265,0.045034825801849365,-0.20430904626846313,-0.4941051037462589,-0.1841422490383195,0.13212599318230633,0.8393416632108157,0.41563281819248077,0.19642504074868536,-2.1190272752327166
1772660022274835968,2.995694160461426,0.9124380350112915,0.06612247973680496,-0.2045523226261139,0.1795501559972763,-0.41097912192344666,-0.8937885165214539,-0.0946044772863388,0.016585171222686768,-0.23020440340042114,-0.49259018895101875,-0.186463256465599,0.13541490628015,0.8391955270326779,0.4235278050221488,0.19824793288562567,-2.1227665214536615
1772660022284872960,3.0057311058044434,0.5821051001548767,0.05379364266991615,-0.17513211071491241,0.18099984526634216,-0.41752955317497253,-0.8904538750648499,-0.09922799468040466,-0.014568835496902466,-0.039126813411712646,-0.49108382413978524,-0.18879924530286973,0.13830365128271296,0.8390849649996877,0.43072483114395316,0.200534873148533,-2.126577898319821
1772660022294910976,3.0157690048217773,0.12205400317907333,-0.14166466891765594,-0.0616014264523983,0.1811755746603012,-0.4203415513038635,-0.8890941739082336,-0.0032886266708374023,0.028007566928863525,0.37789422273635864,-0.4902247260931992,-0.18956234565753638,0.13971056440855786,0.8391822901380189,0.43382171834637273,0.20102317181727258,-2.1286400789973428
1772660022304947968,3.025805950164795,-0.1661389023065567,-0.4511394202709198,0.04839644953608513,0.1786050796508789,-0.42004886269569397,-0.8897523283958435,0.0968160480260849,0.09988895058631897,0.6281861662864685,-0.4900392170940024,-0.18826644274712423,0.14028393021373603,0.839486664273669,0.4334991569639817,0.19810288986262575,-2.128602250637355
1772660022314984960,3.0358431339263916,-0.31126654148101807,-0.6856358647346497,0.05633559823036194,0.1731410175561905,-0.4180961549282074,-0.8917498588562012,0.10247848927974701,0.1067100465297699,0.6170001029968262,-0.4900962095096264,-0.18520105989479455,0.1408035419418559,0.8400480399133621,0.4313484894364581,0.19177268622386268,-2.1274595898632813
1772660022325022976,3.0458810329437256,-0.5192373394966125,-0.6991980075836182,0.041751597076654434,0.16656936705112457,-0.4143425226211548,-0.8947485089302063,-0.023686066269874573,-0.020670294761657715,0.5251958966255188,-0.49018210874702833,-0.18111625834569942,0.1407928807943294,0.8408899028191851,0.4272202774985095,0.18405636136035716,-2.1260751143218912
1772660022335059968,3.055917978286743,-0.7910766005516052,-0.5932685732841492,0.09976109862327576,0.16048727929592133,-0.4087573289871216,-0.8984215259552002,-0.17618858814239502,-0.23279842734336853,0.40342646837234497,-0.4905822733404867,-0.17678843085238696,0.1397679440797702,0.8417480387323664,0.42109202560136266,0.1767680307146308,-2.124091168179661
1772660022345097984,3.0659561157226562,-1.1256921291351318,-0.45446303486824036,0.10369778424501419,0.15522132813930511,-0.4001074433326721,-0.9032277464866638,-0.2627805471420288,-0.352990061044693,0.1834554672241211,-0.49151482887567155,-0.17205143769333822,0.13705630148111742,0.8426309659239437,0.411634068425521,0.1701894071901493,-2.1210921672709477
1772660022355134976,3.075993061065674,-1.139376163482666,-0.20294907689094543,0.09934032708406448,0.1517968624830246,-0.38984182476997375,-0.9082846641540527,-0.2903009057044983,-0.31461068987846375,0.013829708099365234,-0.49266810644024694,-0.16774059652516557,0.1331192928154636,0.8434575022869114,0.40045981259765767,0.16559436538081712,-2.1179731656221765
1772660022365172736,3.086030960083008,-0.882337749004364,0.01933327130973339,0.16887040436267853,0.15053071081638336,-0.3806416690349579,-0.9123883247375488,-0.20486725866794586,-0.18301799893379211,-0.31951475143432617,-0.4940509156974957,-0.16475939724514777,0.12907435472242076,0.8438648032992561,0.390490105082705,0.16351235999320865,-2.1146762962761945
1772660022375209984,3.0960681438446045,-0.4111488461494446,0.06307196617126465,0.10908349603414536,0.15040740370750427,-0.3749111592769623,-0.9147782325744629,0.0008071810007095337,-0.01907077431678772,-0.5188002586364746,-0.4952367962088827,-0.16325401474552598,0.12632893215385205,0.8438778074325399,0.384300937520448,0.16296147852919474,-2.111963647562043
1772660022385248000,3.1061060428619385,-0.10218006372451782,0.03646911680698395,0.027203548699617386,0.15066424012184143,-0.3728371262550354,-0.9155832529067993,0.16664226353168488,0.09433373808860779,-0.5222218632698059,-0.49573062340682317,-0.16285444638114444,0.12524691696826346,0.8438262274255343,0.3820647517650166,0.16309384494378934,-2.1108760855134943
1772660022395284992,3.116142988204956,-0.06453624367713928,-0.10802055895328522,0.07265771180391312,0.15019409358501434,-0.3722643256187439,-0.9158935546875,0.25243958830833435,0.1473497748374939,-0.22784423828125,-0.4959560783128162,-0.16251341728818688,0.12507043747555477,0.8437856376466452,0.3814474886633251,0.16253972394170693,-2.1102768119778483
1772660022405323008,3.126181125640869,-0.06263900548219681,-0.20278355479240417,0.14526987075805664,0.148331880569458,-0.3718836307525635,-0.9163515567779541,0.246535062789917,0.13370922207832336,0.07531768083572388,-0.49637953340263163,-0.16162949570994267,0.1253001071923546,0.8436724130650927,0.3810373661445804,0.1604802269181389,-2.108979475064531
1772660022415360000,3.1362180709838867,-0.20952801406383514,-0.2571212351322174,0.12225789576768875,0.14563146233558655,-0.3709407448768616,-0.917166531085968,0.12016136944293976,0.05660969018936157,0.15148049592971802,-0.49693679512503497,-0.16022954722774893,0.12547200402870018,0.8435859113840791,0.380021833270603,0.15746949112777894,-2.1072415686398434
1772660022425396992,3.1462550163269043,-0.5587860941886902,-0.24822494387626648,0.09968946874141693,0.14291132986545563,-0.36769405007362366,-0.9189001321792603,-0.05640925467014313,0.013888508081436157,0.20626890659332275,-0.4975198623318115,-0.15817257561985495,0.12462494041261173,0.843755936931554,0.3765281572394829,0.15428829583277495,-2.105496620010357
1772660022435435008,3.1562931537628174,-0.8256624341011047,-0.20067685842514038,0.1534501612186432,0.1403433084487915,-0.36128389835357666,-0.921833872795105,-0.1481863409280777,0.09420931339263916,0.37071692943573,-0.49847002038648613,-0.15534534970268637,0.12227379102541645,0.8440643798095355,0.369644431035973,0.1510834573534733,-2.1029929423805003
1772660022445472000,3.166330099105835,-0.7026593089103699,-0.0877002403140068,0.20976883172988892,0.1383689045906067,-0.3543310761451721,-0.9248262047767639,-0.13778908550739288,0.21004396677017212,0.4183107018470764,-0.49975764116315624,-0.15268349195283498,0.11947652387754815,0.8441892394915297,0.36219863450798934,0.1485144929239025,-2.099806359947057
1772660022455510016,3.176367998123169,-0.5869470238685608,-0.03491705283522606,0.2532708942890167,0.13702446222305298,-0.34876206517219543,-0.9271404147148132,-0.09610038995742798,0.21300461888313293,0.21777456998825073,-0.501191220651364,-0.15071476843640977,0.11711046887961152,0.8440245929723204,0.3562499121829178,0.14673039905544621,-2.0963419834787316
1772660022465546752,3.1864049434661865,-0.5797170400619507,-0.04454011842608452,0.23429135978221893,0.1357962042093277,-0.3436793088912964,-0.9292168021202087,-0.0338980108499527,0.14027968049049377,-0.0034461021423339844,-0.502670308569458,-0.1489396173786303,0.11492858175186299,0.843759955683855,0.3508320747130436,0.14511324194706676,-2.092778066601795
1772660022475585024,3.1964430809020996,-0.5326743721961975,-0.05109921842813492,0.19344298541545868,0.13469818234443665,-0.3387942612171173,-0.9311685562133789,0.01990385353565216,0.06593659520149231,-0.1494131088256836,-0.5039578755832382,-0.14725043133284466,0.11284076429688589,0.8435702668852688,0.3456350685308762,0.1436585112799368,-2.089684652957663
1772660022485622016,3.206480026245117,-0.5152503252029419,-0.0794224664568901,0.17200107872486115,0.13344010710716248,-0.3341546654701233,-0.9330243468284607,0.056058794260025024,7.873773574829102e-05,-0.2140093445777893,-0.5050756241199358,-0.14553550118082445,0.11093806433215295,0.8434517191348322,0.34070820321324896,0.14205557319096254,-2.0869666571673675
1772660022495659776,3.216517925262451,-0.46756240725517273,-0.040030453354120255,0.13216857612133026,0.13233959674835205,-0.3296752870082855,-0.9347729086875916,0.050521716475486755,-0.02577817440032959,-0.19308042526245117,-0.5060430944662296,-0.14391549669830728,0.10909566226752948,0.8433901170502545,0.33595961993798995,0.1406394112124086,-2.084625527603572
1772660022505697024,3.226555109024048,-0.3599371314048767,0.03499292582273483,0.1327802985906601,0.13187921047210693,-0.32599157094955444,-0.9361289143562317,-0.0018590837717056274,0.020480096340179443,-0.1629921793937683,-0.5068752802233787,-0.14278479670608885,0.10746178355916763,0.8432923705685218,0.3320604076703217,0.1399561677617752,-2.0826753786238865
1772660022515734016,3.2365920543670654,-0.24566489458084106,0.09757933765649796,0.18175797164440155,0.13201837241649628,-0.323360413312912,-0.9370214343070984,-0.032225921750068665,0.11478805541992188,-0.10020995140075684,-0.5078040579866391,-0.14222606885999908,0.1061179456536978,0.8429981339188999,0.32927853762009207,0.13997021375086907,-2.080551501580848
1772660022525771776,3.2466299533843994,-0.1820875108242035,0.10766952484846115,0.21184901893138885,0.13237705826759338,-0.3216654062271118,-0.937554121017456,-0.029029279947280884,0.17038977146148682,0.030098676681518555,-0.5088478467816637,-0.14203985575102407,0.10510770320415724,0.8425265848462912,0.32748786038680033,0.14026683684549374,-2.0781606217098507
1772660022535809024,3.256667137145996,-0.19338539242744446,0.08360452950000763,0.2508692741394043,0.13256479799747467,-0.3202430307865143,-0.9380143880844116,-0.01121164858341217,0.16074290871620178,0.16483628749847412,-0.5100037570591311,-0.14186680478942673,0.10424305907817635,0.8419640360673276,0.32598600663925426,0.1403951374923706,-2.0754722305142534
1772660022545847040,3.26670503616333,-0.29061686992645264,0.050741925835609436,0.28717321157455444,0.13233932852745056,-0.3183675706386566,-0.9386844038963318,0.03360000252723694,0.09981593489646912,0.2587527632713318,-0.5113481236766295,-0.14140516675179451,0.10325880299331285,0.8413473261300304,0.3240069552471577,0.1400607348793413,-2.072289522758615
1772660022555883776,3.2767419815063477,-0.3979201018810272,-0.003625307697802782,0.28245529532432556,0.13168765604496002,-0.3154623806476593,-0.9397562742233276,0.08111141622066498,0.027956277132034302,0.18569743633270264,-0.5128223483768747,-0.1404789689313451,0.10191919783238053,0.8407683271500607,0.32094387129293345,0.13922302707666753,-2.0687636254626955
1772660022565922048,3.2867801189422607,-0.3406493663787842,-0.022475961595773697,0.20975205302238464,0.1307182013988495,-0.3122175633907318,-0.9409744739532471,0.09541705250740051,-0.027473628520965576,-0.06744837760925293,-0.5141227263249974,-0.13929362358869915,0.10054874107904269,0.8403363172749042,0.31752637968023983,0.13803448315919076,-2.0656175176757365
1772660022575959040,3.2968170642852783,-0.17957991361618042,0.00495899235829711,0.10006830096244812,0.13011763989925385,-0.3099261224269867,-0.9418148398399353,0.06920792162418365,-0.0638989508152008,-0.2641788125038147,-0.5149765848987167,-0.13848475467619006,0.09957182526853844,0.8400634186516254,0.31511531254765707,0.13728720768638913,-2.0635598475366055
1772660022585996800,3.3068549633026123,0.10181819647550583,0.029683247208595276,0.009244654327630997,0.13020046055316925,-0.30956757068634033,-0.9419212937355042,0.018359094858169556,-0.06003081798553467,-0.33801645040512085,-0.5152221783130277,-0.1384490839989551,0.0993538763368479,0.8399445482103275,0.3147382301942306,0.13735817310578016,-2.0629935722845008
1772660022596034048,3.316892147064209,0.335892915725708,0.017416993156075478,-0.0023683258332312107,0.13041403889656067,-0.31176477670669556,-0.9411667585372925,-0.02630332112312317,-0.03836339712142944,-0.31397545337677,-0.5150907024356025,-0.1391477035879043,0.1002722570459344,0.8398006114415616,0.3170498220138972,0.1376895673663618,-2.0632845739735393
1772660022606072064,3.326930046081543,0.4175960421562195,0.012962324544787407,-0.06412196904420853,0.13064157962799072,-0.31533434987068176,-0.9399452209472656,-0.04743540287017822,0.014019042253494263,-0.19221115112304688,-0.514709239896668,-0.14021088727520117,0.10182484109720509,0.839670725746604,0.32080896399177355,0.13810375449681103,-2.0641400392577167
1772660022616108800,3.3369669914245605,0.30792054533958435,0.008500597439706326,-0.08628466725349426,0.13101570308208466,-0.31878533959388733,-0.9387282729148865,-0.08377450704574585,0.07270687818527222,-0.11269378662109375,-0.5140771673509879,-0.14127487396279015,0.10333087089783341,0.83969562912147,0.3244476848649389,0.13867146494341678,-2.065612804407692
1772660022626145792,3.347003936767578,0.168259859085083,-0.0043717920780181885,-0.003777271369472146,0.13117627799510956,-0.32083776593208313,-0.9380063414573669,-0.06473952531814575,0.06284219026565552,0.02127361297607422,-0.5137411995493222,-0.14188525668290033,0.10423723437194092,0.8396862727784596,0.32661386907438983,0.13894473722739537,-2.066384700616504
1772660022636184064,3.357042074203491,0.14469917118549347,-0.018590008839964867,-0.019269810989499092,0.13107150793075562,-0.32238203287124634,-0.9374913573265076,0.015000879764556885,-0.026174485683441162,0.12026119232177734,-0.513593124847104,-0.14225813098232468,0.10496156891701566,0.8396236549103259,0.328244791240879,0.13891046020262915,-2.0666859994584383
1772660022646220800,3.367079019546509,-0.05644165724515915,-0.07334939390420914,-0.053826458752155304,0.13080544769763947,-0.3227401375770569,-0.9374052882194519,0.019737765192985535,-0.14254608750343323,0.06803584098815918,-0.5133762511742213,-0.14221519191942092,0.10522442829451528,0.8397306082817737,0.3286231365523094,0.13864466794274122,-2.067158045701283
1772660022656259072,3.377117156982422,-0.0864466056227684,-0.10108115524053574,-0.046073995530605316,0.1301133632659912,-0.32188257575035095,-0.937796413898468,-0.022844061255455017,-0.16522374749183655,0.07756692171096802,-0.5131818347508504,-0.14164289257616694,0.10506705282365493,0.8399657769853021,0.3277172167070969,0.13786359522183106,-2.0675498486973205
1772660022666296064,3.3871541023254395,-0.014419547282159328,-0.08424944430589676,-0.04446864128112793,0.12939076125621796,-0.3213734030723572,-0.9380709528923035,-0.07912831008434296,-0.09801438450813293,-0.004418611526489258,-0.5129788742637746,-0.14115489510694318,0.1050704852138486,0.8401714757987232,0.3271794757546157,0.13706790488962928,-2.0679495743388436
1772660022676333824,3.3971920013427734,-0.022304635494947433,-0.06852401793003082,-0.026151951402425766,0.12879392504692078,-0.3211347460746765,-0.9382348656654358,-0.12372802197933197,-0.006715595722198486,-0.08137267827987671,-0.5127969288200946,-0.1408015448577699,0.10515467060231096,0.8403313884791975,0.326927449223213,0.13641997008045034,-2.0683093840350972
1772660022686370816,3.407228946685791,0.10405543446540833,-0.03340677544474602,-0.02889340929687023,0.12838205695152283,-0.32148289680480957,-0.9381720423698425,-0.08802255988121033,0.05971837043762207,-0.05853205919265747,-0.5126343458302204,-0.14069802494788497,0.10544212391132003,0.8404118033583489,0.3272950945262675,0.13599806162042732,-2.0686321147752667
1772660022696409088,3.417267084121704,0.13474276661872864,-0.012813346460461617,-0.07642018049955368,0.12831799685955048,-0.3226604163646698,-0.937776505947113,-0.017432376742362976,0.0495128333568573,-0.03794676065444946,-0.5123144782841011,-0.14096232488346128,0.10602534839881045,0.8404892513317264,0.32853889019944366,0.13598766817768201,-2.0693542910636946
