time,seconds_elapsed,rotationRateX,rotationRateY,rotationRateZ,gravityX,gravityY,gravityZ,accelerationX,accelerationY,accelerationZ,quaternionW,quaternionX,quaternionY,quaternionZ,pitch,roll,yaw
1773062430856474624,0.026257753372192383,0.11717596650123596,0.0011732976417988539,-0.024055875837802887,0.11563213914632797,-0.17000751197338104,-0.9786350727081299,0.00814715027809143,-0.020849406719207764,-0.017107665538787842,0.9342981023804721,0.10021514542368105,0.02528588115804559,-0.341181170058957,0.170837287384193,0.11761124631021418,-0.7103386224874735
1773062430866510592,0.036293745040893555,0.16540926694869995,0.0056641860865056515,-0.009165342897176743,0.11572030931711197,-0.1714516133069992,-0.9783726930618286,-0.010282084345817566,-0.0033225417137145996,-0.012960255146026611,0.9341960803346012,0.1009218833804841,0.025068313586842552,-0.3412682480121632,0.17230291545585866,0.1177313716063505,-0.7106708056002434
1773062430876546560,0.04632973670959473,0.09902186691761017,-0.001505376072600484,0.0017326674424111843,0.11576192826032639,-0.17278660833835602,-0.9781329035758972,-0.016198329627513885,0.020564928650856018,-0.017243683338165283,0.9341143874949835,0.10156743444928308,0.024851729749332887,-0.3413161544370579,0.17365813380037914,0.11780193251585011,-0.7109042845440842
1773062430886582528,0.0563657283782959,0.01864553429186344,-0.03527718782424927,0.03544109687209129,0.11556287854909897,-0.17336323857307434,-0.978054404258728,-0.013222180306911469,0.011497989296913147,-0.0013462305068969727,0.9341172369969407,0.10180585655961488,0.024665103034766236,-0.3412509215277186,0.17424359177076254,0.11761059187202974,-0.7107971429281976
1773062430896618496,0.06640172004699707,-0.03925757855176926,-0.0687250867486,0.022136740386486053,0.1149943396449089,-0.17329907417297363,-0.9781327843666077,-0.008686356246471405,-0.025034666061401367,0.016630709171295166,0.9341878026042753,0.10167173389668656,0.024422721151638578,-0.34111508202310864,0.1741784433536115,0.11702796658767652,-0.7104369224072812
1773062430906654720,0.07643771171569824,-0.06779122352600098,-0.0892934799194336,-0.018576333299279213,0.11417954415082932,-0.17278030514717102,-0.9783200025558472,-0.009199075400829315,-0.04284164309501648,0.025561213493347168,0.9342212768933587,0.10128220373011211,0.024123048662306076,-0.3411606886433592,0.1736517351854165,0.11618419422415861,-0.7103952346686276
1773062430916690688,0.08647370338439941,-0.06419122219085693,-0.09313233196735382,-0.029541321098804474,0.11332482844591141,-0.172062948346138,-0.9785457849502563,-0.024015136063098907,-0.053706094622612,0.03540003299713135,0.9342256270084468,0.10079372206321091,0.023827323165173917,-0.3413140815469123,0.17292347513056697,0.11529581571153164,-0.7105619841492916
1773062430926726656,0.09650969505310059,-0.04167073592543602,-0.09031496942043304,-0.039890632033348083,0.11249204725027084,-0.1715075969696045,-0.978739321231842,-0.034351788461208344,-0.05542111396789551,0.03533416986465454,0.9342001664150992,0.10038782745195475,0.02350783831415995,-0.3415254447072258,0.17235974069344456,0.11443352281652626,-0.7108712018511137
1773062430936762624,0.10654568672180176,0.0004903664812445641,-0.07712097465991974,-0.029035987332463264,0.11171390861272812,-0.17125290632247925,-0.978873074054718,-0.02687504142522812,-0.03217726945877075,0.03578835725784302,0.9341615173616226,0.10013465408807698,0.02316305899123959,-0.34172899123997635,0.17210121873539402,0.11363338098506057,-0.7111981027977745
1773062430946798592,0.11658167839050293,0.04587888717651367,-0.036591656506061554,-0.008644161745905876,0.11117605119943619,-0.1714557260274887,-0.9788987636566162,-0.014755770564079285,-0.013572335243225098,0.033006489276885986,0.9341283535811036,0.10013948838547854,0.02286247272320933,-0.3418386022036039,0.17230707967835557,0.11308800402649663,-0.711392591617876
1773062430956834560,0.1266176700592041,0.11589977890253067,0.011243108659982681,-0.012418216094374657,0.11107675731182098,-0.17226965725421906,-0.9787671566009521,0.004615388810634613,-0.003084346652030945,0.02159857749938965,0.9340712538588202,0.10051161581132377,0.02266808417557765,-0.341898509650014,0.17313330745023908,0.11300292231273956,-0.7115849441398235
1773062430966870528,0.13665366172790527,0.14019714295864105,0.03542061895132065,0.0069245886988937855,0.11132512241601944,-0.17353984713554382,-0.9785144925117493,0.017092853784561157,0.006166175007820129,0.016325771808624268,0.9339963242554706,0.10116158740774066,0.022562773206920232,-0.3419184535314199,0.17442292193086845,0.11328243391830391,-0.7117723939381848
1773062430976906496,0.14668965339660645,0.16737602651119232,0.05222116783261299,0.007554692681878805,0.11172764748334885,-0.17505690455436707,-0.9781983494758606,0.014935560524463654,0.007408589124679565,0.019183456897735596,0.9339365224016145,0.10195448164979094,0.022496853701016433,-0.341850489451871,0.17596356756425643,0.11372494975921331,-0.7118125156648706
1773062430986942464,0.15672564506530762,0.1816493719816208,0.061824191361665726,-0.03971899300813675,0.11230874061584473,-0.1767522245645523,-0.9778268933296204,0.014491796493530273,0.009576946496963501,0.02319127321243286,0.933819110526615,0.10286689851070382,0.022471389967986383,-0.34189964442891774,0.17768574500814988,0.11435435409267326,-0.7121415985704435
1773062430996978432,0.1667616367340088,0.15057533979415894,0.05699188634753227,-0.08158467710018158,0.11301595717668533,-0.1783325970172882,-0.9774583578109741,0.015722453594207764,0.017062470316886902,0.02085435390472412,0.9336137817530887,0.10375276862297107,0.022498303998998395,-0.34219087705086243,0.1792916273553494,0.11511112977158013,-0.7129945818393728
1773062431007013632,0.17679667472839355,0.08542383462190628,0.035104334354400635,-0.07978788763284683,0.11361435800790787,-0.17941081523895264,-0.977191686630249,0.005922995507717133,0.017194628715515137,0.022723913192749023,0.9334039369629976,0.10438210150278313,0.022551011997985527,-0.34256807257221744,0.180387516413215,0.11574651631206757,-0.7139734520038037
1773062431017049600,0.18683266639709473,0.006627621129155159,-0.0026119863614439964,-0.07703857868909836,0.11390456557273865,-0.1797897219657898,-0.977088212966919,0.0012382492423057556,0.005198687314987183,0.02345973253250122,0.9332443054921121,0.10462291315672793,0.022581679497081907,-0.34292736440387256,0.18077268806767083,0.11605170232115541,-0.71481284114371
1773062431027085568,0.1968686580657959,-0.08002498745918274,-0.02625473216176033,-0.08928991854190826,0.11389502882957458,-0.17931509017944336,-0.9771765470504761,0.0010951980948448181,-0.005850300192832947,0.02301400899887085,0.9331232695900036,0.1044042478681369,0.02261582769931205,-0.3433209017475981,0.18029021648491944,0.1160316782827151,-0.7156097729203146
1773062431037121536,0.20690464973449707,-0.12952469289302826,-0.017598826438188553,-0.08767315745353699,0.11381478607654572,-0.1781284213066101,-0.977402925491333,0.0033269375562667847,-0.012209713459014893,0.024430513381958008,0.933025541656521,0.10383433291982004,0.02273701915213027,-0.3437511814783078,0.17908411932340298,0.115924047289621,-0.7164096145916806
1773062431047156224,0.21693944931030273,-0.10683562606573105,0.005254292394965887,-0.0298540648072958,0.11381659656763077,-0.17685095965862274,-0.9776346683502197,0.009321831166744232,-0.004682853817939758,0.018253564834594727,0.9329906930694655,0.10323181540889453,0.02293172626771882,-0.3440142223928203,0.17778606051751059,0.1158986421371149,-0.7168520870159415
1773062431057192448,0.2269754409790039,-0.045762285590171814,0.046336814761161804,0.02858678624033928,0.11408954113721848,-0.1760883629322052,-0.977740466594696,0.004929006099700928,0.005495131015777588,0.01369023323059082,0.9330284877210587,0.10291590439803211,0.02319638813295873,-0.3439884099456051,0.17701129935123955,0.11616162066366777,-0.7167550969201324
1773062431067228416,0.23701143264770508,0.034152254462242126,0.08578595519065857,0.06666332483291626,0.11465458571910858,-0.17611418664455414,-0.9776697158813477,-0.0047455355525016785,0.015957936644554138,0.011590063571929932,0.9331083725839094,0.10302161220413285,0.02348781391040758,-0.34372028630560975,0.17703752685359198,0.11674010354564199,-0.716246633259173
1773062431077264384,0.24704742431640625,0.10133522003889084,0.10025300830602646,0.06261084228754044,0.11546427011489868,-0.17686143517494202,-0.9774395227432251,-0.02093607187271118,0.030499130487442017,0.008887887001037598,0.9331787721842314,0.10351230629106632,0.02377891751013829,-0.34336161538266174,0.17779670091990235,0.11758439566915621,-0.7156409928487711
1773062431087300352,0.2570834159851074,0.12136831879615784,0.0937703400850296,0.03786315396428108,0.11635143309831619,-0.17805656790733337,-0.9771173000335693,-0.028415031731128693,0.038469165563583374,0.002645254135131836,0.9331950373396339,0.10423238821506743,0.024020068112159676,-0.3430824968467643,0.17901110195321224,0.11851815952371239,-0.7152588353145255
1773062431097336320,0.2671194076538086,0.09476926177740097,0.0714070200920105,0.0006658495403826237,0.11710324138402939,-0.179167702794075,-0.9768243432044983,-0.02336850017309189,0.03915305435657501,0.008486330509185791,0.9331642641173641,0.10489236817268728,0.024195618724307238,-0.3429528310596158,0.1801404039824399,0.1193121845271391,-0.7151749359295195
1773062431107372288,0.27715539932250977,0.048109084367752075,0.04450109601020813,-0.05113529413938522,0.11771418154239655,-0.17983528971672058,-0.9766281843185425,-0.016273751854896545,0.017863258719444275,0.013173043727874756,0.9330752927142427,0.1053217461373043,0.024356300821716057,-0.34305192138519186,0.1808190054345167,0.11995256326522516,-0.7155229136855887
1773062431117408256,0.28719139099121094,-0.008697738870978355,0.023843223229050636,-0.0777859091758728,0.11815212666988373,-0.17994338274002075,-0.9765554070472717,-0.014392361044883728,-0.005725547671318054,0.0058675408363342285,0.9329477354172212,0.10545861327406647,0.024510803139237276,-0.3433457315118552,0.180928901157553,0.12040343349416181,-0.7162139830375742
1773062431127444224,0.2972273826599121,-0.06407284736633301,0.02778336964547634,-0.05027518421411514,0.11850420385599136,-0.17952203750610352,-0.9765902757644653,-0.022343330085277557,-0.00886295735836029,0.008404910564422607,0.932849703798891,0.10532761865151162,0.02471740065051326,-0.3436371529463815,0.1805005778611608,0.12075447748541764,-0.716838065089982
1773062431137480192,0.3072633743286133,-0.09944821894168854,0.036688148975372314,-0.01946583017706871,0.11885425448417664,-0.17866167426109314,-0.9767054915428162,-0.022769667208194733,-0.0045658499002456665,0.017461776733398438,0.93283424107506,0.10498247378541097,0.025018418467216,-0.34376299930685017,0.17962607724975926,0.12109355213973196,-0.7170637633486187
1773062431147516160,0.31729936599731445,-0.08977215737104416,0.03996356949210167,-0.023768696933984756,0.11927416175603867,-0.1776731163263321,-0.9768346548080444,-0.017528563737869263,-0.0035707950592041016,0.022046446800231934,0.9328515517045366,0.10458653652785911,0.025383674922946072,-0.3438098535670175,0.17862143439116138,0.12150127503798107,-0.7171153815580275
1773062431157552128,0.3273353576660156,-0.052387360483407974,0.044555459171533585,-0.0502331480383873,0.11976010352373123,-0.1769462674856186,-0.9769071340560913,-0.008950777351856232,-0.0020240694284439087,0.02633035182952881,0.9328210316218596,0.10432970856840763,0.02572446630371561,-0.34394543956387025,0.17788288854507472,0.1219824374143927,-0.7173903689126488
1773062431167588352,0.3373713493347168,-0.02625136636197567,0.04872357100248337,-0.05466065555810928,0.12033743411302567,-0.17648352682590485,-0.9769198894500732,-0.0034245848655700684,0.003738775849342346,0.020575284957885742,0.9327444282440618,0.10421749834154856,0.026053179775800895,-0.34416252803884134,0.17741274787151184,0.12256303855256995,-0.7178763702411403
1773062431177624320,0.34740734100341797,-0.004227490164339542,0.05070406571030617,-0.04422403872013092,0.1209084764122963,-0.17627787590026855,-0.976886510848999,-0.0006234422326087952,0.01862405240535736,0.0056188106536865234,0.9326679438590486,0.10422600984965132,0.026337849085192436,-0.344345640207485,0.17720381646917743,0.12314296411633867,-0.7183140628233706
1773062431187660288,0.35744333267211914,0.02735360525548458,0.06420868635177612,-0.06416791677474976,0.12157944589853287,-0.17634472250938416,-0.9767911434173584,-0.0035832375288009644,0.02337537705898285,0.002258121967315674,0.9325604819932486,0.10438350921960336,0.026617679165171094,-0.3445671422360791,0.17727172677870384,0.12383135028872795,-0.7188724715247491
1773062431197696256,0.3674793243408203,0.0409381240606308,0.06701739132404327,-0.0704922154545784,0.12233906239271164,-0.17660722136497498,-0.9766488671302795,-0.0008028075098991394,0.00880633294582367,-0.0002645254135131836,0.9324167315512911,0.10465211708135405,0.026897774088283,-0.34485299636726363,0.17753841027423348,0.12461504065335334,-0.719598892692543
1773062431207732224,0.3775153160095215,0.019932707771658897,0.08396414667367935,-0.05330311134457588,0.1231924369931221,-0.17684955894947052,-0.9764977693557739,-0.0087820366024971,-0.00222758948802948,0.0016747713088989258,0.9322801125692077,0.10492730657759805,0.027228403832530248,-0.3451124364880422,0.17778463276163692,0.125494444287762,-0.7202778340894656
1773062431217768192,0.38755130767822266,-0.03052647039294243,0.08726753294467926,-0.040733788162469864,0.12411143630743027,-0.17676591873168945,-0.9763965010643005,-0.011211656033992767,-0.010261043906211853,0.0039539337158203125,0.9321953698891036,0.10505588654735934,0.0276586481349415,-0.3452681740361343,0.17769965330850981,0.12643367791789473,-0.7207095702630897
1773062431227804160,0.39758729934692383,-0.11574815213680267,0.08065890520811081,-0.03524235263466835,0.12500254809856415,-0.17601250112056732,-0.9764189720153809,-0.002199813723564148,-0.018720164895057678,0.01908254623413086,0.9321522404046216,0.1048595580565613,0.028195705831994322,-0.3454008915630836,0.1769342317742482,0.12732882644689755,-0.7210210081609825
1773062431237840128,0.407623291015625,-0.20558497309684753,0.08748318254947662,-0.01374984160065651,0.12587280571460724,-0.17440825700759888,-0.9765949845314026,0.0007598698139190674,-0.03861968219280243,0.03929340839385986,0.9321790913303792,0.1042516111895575,0.028880828143113522,-0.34545555915687426,0.17530478472205593,0.12818276918542074,-0.7210759019915461
1773062431247876352,0.4176595211029053,-0.5124104022979736,0.1542893797159195,0.262874037027359,0.1270507425069809,-0.1712004840373993,-0.9770099520683289,-0.0006316900253295898,-0.07173468172550201,0.05341076850891113,0.9324914030405556,0.10291520667352928,0.030057777794274047,-0.34491257962026795,0.172048009256088,0.12931470117194235,-0.7197208317969477
1773062431257912320,0.42769551277160645,-0.32253238558769226,0.19040504097938538,0.22545254230499268,0.12858377397060394,-0.16765403747558594,-0.9774243235588074,-0.0017984956502914429,-0.09874914586544037,0.06485718488693237,0.9331549421698198,0.10144753576865284,0.03156310378878783,-0.34341515285099616,0.1684495460375997,0.1308025649426723,-0.7163244556937762
1773062431267948288,0.4377315044403076,-0.1730925291776657,0.3367430567741394,0.02718631736934185,0.13081097602844238,-0.1654825061559677,-0.9774988889694214,0.029879331588745117,-0.1074056625366211,0.08704173564910889,0.9334331281606106,0.10078258359818622,0.033067172330713226,-0.34271290611133937,0.1662472478549852,0.13303175233026932,-0.7148470495726849
1773062431277984256,0.4477674961090088,-0.3106078505516052,0.4290459454059601,0.28757336735725403,0.13448257744312286,-0.16341236233711243,-0.9773488640785217,0.038567349314689636,-0.11670848727226257,0.07552391290664673,0.9337061166505695,0.1004138177322407,0.03525087401432629,-0.34185865592125714,0.1641485227942407,0.13674067572372284,-0.7132104762905961
1773062431288020480,0.45780348777770996,-0.5382589101791382,0.48490628600120544,0.5686575174331665,0.1381792426109314,-0.15994428098201752,-0.977406919002533,-0.0665392279624939,-0.11883379518985748,0.09889739751815796,0.9345843053646391,0.09931811534901451,0.037847616954589984,-0.3394932539109231,0.16063420845490572,0.14044258085840675,-0.7081926184549834
1773062431298056448,0.46783947944641113,-0.7892725467681885,0.5879281759262085,0.6552322506904602,0.14245755970478058,-0.15436437726020813,-0.9776898622512817,-0.05914457142353058,-0.13208886981010437,0.15987980365753174,0.935869016317579,0.09726063727132574,0.04117565535430379,-0.3361458444364965,0.1549840930083838,0.14469009620990042,-0.7009140142357048
1773062431308092416,0.4778754711151123,-1.1751720905303955,0.6695679426193237,0.7454931735992432,0.14766880869865417,-0.14580389857292175,-0.9782305955886841,-0.0006656348705291748,-0.24051810801029205,0.23860663175582886,0.9373573554339301,0.09389831528982368,0.04547303844870813,-0.3323799116477489,0.1463255116484421,0.1498238004568372,-0.6925221073459491
1773062431318128384,0.4879114627838135,-1.7129192352294922,0.7384142279624939,0.9582952260971069,0.1533043086528778,-0.13311995565891266,-0.9791715145111084,-0.009886965155601501,-0.38180312514305115,0.2598569989204407,0.9392479502391985,0.08855888335213455,0.05071058071555937,-0.32771809874311186,0.13351628590553427,0.15530454530295557,-0.6818207223807566
1773062431328164352,0.49794745445251465,-2.3581600189208984,0.604529082775116,1.1913459300994873,0.15864095091819763,-0.11455319821834564,-0.9806684255599976,-0.011592015624046326,-0.46467041969299316,0.28486770391464233,0.9446943272755547,0.07969609603894906,0.057570027484116736,-0.31286851381494085,0.11480522906711489,0.16037883440381323,-0.6488674165211696
1773062431338200320,0.5079834461212158,-2.6085000038146973,0.6052305102348328,1.3459556102752686,0.16318431496620178,-0.09200681000947952,-0.9822961091995239,0.017144054174423218,-0.5180090665817261,0.3063317537307739,0.9474260041393867,0.06915026374495946,0.06379806690152671,-0.3058298307224543,0.09213711929300894,0.16462198382925253,-0.6320892906342449
1773062431348236288,0.518019437789917,-2.788668394088745,0.6824851036071777,1.5317379236221313,0.16837632656097412,-0.06778059899806976,-0.983389675617218,0.05374586582183838,-0.565489649772644,0.317709743976593,0.9502382353540858,0.05776292732388564,0.07048843237940215,-0.29789629952380664,0.06783260523030916,0.16957600154280073,-0.613352246561735
1773062431358272256,0.5280554294586182,-3.0009925365448,0.7626268267631531,1.7741279602050781,0.17461004853248596,-0.042122431099414825,-0.9837362766265869,0.06954583525657654,-0.5853189826011658,0.2543203830718994,0.9531570795871839,0.04565265988706351,0.07776698782901983,-0.2887207045992874,0.04213489916253746,0.17566725059055005,-0.5919594638933603
1773062431368308224,0.5380914211273193,-3.3415322303771973,0.8777422308921814,1.9538146257400513,0.1821344792842865,-0.014305026270449162,-0.9831695556640625,0.08077444136142731,-0.593147337436676,0.17233282327651978,0.9560994426249128,0.032456911947140336,0.08580073559339647,-0.27831372225637097,0.014305514580204123,0.18317576073141656,-0.5678442676442718
1773062431378344192,0.5481274127960205,-3.8892557621002197,0.9339114427566528,2.1238527297973633,0.19116118550300598,0.01744137331843376,-0.9814037084579468,0.09385773539543152,-0.6088567972183228,0.14610707759857178,0.9589260943560294,0.01729569110968808,0.09486314413798994,-0.2667629873918623,-0.017442256800195805,0.19237464506100732,-0.5409747131297193
1773062431388380416,0.5581634044647217,-4.525402069091797,0.9079887866973877,2.3305413722991943,0.2010509967803955,0.05433884635567665,-0.978072464466095,0.09651064872741699,-0.6026481986045837,0.14146357774734497,0.9615426394483909,-0.0006064664824491264,0.1047062100788614,-0.253913110279087,-0.05436562243547063,0.20273439489698492,-0.5108190248227976
1773062431398416384,0.5681993961334229,-5.301396369934082,0.8359422087669373,2.551858425140381,0.21148453652858734,0.09731501340866089,-0.9725245833396912,0.10219037532806396,-0.6048833727836609,0.11107438802719116,0.9638063788235934,-0.021876255475624933,0.11514832063077772,-0.23945666641247731,-0.09746927241086473,0.21412563488139355,-0.4765529813874788
1773062431408452352,0.578235387802124,-6.117231369018555,0.7118245363235474,2.7110557556152344,0.22225981950759888,0.14708982408046722,-0.9638283848762512,0.11132781207561493,-0.6542462110519409,0.04836207628250122,0.9654090478105929,-0.04702703404213682,0.12599312392189005,-0.2233819090424554,-0.1476254402875302,0.22663915457655304,-0.43793720684684134
1773062431418487296,0.5882704257965088,-6.8662190437316895,0.46134302020072937,2.845897912979126,0.2329566925764084,0.20324519276618958,-0.9510113596916199,0.12196274101734161,-0.7101421356201172,0.03536194562911987,0.965993883741149,-0.07605632401102622,0.13678365132118103,-0.20581882186875047,-0.20467115292293445,0.24022651996247782,-0.3950625222765893
1773062431428523264,0.59830641746521,-7.5611114501953125,0.20639729499816895,2.9504716396331787,0.2429562509059906,0.26453539729118347,-0.9332702159881592,0.1412142813205719,-0.7425017356872559,0.04121088981628418,0.9652735292577128,-0.10861015672194962,0.1468629719680071,-0.18676717931004536,-0.26772211220740666,0.254675152778547,-0.3477697791507029
1773062431438559232,0.6083424091339111,-8.227412223815918,-0.14254827797412872,2.9389986991882324,0.2520465850830078,0.33025479316711426,-0.9096176624298096,0.18932917714118958,-0.7563412189483643,0.06353306770324707,0.9628540432759488,-0.14454328558472818,0.15587945850954746,-0.16649599059185166,-0.3365734912483708,0.2703088597941817,-0.296254837631145
1773062431448595200,0.6183784008026123,-8.728126525878906,-0.538654625415802,2.819401741027832,0.25960591435432434,0.3990798592567444,-0.8793975114822388,0.25510352849960327,-0.7458359003067017,0.058551013469696045,0.9583937369862032,-0.18340674126887987,0.16328870336293047,-0.14553402103097743,-0.4105131188657019,0.28705543263910177,-0.24124414525554758
1773062431458631168,0.6284143924713135,-9.059178352355957,-0.9988929033279419,2.6976113319396973,0.2649811804294586,0.46881067752838135,-0.8426159024238586,0.3014708161354065,-0.6998440027236938,0.04755669832229614,0.9517913623702097,-0.22431451340742467,0.1684489846742381,-0.12410120031156023,-0.48794383767342053,0.30468265595004884,-0.1829111684099124
1773062431468667392,0.6384503841400146,-9.188366889953613,-1.473853588104248,2.6112022399902344,0.2681546211242676,0.5371128916740417,-0.7997516989707947,0.33835169672966003,-0.6051366329193115,0.07721757888793945,0.9430990476099456,-0.26623216049645665,0.171010494350422,-0.10217594655120746,-0.5670106590160705,0.3235171252079483,-0.12082231047678887
1773062431478703360,0.6484863758087158,-9.00810432434082,-1.8911486864089966,2.64697527885437,0.2699836492538452,0.6010637879371643,-0.7522174715995789,0.3839622735977173,-0.4355059266090393,0.12453192472457886,0.932620013656555,-0.30765941508774125,0.17098812718683984,-0.07955265134216485,-0.6448314898193611,0.34459651521914536,-0.05404597456960107
1773062431488739328,0.658522367477417,-8.674665451049805,-2.1188526153564453,2.621406078338623,0.27206701040267944,0.6583806276321411,-0.7017937898635864,0.40836817026138306,-0.2077428102493286,0.15061581134796143,0.920719227324469,-0.3471973078452526,0.1689885461106943,-0.056329652806289564,-0.7186652421234947,0.3698353028643058,0.01809241219635862
1773062431498775296,0.6685583591461182,-8.212442398071289,-2.208812952041626,2.6894078254699707,0.2752516269683838,0.7084056735038757,-0.6499214172363281,0.3985764682292938,0.04505801200866699,0.1776772141456604,0.9076678887536869,-0.3841817376400298,0.16566133030522454,-0.03316051197634984,-0.7872367784800128,0.40061234738308393,0.09519917750373347
1773062431508811264,0.6785943508148193,-7.870571136474609,-2.126326560974121,2.779284715652466,0.281878262758255,0.751092255115509,-0.5969967842102051,0.3321049213409424,0.24082064628601074,0.2479671835899353,0.8935342948327532,-0.41852279616118804,0.1622968954789997,-0.009745499593609958,-0.8497149883392747,0.4411289583385954,0.18036825077858432
1773062431518847232,0.6886303424835205,-7.448796272277832,-2.2568359375,2.7437379360198975,0.2907710075378418,0.7870012521743774,-0.5441335439682007,0.2553410530090332,0.35522592067718506,0.24879968166351318,0.8785695843507447,-0.45032461220392306,0.15855905366163453,0.013502136832781562,-0.9059332097873967,0.4907674644331523,0.27331615482057353
1773062431528883200,0.6986663341522217,-7.248236179351807,-2.5534143447875977,2.6529171466827393,0.30007126927375793,0.8170508146286011,-0.4923262894153595,0.2630085349082947,0.42799001932144165,0.190400630235672,0.8630288100734994,-0.47988228808309,0.1534595902422903,0.036666471161704295,-0.9562772702264879,0.5473731627013704,0.3738695193288027
1773062431538919168,0.7087023258209229,-7.593660354614258,-2.823683023452759,2.482595682144165,0.3089870512485504,0.843730628490448,-0.43891412019729614,0.24460184574127197,0.324787437915802,0.19326287508010864,0.8460849486956901,-0.5089949180451491,0.14651660130383262,0.05997708172405753,-1.004195856367893,0.6133925420188252,0.4858396954580847
1773062431548955136,0.718738317489624,-8.134976387023926,-3.153003454208374,2.117116928100586,0.3166061043739319,0.868831992149353,-0.38064607977867126,0.2639144957065582,0.2234073281288147,0.17213478684425354,0.8266866140011112,-0.5392942059619109,0.1372541929758959,0.08313986478414778,-1.052838353354715,0.6938088922642306,0.6146188473001856
1773062431558991104,0.7287743091583252,-8.711979866027832,-3.5140879154205322,1.5742175579071045,0.32129013538360596,0.8923604488372803,-0.3169628977775574,0.27567943930625916,0.22574251890182495,0.09564942121505737,0.8045663642823366,-0.5709318906833454,0.12472100460155171,0.10561460530665336,-1.1025485384069036,0.7921778918885393,0.7643986177259215
1773062431569027072,0.7388103008270264,-9.302064895629883,-3.8754701614379883,0.8246504068374634,0.3218368887901306,0.9139808416366577,-0.24710334837436676,0.2790084183216095,0.21228563785552979,0.047411561012268066,0.7794501874513523,-0.603898312246424,0.1084211937851301,0.12652714162017084,-1.1529890686324817,0.9160061123764814,0.9421816062409345
1773062431579063296,0.7488462924957275,-9.913433074951172,-4.802820682525635,0.8826949000358582,0.3198099136352539,0.931672215461731,-0.17236153781414032,0.3332052230834961,0.15394484996795654,0.018522441387176514,0.75121365405737,-0.6373186892307451,0.08743067248242992,0.14784728645104217,-1.1989888934830206,1.0764764087949867,1.163443818414283
1773062431589099520,0.7588825225830078,-11.394124031066895,-5.208159923553467,0.8649614453315735,0.3221258521080017,0.9425125122070312,-0.08891189843416214,0.4580560326576233,0.0887376070022583,0.06901442259550095,0.7175350854596033,-0.6719604908526844,0.06334943526752838,0.17204506935159927,-1.2300710300929418,1.3014857849553916,1.4576212031048172
1773062431599135488,0.768918514251709,-12.800694465637207,-4.46324348449707,-0.3994135558605194,0.32236701250076294,0.9465581774711609,0.010360103100538254,0.5420586466789246,-0.06464594602584839,0.32200682163238525,0.6765140338943763,-0.7098469409455991,0.03601905130303739,0.19274029122678693,-1.2423919515226656,1.602922874322214,1.8280571904874605
1773062431609171456,0.7789545059204102,-13.895615577697754,-4.010714054107666,-0.39681193232536316,0.3204496204853058,0.9391950964927673,0.12338941544294357,0.3211061656475067,-0.3396161198616028,0.6330345869064331,0.6285512499678367,-0.7494301520162795,0.0070110581144927405,0.20791530470180206,-1.2202787324501239,1.9383495043603534,2.2279014242734725
1773062431619207424,0.7889904975891113,-14.319918632507324,-3.965973377227783,-0.20526325702667236,0.32569339871406555,0.9138038158416748,0.2426646500825882,0.11166924238204956,-0.47448813915252686,0.765773355960846,0.5738466968666244,-0.787958273413348,-0.021309190463920703,0.2221880411010888,-1.1525529176470861,2.2111352908643336,2.5650053323168045
1773062431629243392,0.7990264892578125,-14.002406120300293,-3.1851658821105957,-0.8445111513137817,0.33204853534698486,0.8726926445960999,0.35798174142837524,0.23600563406944275,-0.3171355724334717,0.8693130612373352,0.5164919183936192,-0.8225232553802503,-0.04946076470950702,0.23290569432258104,-1.0606900395103476,2.393759533177501,2.809422166125502
1773062431639279360,0.8090624809265137,-12.880423545837402,-2.6601388454437256,-1.4779025316238403,0.33390796184539795,0.8208421468734741,0.4633825719356537,0.10592660307884216,-0.03910398483276367,0.8474388718605042,0.46017097063702644,-0.851878621035178,-0.07742157341154267,0.2378051774043863,-0.9628838861221841,2.5171823840165026,2.988755007865023
1773062431649315328,0.8190984725952148,-10.794461250305176,-2.7422609329223633,-1.4849822521209717,0.3353266417980194,0.7656923532485962,0.5488817691802979,-0.2611689567565918,0.30303317308425903,0.5863110423088074,0.4094326739340889,-0.8738372430972988,-0.10416019156654148,0.24067400643622122,-0.872117028319509,2.5931773504535873,3.118205364316147
1773062431659351296,0.829134464263916,-9.151735305786133,-2.690495252609253,-1.1308631896972656,0.34181109070777893,0.7121633291244507,0.6131790280342102,-0.24459734559059143,0.6529184579849243,0.39051353931427,0.36550372160700356,-0.8890345825096823,-0.127306834164044,0.24457616545425306,-0.7925750209403595,2.633054589465287,-3.073773690866835
1773062431669387264,0.8391704559326172,-7.6885833740234375,-2.2555391788482666,-0.9158992767333984,0.3505486845970154,0.6616670489311218,0.6628060936927795,0.06751158833503723,0.6808316111564636,0.13373303413391113,0.32718309650547917,-0.899938260737268,-0.14667711087380605,0.24808880552056395,-0.7230399481271778,2.6551044013736846,-3.005590824329541
1773062431679423232,0.8492064476013184,-5.816895484924316,-2.0507562160491943,-0.476043701171875,0.36061233282089233,0.6178624629974365,0.6987162828445435,0.12898114323616028,0.2805749773979187,0.07212716341018677,0.2956898152264343,-0.9073142019695721,-0.16167582055657045,0.251414621098177,-0.666021273176673,2.6651426651052317,-2.956507944163054
1773062431689459200,0.8592424392700195,-3.5813679695129395,-2.0450963973999023,-0.2656422555446625,0.37307876348495483,0.5854485630989075,0.7197654247283936,0.017500460147857666,-0.12431269884109497,0.07743000984191895,0.27282942791191844,-0.91117103630212,-0.17219193015491613,0.2562838293575078,-0.6254332399218764,2.6633858120066214,-2.925347286478339
1773062431699495424,0.8692784309387207,-0.4292578101158142,-1.9027663469314575,-0.1437976360321045,0.3862542510032654,0.5711736679077148,0.724270761013031,0.14890199899673462,-0.09845644235610962,-0.08868122100830078,0.26183070088242116,-0.9111790176957759,-0.17857263092401232,0.2632665117207096,-0.6079350026808019,2.6516605855841258,-2.911054388634805
1773062431709531392,0.8793144226074219,3.5639374256134033,-1.519814133644104,0.46350881457328796,0.3993598520755768,0.5817196369171143,0.7085998058319092,0.28853684663772583,0.02146017551422119,-0.12716376781463623,0.26712604281849356,-0.9069391181686736,-0.17821715232444038,0.27266037902019835,-0.6208412474431274,2.628375501585287,-2.9214802558016335
1773062431719567360,0.889350414276123,8.107705116271973,-1.068299651145935,1.3944998979568481,0.41389569640159607,0.6181547045707703,0.6682624816894531,0.20184215903282166,-0.07677298784255981,-0.047214627265930176,0.29106314161899866,-0.8977841851946226,-0.16767465008439403,0.28486997742668524,-0.6663930123106552,2.5870586377286027,-2.9686822927136234
1773062431729603328,0.8993864059448242,12.825469970703125,-0.549614667892456,2.120412826538086,0.43069013953208923,0.6770881414413452,0.5967055559158325,0.04530775547027588,-0.1347450613975525,0.0663955807685852,0.3345556407008113,-0.881562881940572,-0.14560101126446076,0.2995324685640975,-0.7437985231519458,2.516398292607598,-3.0650234936905734
1773062431739639296,0.9094223976135254,16.65358543395996,0.19765722751617432,2.1932497024536133,0.44761183857917786,0.7483927011489868,0.48944029211997986,-0.07075032591819763,0.03352862596511841,0.2766271233558655,0.39573276112465816,-0.855473510228455,-0.11351308996191044,0.3141263501317396,-0.8456353967042777,2.4008032156799137,3.059472758992408
1773062431749675264,0.9194583892822266,18.611764907836914,1.506807565689087,1.6466755867004395,0.4594242572784424,0.8148148059844971,0.35356253385543823,-0.16694375872612,0.21820533275604248,0.519545316696167,0.46770078010817595,-0.8192394157263244,-0.07502034992491047,0.3232256672853672,-0.9524097162605851,2.2267097127569624,2.8269206010764334
1773062431759711232,0.9294943809509277,18.675491333007812,2.8135571479797363,1.0804959535598755,0.4647189676761627,0.8612342476844788,0.20569871366024017,-0.2584506571292877,0.42965930700302124,0.7127735614776611,0.5411400800116626,-0.7757065196313095,-0.033596901922703544,0.3229831273696945,-1.03769331074211,1.9875047571710986,2.516388210267884
1773062431769747200,0.9395303726196289,17.3856258392334,3.0729243755340576,0.6665731072425842,0.4683395028114319,0.8814217448234558,0.06126808747649193,-0.3124709725379944,0.6468679904937744,0.9099538326263428,0.60824079406266,-0.728408610768513,0.007412081153336922,0.31529201291495984,-1.0788638195360014,1.7008774373069646,2.1536544835142224
1773062431779783168,0.9495663642883301,14.797403335571289,2.2515382766723633,0.4818509817123413,0.47328153252601624,0.8781983256340027,-0.06908104568719864,-0.19627347588539124,0.6400816440582275,0.9252669811248779,0.6643298644308014,-0.6808697209125304,0.04331167326967635,0.3052970589434849,-1.0720822192287955,1.4258579954941988,1.8105539709980873
1773062431789819136,0.9596023559570312,9.784330368041992,0.8034548163414001,0.5647149682044983,0.47950467467308044,0.860776960849762,-0.1706990897655487,0.09848293662071228,0.32197749614715576,0.6504812240600586,0.704496708969481,-0.6402087706977101,0.06916054748533429,0.29838542391851847,-1.0367941761570316,1.228794789013306,1.5664784072947335
1773062431799855360,0.9696383476257324,3.1884925365448,-0.3743913769721985,0.5047082901000977,0.48460057377815247,0.8451357483863831,-0.22562767565250397,0.38913294672966003,-0.25173670053482056,0.4605519771575928,0.7241167490946752,-0.6169207145257332,0.08120957624596689,0.2974370512211414,-1.0068191059736291,1.1350494379365093,1.4547755516280403
1773062431809891328,0.9796743392944336,-2.0827419757843018,-0.5726267099380493,0.2383543998003006,0.48643729090690613,0.8424179553985596,-0.2317560911178589,0.49216991662979126,-0.8824874758720398,0.5978907346725464,0.7250453989114278,-0.6144675281262597,0.08094201765456954,0.30031205773410685,-1.0017551138523035,1.1261772361414022,1.4508323230188032
1773062431819927296,0.9897103309631348,-5.024838924407959,-0.10103978961706161,0.20702248811721802,0.48746997117996216,0.8494447469711304,-0.202031210064888,0.24177804589271545,-1.49495267868042,0.6828051209449768,0.7133520717194787,-0.6272101325041932,0.0747786375328726,0.30355295094738105,-1.014932134589039,1.177896705013612,1.5159510530626845
1773062431829963264,0.9997463226318359,-5.9830827713012695,-0.035024020820856094,0.4714333713054657,0.4901603162288666,0.8579288721084595,-0.15395092964172363,-0.22659525275230408,-1.769900918006897,0.6574604511260986,0.6949009399888281,-0.646930744358412,0.06712037695516088,0.3067378557839092,-1.0312246979913555,1.266470114902855,1.6198945808574858
1773062431839998208,1.0097813606262207,-5.361232280731201,-0.20668168365955353,0.7493825554847717,0.4954756200313568,0.8622373938560486,-0.10512087494134903,-0.4501723349094391,-0.9889007210731506,0.6203491687774658,0.6751120777791979,-0.6662168295267723,0.05995581693064888,0.31110129427189864,-1.039670521161105,1.3617347931678336,1.7319212012850147
1773062431850034176,1.0198173522949219,-4.5092597007751465,-0.3507557809352875,0.5822175145149231,0.5012481808662415,0.8629382848739624,-0.0639372244477272,-0.31652528047561646,0.4344555139541626,0.584963858127594,0.6574889818989924,-0.682018278184489,0.0536885202384208,0.31571656071529064,-1.0410559642085426,1.4439254268706931,1.83027725383365
1773062431860070144,1.029853343963623,-4.432779312133789,-0.7613585591316223,0.36017313599586487,0.5050583481788635,0.8626195788383484,-0.028349224478006363,-0.18387609720230103,1.2543238401412964,0.14605551958084106,0.6415795990896644,-0.6954604927451993,0.04647678011930155,0.32023473824777965,-1.0404255460945564,1.5147245706576071,1.9186404626293294
1773062431870106112,1.0398893356323242,-4.856593132019043,-1.0551284551620483,0.2653276026248932,0.5073978304862976,0.8616859912872314,0.006699877325445414,-0.26273834705352783,1.310677409172058,-0.6015180349349976,0.625146522494286,-0.7085003158317192,0.03711120068217919,0.325333615907491,-1.0385828570601696,1.5839999472085344,2.009685140603288
1773062431880142336,1.0499253273010254,-6.280974388122559,-1.2318896055221558,0.46520501375198364,0.5109420418739319,0.8582515120506287,0.04840025678277016,-0.3408065438270569,1.011850357055664,-0.8020166158676147,0.6049115098756895,-0.7235558426622428,0.025827729566154693,0.33148448568577676,-1.0318531073145605,1.6652419928207431,2.1175349914177723
1773062431890178304,1.0599613189697266,-8.14572525024414,-1.4375524520874023,0.24175649881362915,0.5151775479316711,0.8507807850837708,0.1037513017654419,-0.30681872367858887,0.5722082257270813,-0.4297858476638794,0.5777486961581059,-0.7428000457730782,0.011124048196773541,0.3381284983485408,-1.0174692770991975,1.7695275089394773,2.255016811171785
1773062431900214272,1.0699973106384277,-8.873861312866211,-1.710960865020752,-0.051110170781612396,0.5180391073226929,0.8385845422744751,0.16855674982070923,-0.25125443935394287,0.1713031530380249,0.071036696434021,0.5450527234526262,-0.7643412630579294,-0.007798097444490051,0.3444403115231079,-0.9946797247959422,1.8853669604001604,2.4109423418642564
1773062431910250240,1.080033302307129,-8.146174430847168,-1.5990796089172363,-0.0948810949921608,0.5206922292709351,0.82178795337677,0.23139658570289612,-0.17482125759124756,-0.0012464523315429688,0.06463924050331116,0.5116797783422484,-0.7841803680946063,-0.027558043931710113,0.3499794600825015,-0.9645418863708703,1.98898506979568,2.5559733403367453
1773062431920286208,1.09006929397583,-6.440504550933838,-1.4084903001785278,0.033310700207948685,0.5242476463317871,0.8031061291694641,0.2831692695617676,-0.02804708480834961,-0.03728288412094116,-0.13566258549690247,0.48239713462914313,-0.7997566023214314,-0.044429867900934845,0.354553685229804,-0.9324901218749477,2.0660411708333024,2.669409117597828
1773062431930322432,1.1001055240631104,-4.741123676300049,-0.9508468508720398,0.0019114986062049866,0.5282983779907227,0.7858890891075134,0.32137107849121094,0.06450563669204712,0.15446442365646362,-0.30937764048576355,0.4594142521440546,-0.8108187551943021,-0.057083103758625874,0.3581244054574282,-0.9041326170980739,2.1173063204583333,2.7491600682577726
1773062431940358400,1.1101415157318115,-3.2282919883728027,-0.3813760578632355,-0.2561086416244507,0.5293951630592346,0.7733274698257446,0.34886324405670166,0.006859779357910156,0.3919711112976074,-0.3778396546840668,0.4432923439873656,-0.818560904800808,-0.06625461686830811,0.35924967212828535,-0.8840727915203177,2.1534617175836956,2.8039251814284403
1773062431950394368,1.1201775074005127,-2.5177016258239746,-0.13549040257930756,-0.17028534412384033,0.5283907651901245,0.7644699811935425,0.3693092167377472,-0.16816115379333496,0.42292338609695435,-0.42417970299720764,0.43206055342292476,-0.8242286810891573,-0.07281273041971592,0.35870492747967697,-0.8702187438293584,2.1808051698347954,2.8425248015063023
1773062431960430336,1.1302134990692139,-2.469186305999756,-0.19826337695121765,0.048318278044462204,0.5285311937332153,0.7553461194038391,0.38743606209754944,-0.22065472602844238,0.11330610513687134,-0.5993348956108093,0.4218165792865678,-0.8292539416175655,-0.07781983731441322,0.3582633536841017,-0.8561821139995753,2.2033562811847793,2.8741534893888656
1773062431970466304,1.140249490737915,-2.419980049133301,-0.38141801953315735,0.17072753608226776,0.5305030345916748,0.7450072169303894,0.40438956022262573,-0.061264753341674805,-0.2461974024772644,-0.614625096321106,0.4112628434906565,-0.8339124429864495,-0.08236999079182288,0.3587034117613617,-0.8405456324696995,2.2221076757236715,2.9029768732015104
1773062431980502272,1.1502854824066162,-2.3319952487945557,-0.5877149701118469,0.27455630898475647,0.5341825485229492,0.7340054512023926,0.4193868339061737,0.07746601104736328,-0.3863033652305603,-0.4763020873069763,0.4007116508373496,-0.8379616808143387,-0.08668122421033932,0.36019004991668735,-0.8242010957745972,2.236385748284989,2.9288527881721595
1773062431990538240,1.1603214740753174,-2.3267478942871094,-0.7727726697921753,0.2649878263473511,0.5390751361846924,0.7225781083106995,0.43275707960128784,0.11050677299499512,-0.32411015033721924,-0.4745510220527649,0.3900929408104093,-0.8414722417756151,-0.09112087315211402,0.362558797802732,-0.8075245112356657,2.247228263589605,2.953130639932379
1773062432000574464,1.1703574657440186,-2.363565444946289,-0.9271815419197083,0.27264875173568726,0.5447344183921814,0.7108546495437622,0.4449155330657959,0.07992982864379883,-0.12313193082809448,-0.4781644940376282,0.3793366050517586,-0.844547547011385,-0.09590210629489525,0.3655760837596781,-0.790712570532725,2.255671654717376,2.9768233006002296
1773062432010610432,1.1803934574127197,-2.4126951694488525,-1.0431345701217651,0.23778213560581207,0.5510337948799133,0.6985862851142883,0.45644205808639526,0.054679155349731445,0.039038896560668945,-0.3737698197364807,0.3681963830264887,-0.8473524646879508,-0.10106843071764635,0.3690671082648275,-0.773419825331232,2.2625791022643664,3.0006745811974604
1773062432020646400,1.190429449081421,-2.3438503742218018,-1.086063027381897,0.2432999312877655,0.5576793551445007,0.6862015724182129,0.4670346677303314,0.07357680797576904,0.09437710046768188,-0.25339633226394653,0.35703994257343935,-0.8498171510792126,-0.10643374305018213,0.3728340507216461,-0.756254273062207,2.2679656215807666,3.0240088683145316
1773062432030682368,1.200465440750122,-2.197049856185913,-1.0160084962844849,0.19613242149353027,0.5641463994979858,0.6742715239524841,0.47654640674591064,0.05107259750366211,0.08265584707260132,-0.1320793330669403,0.34639605505896054,-0.8519465024656577,-0.11162599385492085,0.3764790423259102,-0.7399777894664382,2.2722177690588325,3.0458138419450065
1773062432040718336,1.2105014324188232,-2.1985840797424316,-0.9526691436767578,0.20428209006786346,0.5701931715011597,0.6625307202339172,0.48572877049446106,-0.01925945281982422,0.04475975036621094,-0.04981577396392822,0.33605528339098595,-0.8539700187551483,-0.11661729017591178,0.37973984800508337,-0.7241923987599107,2.276373302225424,3.0666905316988413
1773062432050754816,1.2205379009246826,-2.2062580585479736,-1.0294837951660156,0.2356695681810379,0.5765029191970825,0.650449275970459,0.49453046917915344,-0.08574968576431274,0.02154785394668579,-0.05757969617843628,0.32560692727876933,-0.8558593177455838,-0.1215321188826342,0.3830339240084172,-0.7081758138845099,2.2798075574969747,3.08704884355738
1773062432060790784,1.2305738925933838,-2.1937694549560547,-1.0994148254394531,0.2852784991264343,0.5834994316101074,0.6379306316375732,0.5025660991668701,-0.0781436562538147,-0.011740505695343018,-0.08226287364959717,0.3149722334694431,-0.8574989241433567,-0.12640665949081675,0.3866643822628201,-0.691808070901832,2.281812240637488,3.1067977341052813
1773062432070826752,1.240609884262085,-2.095412254333496,-1.1068024635314941,0.3740980923175812,0.5912182331085205,0.6250496506690979,0.5096806287765503,0.008162379264831543,-0.07492434978485107,-0.05940890312194824,0.3043459298361973,-0.8588982482428946,-0.1308973677187964,0.3905552275021783,-0.6751951687819785,2.2822649106041113,3.1251007580543972
1773062432080862720,1.2506458759307861,-1.892161250114441,-1.0994728803634644,0.4241311848163605,0.599376380443573,0.612377941608429,0.5155013799667358,0.04187428951263428,-0.1443144679069519,-0.061750710010528564,0.29420444815421104,-0.8599939038178953,-0.13476345153552516,0.39457976594692395,-0.6590649807277704,2.281103513504423,3.141108505163312
1773062432090898688,1.2606818675994873,-1.6621054410934448,-1.0391719341278076,0.43783554434776306,0.6075688600540161,0.6005082726478577,0.5198556184768677,0.014669299125671387,-0.17759567499160767,-0.06804287433624268,0.2849241124888006,-0.8607467368840067,-0.1379958978415134,0.3986106247411358,-0.6441365881103526,2.278551227937946,-3.1285717263259207
1773062432100934656,1.2707178592681885,-1.537292242050171,-1.0361692905426025,0.4441515803337097,0.6155979037284851,0.5895259380340576,0.5229707360267639,-0.012646853923797607,-0.16279864311218262,-0.10756552219390869,0.2764808123546968,-0.8612088059722536,-0.14072943223581505,0.40258288751856003,-0.6304718287279655,2.2750192554962885,-3.117099980638894
1773062432110970624,1.2807538509368896,-1.4149965047836304,-1.0803388357162476,0.44682061672210693,0.6237127184867859,0.5790091753005981,0.525100827217102,-0.02524775266647339,-0.14817726612091064,-0.19140636920928955,0.2684338302237383,-0.8614046773390548,-0.14329124719139089,0.40668525901790126,-0.6175129261356285,2.2705663194733323,-3.1065964259587835
1773062432121006848,1.2907898426055908,-1.1536709070205688,-1.0556998252868652,0.4975440204143524,0.6321357488632202,0.5692037343978882,0.5257488489151001,-0.01903754472732544,-0.11641436815261841,-0.18724781274795532,0.26109847192964464,-0.8612538878296061,-0.14531407087947815,0.41103925914405437,-0.6055370563480104,2.264571360652081,-3.0982060059219148
1773062432131042816,1.300825834274292,-0.8590767979621887,-0.9440985918045044,0.4973038136959076,0.6402268409729004,0.5607057809829712,0.5250888466835022,-0.022108614444732666,-0.04260891675949097,-0.06441086530685425,0.25497184978524196,-0.8608515946371501,-0.14655701950145625,0.41526477422387315,-0.5952379326267503,2.257710010196628,-3.0925811226612483
1773062432141078784,1.3108618259429932,-0.6084089279174805,-0.8202772736549377,0.507689893245697,0.6476820707321167,0.5536741018295288,0.5234048366546631,-0.06874847412109375,0.02355051040649414,0.05114948749542236,0.2501647114218758,-0.8602851742355785,-0.14700960073892097,0.4191838488649817,-0.586769877827389,2.2504688873943453,-3.0896795544819455
1773062432151114752,1.3208978176116943,-0.6290340423583984,-0.789917528629303,0.4201320707798004,0.6544253826141357,0.5474189519882202,0.5215938091278076,-0.12404513359069824,0.05679863691329956,0.13013964891433716,0.24596251405199684,-0.8597160996251076,-0.14725869300770755,0.4227358567918507,-0.5792768743780538,2.243720964436746,-3.0874986274665237
1773062432161150720,1.3309338092803955,-0.7589161396026611,-0.8720188736915588,0.3950199484825134,0.6609704494476318,0.5411894917488098,0.5198385119438171,-0.10536742210388184,0.06330269575119019,0.15357768535614014,0.24153137423315035,-0.8590754609217555,-0.14801555227165408,0.4263137009909018,-0.5718509845090486,2.237237368690161,-3.084031146040967
1773062432171186688,1.3409698009490967,-0.9427714347839355,-0.8761705160140991,0.37411969900131226,0.6676792502403259,0.5341140627861023,0.5185811519622803,-0.010361194610595703,0.09239649772644043,0.11282747983932495,0.2363423182268743,-0.858500687010359,-0.14922178664560776,0.4299438071321899,-0.5634594512323096,2.2311626177632187,-3.0788765900154713
1773062432181222656,1.3510057926177979,-0.897398054599762,-0.8212968111038208,0.32356446981430054,0.6739087104797363,0.5269654989242554,0.5178365707397461,0.08503299951553345,0.0756956934928894,0.09501749277114868,0.2309445456788255,-0.8580127532325409,-0.1507727188822188,0.43329715074098146,-0.5550261324052815,2.2259746234676663,-3.0725939154541537
1773062432191258624,1.361041784286499,-0.7687122225761414,-0.7656338214874268,0.32954245805740356,0.6797257661819458,0.5204072594642639,0.5168647766113281,0.0585707426071167,0.07607406377792358,0.15331649780273438,0.2260359432058696,-0.8574964513779947,-0.1520928096811146,0.43643482727336735,-0.5473277849635653,2.2209215029225757,-3.0671160227205747
1773062432201294592,1.3710777759552002,-0.7517247796058655,-0.72488933801651,0.30673980712890625,0.6852825284004211,0.5143353343009949,0.5156036615371704,-0.03722649812698364,0.0970996618270874,0.16173404455184937,0.22154247670155186,-0.8569328077105784,-0.1531926349268305,0.4394509713895018,-0.5402324330764107,2.2158289126266046,-3.0624074008658666
1773062432211330560,1.3811137676239014,-0.9237109422683716,-0.6431891322135925,0.23328076303005219,0.6902247667312622,0.5081383585929871,0.5151551365852356,-0.07633328437805176,0.06737726926803589,0.12246382236480713,0.2168284782808418,-0.8565472927204735,-0.15461013488738357,0.4420494653625102,-0.5330219015739358,2.2119627820485164,-3.0565417417675658
1773062432221366528,1.3911497592926025,-1.118119716644287,-0.6125957369804382,0.14116249978542328,0.6943851113319397,0.5015919804573059,0.515979528427124,-0.0892062783241272,0.012293577194213867,0.11161446571350098,0.2115537604259743,-0.8563973863170155,-0.1567586478890706,0.4441342872929408,-0.5254379852415011,2.20985002400267,-3.0483139594673183
1773062432231402752,1.4011857509613037,-1.159166693687439,-0.5780010223388672,0.10300260782241821,0.6980464458465576,0.49480918049812317,0.5175861716270447,-0.08963268995285034,0.0056486427783966064,0.07939881086349487,0.20589172431283653,-0.8563748106431706,-0.1594216303296905,0.4458874827410736,-0.5176152460836435,2.208821078107373,-3.03848710573872
1773062432241438976,1.411221981048584,-1.106072187423706,-0.5215059518814087,0.08240105956792831,0.7013903856277466,0.48820042610168457,0.5193379521369934,-0.09128296375274658,0.019764691591262817,0.07525134086608887,0.20031696391757395,-0.8563733523334488,-0.1621531545745242,0.44744179735395756,-0.5100265495646507,2.2081512887075383,-3.0285257783183317
1773062432251474944,1.4212579727172852,-0.8996523022651672,-0.3954489529132843,0.02676655910909176,0.7040756940841675,0.4825468361377716,0.5209857821464539,-0.1021774411201477,0.04421713948249817,0.12343865633010864,0.19548453417548456,-0.8563810764046427,-0.1646339841938211,0.448656858629623,-0.5035601781481067,2.2078389228483677,-3.019619569187118
1773062432261510912,1.4312939643859863,-0.7155246734619141,-0.2582344114780426,-0.009922169148921967,0.7058210372924805,0.4782525599002838,0.5225809812545776,-0.13209062814712524,0.06329706311225891,0.1818562150001526,0.1917119235401447,-0.8564371647706633,-0.1667509621408843,0.4493950981341512,-0.4986638880709787,2.2081169349792162,-3.012204624294721
1773062432271546880,1.4413299560546875,-0.3364148736000061,-0.13656841218471527,-0.05719061568379402,0.7066901326179504,0.4756154716014862,0.523811936378479,-0.15548163652420044,0.061966925859451294,0.1886361837387085,0.18927965163828503,-0.8564937220761345,-0.16829875503173292,0.44974130279160696,-0.4956635721617086,2.208653659109706,-3.0069975172698515
1773062432281582848,1.4513659477233887,-0.2930055856704712,0.007219139486551285,-0.16360409557819366,0.7064947485923767,0.4750671684741974,0.5245729088783264,-0.13061261177062988,0.09567269682884216,0.21151113510131836,0.188356508935805,-0.8564861433682215,-0.1694637102489447,0.44970600736745114,-0.49504037190038774,2.209480659387361,-3.00378939582317
1773062432291618816,1.4614019393920898,0.14416112005710602,-0.004878535866737366,-0.07241372764110565,0.7058199644088745,0.47540614008903503,0.525173544883728,-0.09499537944793701,0.15591099858283997,0.24521219730377197,0.18824581804596185,-0.856526725969593,-0.17014328927822972,0.4494182549716762,-0.4954256293507899,2.210486020996776,-3.0021700480098312
1773062432301653760,1.4714369773864746,0.07890281081199646,-0.06782124936580658,-0.2836807370185852,0.7053033709526062,0.4776655435562134,0.5238154530525208,-0.0922967791557312,0.26732951402664185,0.4566531777381897,0.18946148447664063,-0.8560713521642384,-0.17043936045320143,0.4496627110462309,-0.49799559767570367,2.2095968693789665,-3.0029322184186675
1773062432311690752,1.4814739227294922,-0.7263638377189636,0.051357075572013855,-0.3885384500026703,0.7035794258117676,0.47820523381233215,0.5256386995315552,-0.0358547568321228,0.1606040596961975,0.2593039870262146,0.18867881602865771,-0.8561376404696049,-0.17276485142737827,0.4489777961145009,-0.49861000127020744,2.2124338354294926,-2.9971731041248972
1773062432321726720,1.4915099143981934,-0.9595597982406616,-0.1154087483882904,-0.327763170003891,0.7019827365875244,0.47624924778938293,0.5295349955558777,-0.006334364414215088,-0.112510085105896,0.00420224666595459,0.18580643883783657,-0.8565606697389242,-0.17627059956675536,0.4480051431259508,-0.4963841968992584,2.2170704760082747,-2.9868914818303103
1773062432331761920,1.5015449523925781,-0.9265560507774353,-0.26104292273521423,-0.2089448869228363,0.7017090916633606,0.4730077385902405,0.532792866230011,0.02640986442565918,-0.0972447395324707,0.130872905254364,0.1820964615030807,-0.8567833839114495,-0.1797739542760161,0.4477103002039724,-0.49270145107346164,2.220209509959865,-2.976263737878421
1773062432341797888,1.5115809440612793,-0.5163182616233826,-0.3856862187385559,-0.12033651769161224,0.7027042508125305,0.4700670540332794,0.534082293510437,0.22045254707336426,-0.0064134299755096436,0.0009061694145202637,0.17891838831561635,-0.8566011663542628,-0.1824159527700195,0.44827127321635424,-0.489366757329403,2.2206911696110954,-2.9683938085577553
1773062432351833856,1.5216169357299805,-0.2857303321361542,-0.5407642126083374,-0.02674238197505474,0.7048344016075134,0.46865618228912354,0.5325128436088562,0.27261316776275635,0.05171436071395874,-0.1902582049369812,0.17708333572118423,-0.8558024168431442,-0.184007203288102,0.44987230841393916,-0.48776894344691957,2.217817606578755,-2.964506863051936
1773062432361869824,1.5316529273986816,-0.23247398436069489,-0.6882988810539246,0.12220213562250137,0.7083371877670288,0.4669022560119629,0.5293963551521301,0.19376236200332642,-0.06933459639549255,-0.4814990162849426,0.17528691633063453,-0.8546972334692673,-0.18490756619994786,0.45230108182518497,-0.48578452934351124,2.2126178663485905,-2.96251482920849
1773062432371905792,1.5416889190673828,-0.30582621693611145,-0.8411451578140259,0.1319759488105774,0.7130197882652283,0.4645848274230957,0.5251323580741882,0.134316086769104,-0.24165385961532593,-0.5827953219413757,0.1731406299571727,-0.8532905608098504,-0.18563784742205172,0.45547362361429566,-0.48316569974767215,2.205595224250435,-2.9609633646423212
1773062432381941760,1.551724910736084,-0.21409863233566284,-0.9352070689201355,0.18651644885540009,0.7184203863143921,0.46197986602783203,0.5200449824333191,0.17519527673721313,-0.3526659309864044,-0.5238139033317566,0.17074304674572488,-0.8516359266511573,-0.18638327854798864,0.4591561189480437,-0.48022627816228397,2.197365253411355,-2.959430375210436
1773062432391977728,1.5617609024047852,0.16156820952892303,-1.0135008096694946,0.22926604747772217,0.7244415879249573,0.46033039689064026,0.5131081938743591,0.25242602825164795,-0.3006472885608673,-0.40687668323516846,0.16922933688441594,-0.8495947042307005,-0.18639456307620883,0.4634730037400843,-0.4783673324465591,2.1870584100981545,-2.960539015185593
1773062432402013696,1.5717968940734863,0.5681042671203613,-1.0735772848129272,0.2550468444824219,0.7308827638626099,0.46043267846107483,0.5037975311279297,0.25178319215774536,-0.14022701978683472,-0.28988462686538696,0.16925487992158564,-0.8470721344233757,-0.18538488975285874,0.4684591466061013,-0.4784825560093467,2.1743049398484637,-2.965521875046132
1773062432412049664,1.5818328857421875,0.6541350483894348,-1.0143142938613892,0.2775369882583618,0.7373709082603455,0.4616069793701172,0.4931565523147583,0.19274383783340454,-0.013669908046722412,-0.24379736185073853,0.17032564169317252,-0.8443060337666928,-0.18364529116715428,0.473720372559499,-0.47980585980668516,2.160277082166724,-2.973132977327655
1773062432422085888,1.5918688774108887,0.7558094263076782,-0.9815329909324646,0.22065941989421844,0.7434035539627075,0.46333250403404236,0.48236340284347534,0.11525434255599976,0.0935065746307373,-0.04950195550918579,0.17190613339758914,-0.8415257665238826,-0.18170328664422533,0.47881800670821434,-0.48175201271395873,2.146368365849346,-2.9815845059296993
1773062432432121856,1.6019048690795898,0.6240679025650024,-0.9348466992378235,0.20907707512378693,0.7489789128303528,0.46512582898139954,0.4718993008136749,0.05784487724304199,0.14476802945137024,0.17948323488235474,0.17347248395211587,-0.8387818466558218,-0.17998515773292545,0.4836918316211698,-0.4837767610700702,2.1330237605740674,-2.9894984424370414
1773062432442157824,1.611940860748291,0.45349058508872986,-0.8310617804527283,0.3373733460903168,0.7543006539344788,0.4656955897808075,0.4627724587917328,0.02623230218887329,0.12806972861289978,0.2104453444480896,0.17433870421069114,-0.8364165135041306,-0.17830772468855094,0.4880777067967469,-0.48442047849185915,2.1210918941274652,-2.996330545976127
1773062432452193792,1.6219768524169922,0.32280582189559937,-0.8007901310920715,0.43104711174964905,0.7598596215248108,0.46447089314460754,0.45484089851379395,-0.01773315668106079,0.09805962443351746,0.26178812980651855,0.17426027714247677,-0.8344439254508321,-0.17641934602606907,0.4921513462913836,-0.48303705796399543,2.1101750478535597,-3.0023663738110757
1773062432462229760,1.6320128440856934,-0.16249209642410278,-0.7328752279281616,0.486494243144989,0.7654431462287903,0.4614401161670685,0.44851985573768616,0.0023487210273742676,0.15025430917739868,0.117672860622406,0.17285377453900952,-0.8328536803786237,-0.17497051129346225,0.495844470983655,-0.4796177926077025,2.100829098128774,-3.0058784846428166
1773062432472265728,1.6420488357543945,-0.6328193545341492,-0.716022789478302,0.48174741864204407,0.7709637880325317,0.45578593015670776,0.44483083486557007,0.04265028238296509,0.059335678815841675,-0.027869105339050293,0.16930252895424652,-0.831845338061682,-0.17449571590379578,0.4989202113459702,-0.47325497968374036,2.0941175171437627,-3.0048095006004503
1773062432482301696,1.6520848274230957,-0.8188149333000183,-0.7922888994216919,0.3783726394176483,0.7762755751609802,0.4491341710090637,0.4423512816429138,0.0232696533203125,-0.11759123206138611,-0.007109552621841431,0.1644352101184117,-0.830943886121303,-0.1752366741813124,0.5017822345654667,-0.46579602646571405,2.088742506876928,-2.9998681040958357
1773062432492337664,1.6621208190917969,-0.7645543813705444,-0.7773323655128479,0.2704371213912964,0.7812322974205017,0.4430333375930786,0.4397701621055603,0.006930053234100342,-0.14719587564468384,0.08772629499435425,0.15958587398208363,-0.8298947768096928,-0.17652121985675387,0.5046259499926763,-0.4589793758362748,2.08350369196142,-2.993900759230263
1773062432502373632,1.672156810760498,-0.6260062456130981,-0.7253944277763367,0.21964550018310547,0.7856218814849854,0.4380882680416107,0.43689459562301636,-0.03899407386779785,-0.10183033347129822,0.05211901664733887,0.15539820880243993,-0.8287319961538386,-0.17790609412938044,0.5073500721752968,-0.45347090591120603,2.078320748951056,-2.9883790798629013
1773062432512409600,1.6821928024291992,-0.3302552402019501,-0.6232842803001404,0.17117278277873993,0.7894270420074463,0.4344601631164551,0.43364617228507996,-0.07174527645111084,0.03856220841407776,0.04097834229469299,0.15230811261793206,-0.8275500780288007,-0.1788405897697412,0.5098813976960619,-0.4494388288525505,2.0731154827538103,-2.9847582325119975
1773062432522445568,1.6922287940979004,0.014905525371432304,-0.49907436966896057,0.24561795592308044,0.7927133440971375,0.4321599304676056,0.429934024810791,-0.07188820838928223,0.15139716863632202,0.1351446807384491,0.15063574478359085,-0.8264326446860215,-0.1788186016643882,0.5121931438235141,-0.4468865322420272,2.0677530476952835,-2.984308958055095
1773062432532481792,1.7022647857666016,0.30556851625442505,-0.40918999910354614,0.250884085893631,0.7957913279533386,0.43086323142051697,0.42552703619003296,-0.05512958765029907,0.1449730098247528,0.1471659541130066,0.15028073423253058,-0.8253479802571252,-0.17766323087216354,0.5144436316428935,-0.4454491410141893,2.0618340806381967,-2.987343214662079
1773062432542517760,1.7123007774353027,0.4018605649471283,-0.3232579827308655,0.18065927922725677,0.7982549667358398,0.4307008981704712,0.4210534393787384,-0.05809676647186279,0.10254806280136108,0.17419201135635376,0.1509209184047123,-0.8243275243453678,-0.1760990039516365,0.5164264141156265,-0.4452692452848905,2.0561756122357253,-2.9920630090585814
1773062432552553728,1.722336769104004,0.08896923065185547,-0.27499616146087646,0.20586343109607697,0.8002978563308716,0.43041327595710754,0.41745448112487793,-0.06857770681381226,0.0653906762599945,0.17595991492271423,0.1513568303784285,-0.8235080486703649,-0.17481913739573882,0.5180386384952128,-0.444950579067563,2.051593023779313,-2.995821156995069
1773062432562589696,1.732372760772705,-0.5713326930999756,-0.29368460178375244,0.2646639347076416,0.8024975061416626,0.42754021286964417,0.4161817729473114,-0.05622053146362305,0.01070752739906311,0.09106618165969849,0.14954327928444064,-0.8231583818808117,-0.1746458337581945,0.5191781762409521,-0.4417700122236769,2.0492194213425607,-2.9947785633407342
1773062432572625664,1.7424087524414062,-1.078310489654541,-0.38885077834129333,0.2942918837070465,0.8051021695137024,0.42170485854148865,0.4171040952205658,-0.03886669874191284,-0.20127630233764648,0.12992355227470398,0.1449913865146947,-0.8231595026452888,-0.17595590321525825,0.5200245981151673,-0.43532473428135965,2.0487999101962764,-2.9878206515773162
1773062432582661888,1.7524449825286865,-0.9897972345352173,-0.42323097586631775,0.2797139585018158,0.8080491423606873,0.4148613214492798,0.4182663857936859,0.044245779514312744,-0.3801017999649048,0.2398451566696167,0.13942846809069273,-0.8231015029929688,-0.17786822339378472,0.5209861199214239,-0.4277903766176976,2.0484442610438016,-2.9787360225777673
1773062432592697856,1.7624809741973877,-0.5455074310302734,-0.40684932470321655,0.2749817967414856,0.8109545707702637,0.409427285194397,0.41799771785736084,0.16856813430786133,-0.2770267426967621,0.21894991397857666,0.13518994839493498,-0.8227729359977362,-0.17900712714203815,0.5222306538164047,-0.42182622673675746,2.0467188087469,-2.9726919086029993
1773062432602733824,1.7725169658660889,-0.1772683709859848,-0.31773459911346436,0.27284470200538635,0.8135932087898254,0.40571096539497375,0.4164905548095703,0.14951092004776,-0.07818114757537842,0.09519761800765991,0.13265906865304328,-0.8222972656844715,-0.1790879063722626,0.5235992541163956,-0.41775655873814754,2.0439304173533084,-2.9705116040352215
1773062432612769792,1.78255295753479,-0.05085131898522377,-0.320595920085907,0.2512826919555664,0.8159765005111694,0.4031551480293274,0.4143049418926239,0.04516863822937012,0.03594708442687988,-0.056104838848114014,0.131320030133255,-0.8217800106963747,-0.17840989378532507,0.5249787462077947,-0.41496200061382155,2.0406177665074585,-2.971013029904545
1773062432622805760,1.7925889492034912,0.07543857395648956,-0.35151806473731995,0.24050791561603546,0.8183251619338989,0.4011757969856262,0.4115844964981079,0.0289037823677063,0.05484834313392639,-0.0526978075504303,0.13038120334067912,-0.8211185182929508,-0.1776418423206842,0.5265058843316277,-0.4128000995479992,2.0368088126182586,-2.9721842586315907
1773062432632841728,1.8026249408721924,0.43766894936561584,-0.3574249744415283,0.28232085704803467,0.8208669424057007,0.40000981092453003,0.40763917565345764,0.07499182224273682,0.01890498399734497,-0.032242417335510254,0.13036288455028874,-0.8202373600078341,-0.17615409970477586,0.528380501325181,-0.4115275382868617,2.031716978126371,-2.9758461114184946
1773062432642877696,1.8126609325408936,0.7854185700416565,-0.3246709406375885,0.25054657459259033,0.8233839869499207,0.4003109335899353,0.4022310972213745,0.0688888430595398,0.05017423629760742,0.03487211465835571,0.13188126307814282,-0.8191234043473624,-0.17364444091169745,0.5305579522513425,-0.4118561305591518,2.025209541890907,-2.9832115407223365
1773062432652913920,1.8226969242095947,0.9705516695976257,-0.2558346092700958,0.18615373969078064,0.8253884315490723,0.4020586609840393,0.39633673429489136,0.035268306732177734,0.1673993468284607,0.08814513683319092,0.13473097834282863,-0.8179798018456148,-0.17052098201667237,0.5326154516700355,-0.41376412966274545,2.018464258483641,-2.993118770411399
1773062432662949888,1.832732915878296,0.7067895531654358,-0.10596311092376709,0.18094295263290405,0.8268646001815796,0.4039076566696167,0.3913486897945404,-0.005773782730102539,0.3044053912162781,-0.0033481717109680176,0.13757769627240474,-0.8170550846196656,-0.16761662771524855,0.5342266588833585,-0.4157844339076291,2.012850454397584,-3.002415418959192
1773062432672985856,1.842768907546997,0.3952305316925049,0.030535880476236343,0.13096366822719574,0.8276315331459045,0.40473315119743347,0.388866126537323,-0.030466735363006592,0.31394049525260925,-0.0008047223091125488,0.1393687574436261,-0.8167226870540091,-0.16552076161316898,0.5349235463044564,-0.41668700061960445,2.010037769452926,-3.008587920924333
1773062432683021824,1.8528048992156982,0.08713364601135254,0.11703771352767944,0.062193792313337326,0.8276986479759216,0.404924601316452,0.38852375745773315,-0.05491739511489868,0.1976448893547058,0.1979781985282898,0.14019306940894558,-0.8168386536430724,-0.1644277848300628,0.5348681354161049,-0.4168963678069488,2.0096676521392483,-3.0114587863789093
1773062432693057792,1.8628408908843994,-0.14530491828918457,0.2485099881887436,-0.02472832426428795,0.8270652890205383,0.4045697748661041,0.39023932814598083,-0.07335728406906128,0.13467592000961304,0.32001155614852905,0.1401005348891078,-0.8173824134488031,-0.16433398853511483,0.534090181347768,-0.4165083272896732,2.0116601217859307,-3.0111036667112416
1773062432703093760,1.8728768825531006,-0.24482537806034088,0.3326484262943268,-0.17089396715164185,0.8255236744880676,0.40460142493247986,0.3934565782546997,-0.05709117650985718,0.19281059503555298,0.385001003742218,0.13980503898382637,-0.818224223274991,-0.1650375803170963,0.5326595186007776,-0.41654293514402263,2.0155611388801646,-3.008736927990478
1773062432713129728,1.8829128742218018,-0.2560974955558777,0.44085240364074707,-0.2200940102338791,0.8231707811355591,0.4051709771156311,0.3977764844894409,-0.03239941596984863,0.23133409023284912,0.3914232850074768,0.13953127751088196,-0.8192822698480248,-0.16632740862429649,0.5307001938451045,-0.417165840865711,2.020933899476462,-3.00505627526236
1773062432723165696,1.892948865890503,-0.03726426884531975,0.48821550607681274,-0.22489404678344727,0.8203750252723694,0.406414270401001,0.4022587835788727,-0.02494966983795166,0.18875476717948914,0.3392420709133148,0.13992341468446226,-0.8204544400410037,-0.1672839182134459,0.5284808476937146,-0.4185261641803226,2.02668227913143,-3.0025818207504322
1773062432733201664,1.902984857559204,0.06548447906970978,0.4448581635951996,-0.2285071611404419,0.8175323605537415,0.4083930253982544,0.406024694442749,-0.013760387897491455,0.19150623679161072,0.21801400184631348,0.14101824410426933,-0.8214877050252245,-0.1678401108416187,0.5264043442791819,-0.420692899960331,2.03175765686607,-3.0016854586432906
1773062432743237632,1.9130208492279053,0.2938154637813568,0.477950781583786,-0.3546043038368225,0.8144952654838562,0.41149646043777466,0.40898415446281433,-0.004863917827606201,0.09581249952316284,0.08842182159423828,0.14293109478377525,-0.8223157603796094,-0.1681929497964446,0.5244793671598723,-0.42409535611343574,2.0361480858819694,-3.0021406347185975
1773062432753273600,1.9230568408966064,0.3172787129878998,0.49788904190063477,-0.33790868520736694,0.8110139966011047,0.4156370460987091,0.41170647740364075,0.026647746562957764,0.0632753074169159,0.03177499771118164,0.14546979273796729,-0.8230605086533863,-0.16859609734975348,0.5224799728150504,-0.42864310936071287,2.0405405234806824,-3.0031461299899087
1773062432763309824,1.9330928325653076,1.0041863918304443,0.504805862903595,-0.2660562992095947,0.8076688647270203,0.4207485318183899,0.41308847069740295,0.009164750576019287,0.19186142086982727,-0.03850036859512329,0.14934621759058106,-0.823647272309896,-0.16777786039158926,0.5207222136490406,-0.4342702791246978,2.0435680342410447,-3.0079870261232737
1773062432773345792,1.9431288242340088,1.189753532409668,0.5283740162849426,-0.29334625601768494,0.804351270198822,0.4277738332748413,0.41234564781188965,-0.04218989610671997,0.44046661257743835,0.005302727222442627,0.15529680254287845,-0.8238865652966276,-0.1654803676487803,0.5193362943701247,-0.4420284381809241,2.044507705895894,-3.018064562730563
1773062432783381760,1.95316481590271,0.9577870965003967,0.5859795212745667,-0.26182615756988525,0.8008043766021729,0.4345696270465851,0.4121427834033966,-0.14008355140686035,0.2707831561565399,-0.17676067352294922,0.16095604497015453,-0.8242300067715098,-0.16345117038492016,0.5177082121060276,-0.449560372125234,2.046103822152279,-3.0272175145707783
1773062432793417728,1.9632008075714111,0.880801796913147,0.5016486644744873,-0.1585085391998291,0.7976261973381042,0.43993762135505676,0.41261026263237,-0.18660330772399902,-0.17090994119644165,-0.25387313961982727,0.16573028597182365,-0.8247756688947586,-0.1614008357615632,0.515973173145185,-0.4555292063538414,2.048186196726004,-3.0353671563396327
1773062432803453696,1.9732367992401123,0.2947673201560974,0.3253929615020752,-0.3157362639904022,0.7948851585388184,0.44455239176750183,0.4129538834095001,-0.06028115749359131,-0.33664220571517944,-0.19525665044784546,0.16935626587301225,-0.8250756972059157,-0.16039649293380098,0.5146276022890627,-0.4606745112629275,2.0499329033837075,-3.040536137072915
1773062432813489664,1.9832727909088135,-0.1789829134941101,0.3707199692726135,-0.2762239873409271,0.7920950651168823,0.4469359517097473,0.41573256254196167,0.12622451782226562,-0.4670318365097046,-0.10867995023727417,0.17040118809981133,-0.8257310134840696,-0.16135232134203076,0.5129299267414408,-0.46333722740965066,2.054127190348115,-3.0389499716103314
1773062432823525632,1.9933087825775146,-0.17301557958126068,0.33600351214408875,-0.2465108186006546,0.7894451022148132,0.4482613205909729,0.41933032870292664,0.3497607111930847,-0.36294955015182495,0.12470641732215881,0.1706122591652913,-0.8265744915043468,-0.16260311316768986,0.511102914090495,-0.46481935830585647,2.059068649423116,-3.0357838791650185
1773062432833561600,2.003344774246216,-0.17228133976459503,0.4231671988964081,-0.33436188101768494,0.7866243124008179,0.449756920337677,0.4230138957500458,0.42152076959609985,-0.04234731197357178,0.37938472628593445,0.1709474787636773,-0.8274422059086739,-0.16384852025785354,0.5091855813419266,-0.46649316699896065,2.0641925006323967,-3.032703486705274
1773062432843597568,2.013380765914917,-0.12743104994297028,0.5932475924491882,-0.4670453369617462,0.7825968265533447,0.4523200988769531,0.4277254045009613,0.3042410612106323,0.04688653349876404,0.3714537024497986,0.17175485698151885,-0.828530588069079,-0.16552872751853043,0.5065941849625737,-0.46936504337130186,2.070984066505862,-3.0289246046683562
1773062432853633536,2.023416757583618,-0.1482468545436859,0.7190133333206177,-0.5160493850708008,0.7775200605392456,0.45561787486076355,0.43344512581825256,0.13494014739990234,0.10448643565177917,0.18482571840286255,0.17304031505051337,-0.8299009139752479,-0.16729327951281198,0.5033233708517498,-0.47306618551057283,2.079357561268297,-3.025078828879851
1773062432863669760,2.0334527492523193,-0.4031863212585449,0.8500900864601135,-0.5502187013626099,0.7716169357299805,0.4586220383644104,0.440764456987381,0.01825428009033203,0.166561096906662,0.0948495864868164,0.17394388277015582,-0.8316527190442405,-0.16951689383500967,0.49936095976966477,-0.47644392699189714,2.089786576437823,-3.019487794353259
1773062432873705984,2.0434889793395996,-0.36178162693977356,1.0182628631591797,-0.5684488415718079,0.7648091316223145,0.46130043268203735,0.4497431516647339,0.0027841925621032715,0.20924702286720276,0.14380845427513123,0.17459845520133357,-0.8338437970580478,-0.1719770068015838,0.49461479936918445,-0.47946032926970633,2.1023799352095107,-3.0126509992640083
1773062432883741952,2.053524971008301,-0.3506103456020355,1.1637121438980103,-0.6208785772323608,0.757051944732666,0.46418386697769165,0.45978906750679016,-0.02246326208114624,0.2791175842285156,0.2722819447517395,0.1755180899101989,-0.8363559586108961,-0.17436525852462556,0.4891819561631293,-0.4827129850986388,2.116596494392822,-3.0057604374381617
1773062432893777920,2.063560962677002,-0.15627974271774292,1.2352579832077026,-0.6629831790924072,0.7484042048454285,0.46768155694007874,0.47028207778930664,-0.11388272047042847,0.24379006028175354,0.25582271814346313,0.1768996467563161,-0.8389862087702646,-0.17675740407611196,0.4832861793280026,-0.486665964542238,2.1318223441379263,-2.999003225721356
1773062432903813888,2.073596954345703,-0.07434000074863434,1.2418303489685059,-0.7215752601623535,0.739242672920227,0.47252851724624634,0.47983062267303467,-0.19201666116714478,0.11255457997322083,0.09133642911911011,0.1793992534145,-0.8414138894120767,-0.17871201285112664,0.47738948748419235,-0.4921576078952419,2.1465273726055756,-2.9941710062399114
1773062432913849856,2.0836329460144043,-0.21601617336273193,1.32295823097229,-0.7416008710861206,0.7295067310333252,0.4771519899368286,0.4900469481945038,-0.2019798755645752,-0.05877125263214111,-0.11552000045776367,0.18161918642977762,-0.843947758364295,-0.18104048148075233,0.471159243696552,-0.49741114801393366,2.1623106715394407,-2.988018468628767
1773062432923885824,2.0936689376831055,-0.2442593276500702,1.3887451887130737,-0.7950853109359741,0.7190639972686768,0.4815980792045593,0.5010092854499817,-0.13854342699050903,-0.1675874888896942,-0.08922034502029419,0.18370967516651834,-0.8466460113484394,-0.18356245546445893,0.4644847900303781,-0.5024772590121006,2.179339109677245,-2.9809697548903533
1773062432933921792,2.1037049293518066,-0.2861226201057434,1.4791457653045654,-0.8738285899162292,0.7077459692955017,0.48617106676101685,0.5125752091407776,-0.07616943120956421,-0.10663923621177673,0.17374980449676514,0.18578984440833374,-0.8494295034762724,-0.18643262908037858,0.45737789645847676,-0.5077027841353505,2.1976036469641183,-2.9728370779456763
1773062432943957760,2.113740921020508,-0.18400777876377106,1.637534737586975,-0.9503546357154846,0.6951603889465332,0.4913555979728699,0.5247112512588501,-0.05136150121688843,-0.0023418664932250977,0.3225941061973572,0.18831890518997893,-0.8523380473715607,-0.189408266351357,0.4496447760180578,-0.5136455284512109,2.217366229149514,-2.9643938679842203
1773062432953993728,2.123776912689209,-0.12122561782598495,1.7559740543365479,-1.049111008644104,0.6811487674713135,0.4974838197231293,0.5371649265289307,-0.05404311418533325,0.15792691707611084,0.42122429609298706,0.1915524460068103,-0.855314152876976,-0.1924062138153251,0.4412767656810244,-0.5206957694899201,2.2385572367457494,-2.95599269375026
1773062432964029696,2.13381290435791,-0.07181871682405472,1.8631436824798584,-1.1054718494415283,0.6657978892326355,0.5043222308158875,0.5498837232589722,-0.04423117637634277,0.23455405235290527,0.44039636850357056,0.19530334396802518,-0.8583215622161245,-0.19551456644397244,0.43233633135853505,-0.5285969046160508,2.261132738972678,-2.947259691145314
1773062432974065664,2.1438488960266113,-0.16679155826568604,1.878867268562317,-1.1076958179473877,0.6496801972389221,0.5110005736351013,0.562844455242157,0.0059746503829956055,0.2398843765258789,0.4152286648750305,0.19905065702392286,-0.8613661266381345,-0.19867213293431166,0.42303256577119047,-0.536348387634539,2.284700877518332,-2.937939024156809
1773062432984101888,2.1538848876953125,-0.23846909403800964,1.9192601442337036,-1.1199406385421753,0.6330855488777161,0.516975462436676,0.5761411786079407,0.08279567956924438,0.21771985292434692,0.2836761474609375,0.20238896648968152,-0.8644394979926086,-0.20202709136667057,0.4134827531925632,-0.5433138356890858,2.3091377079866664,-2.9274459663953705
1773062432994137856,2.1639208793640137,-0.33623212575912476,1.9038825035095215,-1.215997576713562,0.6156936287879944,0.5227221250534058,0.5896461606025696,0.13627463579177856,0.1625499725341797,0.11987221240997314,0.20557554124269245,-0.8674713837121448,-0.20570966544526006,0.4036279340194196,-0.5500409425041396,2.334587782484042,-2.9156977262949413
1773062433004173824,2.173956871032715,-0.3717744052410126,2.076026201248169,-1.2116570472717285,0.5972049236297607,0.5279449224472046,0.603838324546814,0.14551669359207153,0.016305625438690186,-0.06715613603591919,0.2085133218229719,-0.8706092120213005,-0.20966346928624655,0.3931960232366803,-0.5561789481269362,2.361717493926435,-2.902537009603813
1773062433014209792,2.183992862701416,-0.3849152624607086,2.117691993713379,-1.286037564277649,0.577572226524353,0.533062756061554,0.6182671189308167,0.1247287392616272,-0.10657960176467896,-0.0891076922416687,0.21157519602717426,-0.8737793775193458,-0.2136425978936004,0.38223333161375617,-0.5622163789575914,2.3902117394486173,-2.888800205294659
1773062433024245760,2.194028854370117,-0.49067223072052,2.151409864425659,-1.3413666486740112,0.5570149421691895,0.5378651022911072,0.6327995657920837,0.12334388494491577,-0.04444169998168945,0.10716015100479126,0.21448843436811982,-0.8768613250904086,-0.21797704979968757,0.3709378333080397,-0.5679026411618241,2.4198030184307817,-2.8737031791736176
1773062433034281728,2.2040648460388184,-0.6666765809059143,2.2025442123413086,-1.3893388509750366,0.5355316400527954,0.5415838956832886,0.647990882396698,0.16861557960510254,0.0901755690574646,0.3111611008644104,0.21681631071305532,-0.8799926814198104,-0.22272926882509692,0.3591588375961269,-0.5723201176148158,2.4509308640365264,-2.856712537200733
1773062433044317696,2.2141008377075195,-0.4746115505695343,2.2632060050964355,-1.4353622198104858,0.5129275918006897,0.545145571231842,0.6631152033805847,0.2337459921836853,0.20923376083374023,0.38766616582870483,0.2192437806265634,-0.8830322450010563,-0.22762172586014726,0.34695047328831496,-0.5765627652764072,2.483212838207293,-2.838951636458794
1773062433054355200,2.2241382598876953,-0.27890491485595703,2.2869105339050293,-1.4649262428283691,0.4896080195903778,0.5500803589820862,0.6765321493148804,0.2853553593158722,0.23445028066635132,0.30613386631011963,0.22277953439722192,-0.8856405747722792,-0.23217845365839881,0.33481823491307106,-0.5824604493222463,2.515135434717672,-2.822382530383117
1773062433064391168,2.2341742515563965,-0.30278414487838745,2.332158327102661,-1.4690337181091309,0.4655884802341461,0.5552898049354553,0.6891154646873474,0.3168363571166992,0.13710814714431763,0.1273210644721985,0.22673077290419896,-0.8880299533776522,-0.23655979100907398,0.32254499883955445,-0.5887113750878795,2.5474089246205116,-2.806007493816184
1773062433074427136,2.2442102432250977,-0.3619321584701538,2.4179766178131104,-1.4756070375442505,0.44072315096855164,0.5594680309295654,0.7019678950309753,0.29673415422439575,0.06922465562820435,0.02982848882675171,0.23030542139890237,-0.8904545608920992,-0.24098674345957974,0.3097992224143584,-0.593743854124939,2.580954059073801,-2.7886794153342707
1773062433084463104,2.254246234893799,-0.2731952369213104,2.424304962158203,-1.5262503623962402,0.4150145649909973,0.5637286901473999,0.7141240239143372,0.24535536766052246,0.09955567121505737,0.03373974561691284,0.23418638283752044,-0.8926842009770763,-0.2453098860619919,0.2968076623210157,-0.5988932356686999,2.615147342171409,-2.7712394880749183
1773062433094499072,2.2642822265625,-0.3558536469936371,2.4466586112976074,-1.5820941925048828,0.3885776698589325,0.5677194595336914,0.7257422208786011,0.23054763674736023,0.10217183828353882,0.03187185525894165,0.23805684851605158,-0.8946691737557072,-0.2498763013930502,0.28365076841151565,-0.6037329366721259,2.650011329542588,-2.7527956636057853
1773062433104535040,2.274318218231201,-0.20245429873466492,2.46012020111084,-1.60780930519104,0.36147522926330566,0.5715657472610474,0.7366463541984558,0.25626155734062195,0.06623625755310059,0.03340351581573486,0.2420600127801359,-0.8964166668779744,-0.25448052901420815,0.2703398776564165,-0.6084127221417445,2.685409562638371,-2.7338731839221055
1773062433114571008,2.2843542098999023,-0.06889649480581284,2.4749555587768555,-1.7032737731933594,0.33356189727783203,0.5764742493629456,0.7459316849708557,0.27859020233154297,0.15765661001205444,0.15847206115722656,0.2469062931006749,-0.8976917314775296,-0.25906638480526983,0.257043773258048,-0.6144072490046082,2.7210905907112872,-2.71487470206201
1773062433124606976,2.2943902015686035,-0.16600386798381805,2.4910833835601807,-1.7240724563598633,0.3048854470252991,0.5811299681663513,0.7545417547225952,0.2904973030090332,0.17524832487106323,0.2476556897163391,0.25181569194368575,-0.8986995269960011,-0.263837141891639,0.24355309817067244,-0.6201165241899183,2.7575851432774923,-2.694892599235708
1773062433134643200,2.3044261932373047,-0.22519715130329132,2.4838335514068604,-1.765735149383545,0.2757374346256256,0.5846493244171143,0.7629900574684143,0.289356529712677,0.11717861890792847,0.22571831941604614,0.25627273970781134,-0.8995696255335124,-0.26882993192682114,0.22984602934543133,-0.6244477505830132,2.7948065620627944,-2.6737542488134824
1773062433144679168,2.314462184906006,-0.20581546425819397,2.518312931060791,-1.7681747674942017,0.2460671365261078,0.5876310467720032,0.7708050608634949,0.3252524137496948,0.13192754983901978,0.12470269203186035,0.26070064318637964,-0.9002514651486273,-0.2737696536685277,0.21594576278645225,-0.6281279583875636,2.832584769305099,-2.6522485061185215
1773062433154715136,2.324498176574707,-0.1937849074602127,2.5187442302703857,-1.8060942888259888,0.21590806543827057,0.5901855230331421,0.7778594493865967,0.3420143127441406,0.12635213136672974,-0.013638079166412354,0.2651402043796747,-0.9006796560433973,-0.2787577626050778,0.2019185443709298,-0.6312886083189738,2.87084155088968,-2.630201734711518
1773062433164751104,2.334534168243408,-0.1814296990633011,2.5657780170440674,-1.7937564849853516,0.1852996051311493,0.592292070388794,0.7841264009475708,0.3089783489704132,0.08658671379089355,-0.1028367280960083,0.26961290202948274,-0.9008855340657285,-0.2836696284214803,0.18773838200565401,-0.6339006252811723,2.9095363649726984,-2.607914375371188
1773062433174787072,2.3445701599121094,-0.10513120144605637,2.5625765323638916,-1.8418643474578857,0.15419580042362213,0.5942548513412476,0.7893570065498352,0.2784061133861542,0.04427957534790039,-0.06960004568099976,0.27429968075643446,-0.9008021074782547,-0.2885031407643432,0.17343900339148438,-0.6363388534781039,2.9486784293997097,-2.5854046211475614
1773062433184823040,2.3546061515808105,-0.10820461809635162,2.504971504211426,-1.8591246604919434,0.12297768890857697,0.5960686802864075,0.7934600710868835,0.25005391240119934,0.04876774549484253,-0.00924980640411377,0.27911118847492866,-0.9003391484729495,-0.2934611511842712,0.15927013169987098,-0.6385959268054119,2.9878269636575547,-2.5623456525227573
1773062433194859008,2.3646421432495117,-0.20320969820022583,2.463850736618042,-1.8791556358337402,0.09198430925607681,0.5968655943870544,0.7970508337020874,0.2744554877281189,0.102841317653656,0.022727489471435547,0.28353790653760513,-0.8996813068796883,-0.2984944990172395,0.1451921471949014,-0.6395888672733805,3.0266951160203224,-2.5389792525204062
1773062433204894976,2.374678134918213,-0.31184884905815125,2.4539079666137695,-1.920946478843689,0.06094079092144966,0.5961613059043884,0.8005485534667969,0.28662389516830444,0.08593708276748657,0.028919219970703125,0.28734417771159976,-0.8988966327463578,-0.3037418745965846,0.13099265288347206,-0.6387113629109238,3.065615396065022,-2.5150079810728077
1773062433214930944,2.384714126586914,-0.2855581045150757,2.427426338195801,-1.9745159149169922,0.029615314677357674,0.5946441292762756,0.8034433722496033,0.2748890817165375,0.01784360408782959,0.0054250359535217285,0.2909689592911265,-0.8978514644165313,-0.30916731191710195,0.11668494481687444,-0.6368229754663474,3.1047488449135003,-2.4904890681308136
1773062433224967168,2.3947503566741943,-0.3418675661087036,2.370191812515259,-1.9878020286560059,-0.001561111188493669,0.5923951864242554,0.8056460618972778,0.26627057790756226,-0.02525651454925537,-0.05433380603790283,0.29440176179907146,-0.8965197465301544,-0.3147624204340824,0.10249194831519536,-0.6340286313031008,-3.1396549426101896,-2.465659326363165
1773062433235003136,2.4047863483428955,-0.295472115278244,2.3396317958831787,-1.999177098274231,-0.03242477402091026,0.5894731283187866,0.8071368932723999,0.27752670645713806,0.007816851139068604,-0.04891246557235718,0.29767402740703286,-0.8949520091270338,-0.3203581661237107,0.08844040558850971,-0.6304064723161429,-3.101441661165711,-2.4409996786702797
1773062433245039104,2.4148223400115967,-0.34855836629867554,2.2922558784484863,-2.0285532474517822,-0.06310031563043594,0.5859893560409546,0.8078581094741821,0.30034399032592773,0.054910242557525635,-0.039990127086639404,0.3008644229387567,-0.8930998013809291,-0.3260395813406136,0.07450852960796452,-0.6261004863882096,-3.0636427537938857,-2.4162846538490927
1773062433255075328,2.424858331680298,-0.4002082645893097,2.215121269226074,-2.004288673400879,-0.09324391186237335,0.5813168883323669,0.8083170056343079,0.31535083055496216,-0.001040339469909668,-0.10328459739685059,0.3035716668873575,-0.8911086084945179,-0.3317890300410927,0.060710661765653595,-0.6203462295496962,-3.0267446632284,-2.391884818235128
1773062433265111296,2.434894323348999,-0.48238861560821533,2.1530649662017822,-1.9754942655563354,-0.12249482423067093,0.5756782293319702,0.8084490895271301,0.31420621275901794,-0.028192758560180664,-0.09702318906784058,0.3058554138069002,-0.889017789370402,-0.3374491399452119,0.047201793607076103,-0.6134333504466065,-2.9912181593337634,-2.36833498496344
1773062433275147264,2.4449303150177,-0.6404264569282532,2.1379826068878174,-1.9616566896438599,-0.15119034051895142,0.5683479309082031,0.8087784051895142,0.30574655532836914,-0.025424838066101074,-0.09819167852401733,0.3073735080862752,-0.8869662311135007,-0.3430453592444162,0.03365166133905575,-0.6044965755396315,-2.9567889683559354,-2.345736242879273
1773062433285183232,2.4549663066864014,-0.6377096176147461,2.1219494342803955,-1.9383642673492432,-0.1795169860124588,0.5598429441452026,0.8089188933372498,0.2862369120121002,-0.08176976442337036,-0.0950058102607727,0.30844557803953987,-0.884869543143644,-0.34851879534496527,0.020048815885304695,-0.5941962796931645,-2.923209719505936,-2.324078743179684
1773062433295219200,2.4650022983551025,-0.5012367367744446,2.072570323944092,-1.874241828918457,-0.20720429718494415,0.5514656901359558,0.8080546855926514,0.28098049759864807,-0.07122576236724854,-0.04072052240371704,0.30972095400165317,-0.8825400772451901,-0.35376597414722416,0.006760697617745299,-0.584120260031556,-2.89057744609043,-2.3032832566332515
1773062433305255168,2.4750382900238037,-0.22958417236804962,2.0291054248809814,-1.8005768060684204,-0.23391449451446533,0.5445003509521484,0.8054832816123962,0.31516754627227783,0.025400161743164062,-0.057466983795166016,0.3118085141057698,-0.8798198470505614,-0.3586902231610626,-0.00581321615557304,-0.5757933000429208,-2.85896383672633,-2.283158541814475
1773062433315291136,2.485074281692505,-0.3287312686443329,1.9803155660629272,-1.7465883493423462,-0.2597229778766632,0.5380873084068298,0.8018769025802612,0.35200804471969604,0.12092465162277222,-0.1020323634147644,0.3142318319804198,-0.876880794498191,-0.3633435434437641,-0.017889975370996625,-0.5681662458334288,-2.828361594537706,-2.2637989658455937
1773062433325327104,2.495110273361206,-0.5231175422668457,1.9375425577163696,-1.6563042402267456,-0.2845832407474518,0.529961884021759,0.7988446950912476,0.3422919809818268,0.09036892652511597,-0.18513619899749756,0.31571917147600576,-0.8742110838139159,-0.36766467874829833,-0.029984562091372527,-0.5585556004913859,-2.799366529843357,-2.246342984339128
1773062433335363072,2.5051462650299072,-0.6823098659515381,1.893578052520752,-1.6025975942611694,-0.3084805905818939,0.5203365087509155,0.7962977886199951,0.29239776730537415,0.009418249130249023,-0.1819177269935608,0.3163577048711564,-0.8717969063947634,-0.3716437122496213,-0.042060193717234955,-0.5472449772114116,-2.77200095395967,-2.2308253526849406
1773062433345399040,2.5151822566986084,-0.7359717488288879,1.8984285593032837,-1.487647294998169,-0.3316030204296112,0.5094932913780212,0.7940125465393066,0.2648305892944336,-0.06959772109985352,-0.15120559930801392,0.3163218534841439,-0.8695976858812794,-0.375241453895768,-0.05416808455811839,-0.5345958055183542,-2.74598146075636,-2.217182507955929
1773062433355435008,2.5252182483673096,-0.6384243965148926,1.8840696811676025,-1.4092960357666016,-0.3539755642414093,0.49909621477127075,0.7909514904022217,0.2352621853351593,-0.08071550726890564,-0.14619135856628418,0.316491868548405,-0.8673841744720513,-0.37831260758214075,-0.06600871572639336,-0.5225554914950852,-2.7207935757157107,-2.204949413864859
1773062433365471232,2.5352542400360107,-0.5585933923721313,1.85123610496521,-1.3486924171447754,-0.3755953013896942,0.48924240469932556,0.7871279120445251,0.21980300545692444,-0.003951817750930786,-0.14763188362121582,0.31691569142124637,-0.865042159258107,-0.3811377819088577,-0.07746339868105036,-0.5112208949147237,-2.696373747551333,-2.1934027693936495
1773062433375507200,2.545290231704712,-0.37427279353141785,1.8238129615783691,-1.270496129989624,-0.3964240252971649,0.4805181324481964,0.7822725772857666,0.23626777529716492,0.015423059463500977,-0.1299135684967041,0.3178811513390591,-0.862515021503565,-0.383671903948757,-0.08840419394884054,-0.5012454199570583,-2.6725521193189987,-2.1823258411281032
1773062433385543168,2.555326223373413,-0.26022958755493164,1.75287663936615,-1.2190959453582764,-0.41636526584625244,0.47298330068588257,0.7764835953712463,0.24192678928375244,0.06740671396255493,-0.07964527606964111,0.3193921814641989,-0.8597725527814564,-0.3860478856308514,-0.09872606197981605,-0.4926736896414449,-2.6493913970732508,-2.17137540291494
1773062433395579136,2.5653622150421143,-0.3424498736858368,1.6866697072982788,-1.1815142631530762,-0.4353781044483185,0.4656886160373688,0.7704412937164307,0.23109349608421326,0.08974650502204895,-0.08288037776947021,0.3209103591686371,-0.85699308158203,-0.3883085292036479,-0.10860860208835343,-0.48441260132888153,-2.627228626061825,-2.160952806955454
1773062433405615104,2.5753982067108154,-0.5559396147727966,1.6250747442245483,-1.1353830099105835,-0.4535127878189087,0.45697855949401855,0.7651777863502502,0.20947891473770142,0.02655729651451111,-0.11423778533935547,0.32151393011997687,-0.8545262814713143,-0.3903507831075268,-0.11849041839657698,-0.4745953428309806,-2.6065659245581263,-2.1522151468438615
1773062433415651072,2.5854341983795166,-0.7265903949737549,1.5743831396102905,-1.1093753576278687,-0.47081419825553894,0.4469304084777832,0.7606492638587952,0.18242308497428894,-0.0771183967590332,-0.10171365737915039,0.3212389975643907,-0.852362536617492,-0.39217691726618925,-0.1283779791294489,-0.46333102689381056,-2.587345903921203,-2.145141061755936
1773062433425687040,2.5954701900482178,-0.8339594006538391,1.5629833936691284,-1.0892342329025269,-0.4875926375389099,0.4355931580066681,0.7566453218460083,0.1561717391014099,-0.11271718144416809,-0.0422745943069458,0.32019093894228734,-0.8504326230871544,-0.39381087416184557,-0.13840207952238948,-0.45069712476466517,-2.5691545296988463,-2.1395237084335754
1773062433435723008,2.605506181716919,-0.6828210353851318,1.5281476974487305,-1.095947504043579,-0.5039833784103394,0.4243512451648712,0.7522810697555542,0.12562644481658936,-0.09450200200080872,-0.0037153959274291992,0.3191846581787708,-0.848406259895443,-0.3954078330493794,-0.14825866178703961,-0.4382453103118452,-2.551327135193253,-2.1341363725316516
1773062433445758976,2.61554217338562,-0.5108570456504822,1.506725788116455,-1.1121538877487183,-0.5199835300445557,0.4142085015773773,0.7470263838768005,0.12584900856018066,-0.012139439582824707,0.020933151245117188,0.31881241748406436,-0.8460048685531438,-0.3972265963079619,-0.15762439531184885,-0.4270730361007933,-2.5335083527671283,-2.127768988035533
1773062433455794944,2.6255781650543213,-0.4863288104534149,1.5348279476165771,-1.1356903314590454,-0.5359573364257812,0.4046543538570404,0.7409483790397644,0.14612585306167603,0.05281937122344971,-0.019772231578826904,0.3188941684700133,-0.8432905919661182,-0.3991680837327982,-0.16683015849504854,-0.41660082568704104,-2.515373606312115,-2.1207463422946637
1773062433465831168,2.6356141567230225,-0.6801103353500366,1.5402714014053345,-1.1322791576385498,-0.5518564581871033,0.3941335380077362,0.7349240183830261,0.12126868963241577,0.05909830331802368,-0.06321680545806885,0.31852476918469586,-0.8406302064502962,-0.4010023289657865,-0.17629518199786276,-0.4051248724050872,-2.4975140450092495,-2.114555483398931
1773062433475867136,2.6456501483917236,-0.8878363966941833,1.5558996200561523,-1.1586369276046753,-0.5676311254501343,0.38203269243240356,0.7292775511741638,0.07915157079696655,0.007692009210586548,-0.011488854885101318,0.3173310078758609,-0.8381693678117438,-0.4026299609615612,-0.18617786068986944,-0.3919948269322668,-2.480194819723155,-2.109840384607072
1773062433485903104,2.655686140060425,-0.9500858783721924,1.5985807180404663,-1.1671624183654785,-0.5834847092628479,0.36850476264953613,0.7237058877944946,0.09376907348632812,-0.05888867378234863,0.047244489192962646,0.31547029071408045,-0.8358005644893649,-0.4040920221686099,-0.1965341118398444,-0.37740007571818646,-2.463054997826262,-2.1063153071861436
1773062433495939072,2.665722131729126,-0.8285769820213318,1.6244128942489624,-1.1748533248901367,-0.5993261337280273,0.3551155924797058,0.7174270749092102,0.10994613170623779,-0.07436907291412354,0.0658678412437439,0.31380653142212733,-0.8332163589164904,-0.40554164477180416,-0.20691080017825428,-0.3630377013073403,-2.4456461232468336,-2.1027056600070346
1773062433505975040,2.675758123397827,-0.6886500716209412,1.6591423749923706,-1.2066962718963623,-0.6152113676071167,0.3424753248691559,0.7100887894630432,0.09596991539001465,0.01291722059249878,0.05454462766647339,0.31273591041136395,-0.8302343220872443,-0.4071306348200455,-0.21714511605888254,-0.34955027696562385,-2.4276619108066755,-2.09823212381374
1773062433516011264,2.6857943534851074,-0.6834683418273926,1.6841773986816406,-1.2128554582595825,-0.6310819387435913,0.3301723003387451,0.7019416689872742,0.09218722581863403,0.09396100044250488,0.03003782033920288,0.312007680700495,-0.8269593965514606,-0.40878966377565473,-0.22733337319611815,-0.33648610618598035,-2.409301626770452,-2.0933240688465182
1773062433526047232,2.6958303451538086,-0.8365351557731628,1.7318731546401978,-1.2261828184127808,-0.6469444632530212,0.3171055316925049,0.6934748888015747,0.08726722002029419,0.1184718906879425,0.01593679189682007,0.31096475647570126,-0.8236581340260303,-0.4102739622321522,-0.23783104467874683,-0.3226759438910581,-2.3908939158155706,-2.089237265997151
1773062433536083200,2.7058663368225098,-0.9143178462982178,1.7506998777389526,-1.2321898937225342,-0.6627817153930664,0.302816241979599,0.6848526000976562,0.08216947317123413,0.055612713098526,-0.017890870571136475,0.3093449510607288,-0.820395095552714,-0.41155581639253946,-0.24875594496011255,-0.30764626154975705,-2.3725705127023704,-2.0863333400030766
1773062433546119168,2.715902328491211,-0.7260187268257141,1.7281023263931274,-1.2237476110458374,-0.6782306432723999,0.2889710068702698,0.6756468415260315,0.09423112869262695,0.018997102975845337,0.036587536334991455,0.3079817231986163,-0.8169404881541444,-0.412833701727761,-0.2594682266756782,-0.29315183001671435,-2.354286036058037,-2.0832882103777446
1773062433556155136,2.725938320159912,-0.6001609563827515,1.735460638999939,-1.2292811870574951,-0.6932733058929443,0.276211678981781,0.6656417846679688,0.1545007824897766,0.1262998878955841,0.08600610494613647,0.3072813250774438,-0.8131255529529653,-0.4143039004792038,-0.26973546873994236,-0.27985020185107934,-2.3358637668252844,-2.0792176463070318
1773062433566191104,2.7359743118286133,-0.6152231097221375,1.7313246726989746,-1.192230224609375,-0.7079824209213257,0.2637144923210144,0.6551451086997986,0.20215368270874023,0.1853974163532257,0.02057492733001709,0.30674928507931937,-0.8091628723232461,-0.41572588463492927,-0.27987886368551246,-0.26687099177180484,-2.317452086247875,-2.075171609990102
1773062433576227072,2.7460103034973145,-0.7226318717002869,1.6903735399246216,-1.1772997379302979,-0.7221240401268005,0.25103941559791565,0.6446057558059692,0.1916673183441162,0.18432441353797913,0.03181654214859009,0.30599045601813435,-0.8052759687808311,-0.41693342202270894,-0.28994330229724397,-0.2537539077501022,-2.299537093641344,-2.0719739861343913
1773062433586263296,2.7560462951660156,-0.8436059355735779,1.6646281480789185,-1.1911711692810059,-0.7357085347175598,0.23735281825065613,0.6343476176261902,0.20129990577697754,0.16425853967666626,0.09442752599716187,0.30455132915785255,-0.8015541574680293,-0.4179530312737097,-0.30012457960027755,-0.23963987969181652,-2.28234599957381,-2.070095424063472
1773062433596299264,2.766082286834717,-0.8423539996147156,1.643303632736206,-1.198322057723999,-0.7488411664962769,0.2231636643409729,0.6240474581718445,0.24079972505569458,0.09586714208126068,0.11629384756088257,0.30279779284025204,-0.79782216928919,-0.41893139830919296,-0.3103060854805194,-0.22505877912520403,-2.265544978720235,-2.0687928496693213
1773062433606335232,2.776118278503418,-0.7878538966178894,1.6626685857772827,-1.2004294395446777,-0.761625349521637,0.20902158319950104,0.6133813261985779,0.23428165912628174,0.06685732305049896,0.09108632802963257,0.3010918926558037,-0.7939496053549291,-0.4199222486052724,-0.3203950202425198,-0.21057433622269092,-2.248796019011587,-2.067516090821925
1773062433616371200,2.786154270172119,-0.7567585706710815,1.68198823928833,-1.2225826978683472,-0.7742345333099365,0.19502875208854675,0.602100133895874,0.1726568341255188,0.07824090123176575,0.0597955584526062,0.29958348519725503,-0.7898371419208452,-0.4209600385077072,-0.33045366814337057,-0.19628676264858289,-2.2317732849729595,-2.0659989143885906
1773062433626407168,2.7961902618408203,-0.751905620098114,1.7108994722366333,-1.2411489486694336,-0.7866520881652832,0.18089842796325684,0.5903001427650452,0.10322624444961548,0.11925719678401947,0.05986166000366211,0.29810360691364707,-0.7855317338661865,-0.4220070556551938,-0.34056451394696663,-0.18189987663401763,-2.214550435242749,-2.064518940280956
1773062433636443136,2.8062262535095215,-0.7533698081970215,1.7527282238006592,-1.2955676317214966,-0.798966109752655,0.16642847657203674,0.5778884887695312,0.0845341682434082,0.13146889209747314,0.0757066011428833,0.29660802718681695,-0.7809848173294927,-0.4230921383293781,-0.350826966316168,-0.16720650776287696,-2.196986274358297,-2.0630634722425447
1773062433646479104,2.8162622451782227,-0.7252755165100098,1.7857475280761719,-1.3331162929534912,-0.8111780285835266,0.1515747755765915,0.5648143887519836,0.10681706666946411,0.09537345170974731,0.07394897937774658,0.29513324169451877,-0.7761261023120016,-0.42430586209429805,-0.3612328705880374,-0.15216126279324196,-2.1790273675965834,-2.0614083038737627
1773062433656515072,2.826298236846924,-0.6549046635627747,1.839309573173523,-1.3266397714614868,-0.823194146156311,0.1368207186460495,0.5510277152061462,0.09603655338287354,0.0831499844789505,0.048123955726623535,0.2938364148388327,-0.7710231171779413,-0.4254846614165298,-0.3716803923841024,-0.13725124042669976,-2.160673367149927,-2.0597050229077105
1773062433666551040,2.836334228515625,-0.6747183203697205,1.859088659286499,-1.3728768825531006,-0.8349912166595459,0.1220671534538269,0.5365533828735352,0.06282007694244385,0.12312634289264679,0.08791261911392212,0.2927297432190328,-0.7656069926902083,-0.42675827512398895,-0.38214223635568667,-0.12237234566880818,-2.141941689125632,-2.0576780836386166
1773062433676587008,2.846370220184326,-0.8258293271064758,1.9042916297912598,-1.3610312938690186,-0.8465321063995361,0.10653716325759888,0.5215684771537781,0.09496033191680908,0.14259310066699982,0.08834069967269897,0.2912169481114096,-0.7601271690428838,-0.4277743705024264,-0.39294858645121983,-0.10673973239160847,-2.1229871802238733,-2.056761380456207
1773062433686622976,2.8564062118530273,-0.8456485271453857,1.9411156177520752,-1.3511239290237427,-0.8577791452407837,0.09061749279499054,0.5059676170349121,0.13721340894699097,0.08839861303567886,0.07781833410263062,0.28943417056828313,-0.7546071631453223,-0.428429490723702,-0.404034630769118,-0.09074197312266957,-2.1037248558978208,-2.057001757838666
1773062433696659200,2.8664422035217285,-0.7669752836227417,1.957395076751709,-1.369711995124817,-0.8686162829399109,0.07477600127458572,0.48981013894081116,0.15203320980072021,0.06972473859786987,0.09052732586860657,0.2877501095366203,-0.7488695595129917,-0.42906811307933845,-0.41508397665614266,-0.07484585858762063,-2.0842463748175017,-2.0572677454564894
1773062433706695168,2.8764781951904297,-0.7130759954452515,1.9782878160476685,-1.3332124948501587,-0.8790287375450134,0.05949389562010765,0.47304201126098633,0.16699272394180298,0.08160413801670074,0.047297894954681396,0.2864674286471265,-0.7428425512751502,-0.4297742925099025,-0.42592879980181014,-0.059529046609376975,-2.064489691060375,-2.0570177437922927
1773062433716731136,2.886514186859131,-0.6849788427352905,2.0016627311706543,-1.312125325202942,-0.889021098613739,0.044609058648347855,0.45568811893463135,0.15493595600128174,0.12598419189453125,0.010849356651306152,0.28535417887285836,-0.7366866647970562,-0.43027527556545575,-0.43672527649668536,-0.04462386762331076,-2.044451591123215,-2.057073229987231
1773062433726767104,2.896550178527832,-0.7625330686569214,1.9850784540176392,-1.2764581441879272,-0.8984323740005493,0.029684610664844513,0.43810757994651794,0.13828516006469727,0.1292051374912262,-0.027829229831695557,0.2841020989489044,-0.7304917643081151,-0.43062230144588476,-0.44747319856783896,-0.029688971095227994,-2.0245035427107156,-2.057717517691377
1773062433736803072,2.906586170196533,-0.7264259457588196,2.0053439140319824,-1.2536540031433105,-0.9073008894920349,0.015099698677659035,0.42021119594573975,0.15116673707962036,0.08759193867444992,0.03463810682296753,0.28282934123484893,-0.7243172305277277,-0.430662445166695,-0.4581507355060083,-0.01510027214419087,-2.00452708201739,-2.0591000053629895
1773062433746839040,2.9166221618652344,-0.7664287090301514,1.9919220209121704,-1.2482694387435913,-0.9156553149223328,0.0005450741155073047,0.4019642472267151,0.1869564652442932,0.07423824816942215,0.06861680746078491,0.2815714352584054,-0.7179763263744164,-0.43068796710325463,-0.46875952675509364,-0.0005450741477242748,-1.9844573669829484,-2.0605981271618425
1773062433756875008,2.9266581535339355,-0.734097957611084,1.991520643234253,-1.1496694087982178,-0.923433244228363,-0.013434485532343388,0.38352423906326294,0.192582905292511,0.07926087826490402,0.02509099245071411,0.2803244076076119,-0.7117323800741593,-0.430347688306407,-0.47922460399428746,0.013434889532332081,-1.9644430693271333,-2.062899980679898
1773062433766910976,2.9366941452026367,-0.7963573336601257,1.9761130809783936,-1.1690199375152588,-0.9306466579437256,-0.027041194960474968,0.364918977022171,0.15986406803131104,0.09652970731258392,0.07105520367622375,0.27909359810385936,-0.7054842479029799,-0.4298272512418121,-0.4895379113382405,0.02704449193616063,-1.9444854413831207,-2.065628965420763
1773062433776946944,2.946730136871338,-0.792243242263794,1.9726840257644653,-1.1312744617462158,-0.9372870326042175,-0.04073444381356239,0.3461697995662689,0.16618424654006958,0.05280417576432228,0.034399598836898804,0.27763566149945856,-0.6992307237603886,-0.42914017235076957,-0.4998334354593037,0.04074571771143199,-1.9245882693357301,-2.069071169300691
1773062433786982912,2.956766128540039,-0.6061998605728149,1.9588267803192139,-1.1177847385406494,-0.9433860778808594,-0.05368664115667343,0.32732248306274414,0.15874886512756348,0.013601850718259811,0.020348936319351196,0.2765556726394701,-0.6928336957620912,-0.42853554678910666,-0.5097603019811769,0.05371246524150922,-1.9047653081352645,-2.071954003696106
1773062433797018880,2.9668021202087402,-0.6346075534820557,1.9464383125305176,-1.083828330039978,-0.9489493370056152,-0.06608458608388901,0.30842819809913635,0.151067316532135,0.0708758533000946,0.04798659682273865,0.27582976134404424,-0.6862482659718458,-0.42810911531177437,-0.5193301913107397,0.06613278190270241,-1.8850469578713938,-2.0741151477579973
1773062433807055360,2.9768383502960205,-0.6901301145553589,1.9587578773498535,-1.0566734075546265,-0.9540325999259949,-0.07822130620479584,0.289315402507782,0.12834900617599487,0.07358262687921524,-0.010155797004699707,0.274962382449124,-0.6797423248934104,-0.42732666399241065,-0.5289026862812028,0.07830129034751103,-1.865236924155722,-2.077229853127526
1773062433817091328,2.9868743419647217,-0.7323393225669861,1.9469835758209229,-1.0419199466705322,-0.9586052298545837,-0.09032150357961655,0.27003321051597595,0.11055231094360352,0.05078598111867905,0.0041519105434417725,0.2738560905100244,-0.673287332982543,-0.42626373194414946,-0.5385036814932413,0.0904447640620695,-1.8453750441317778,-2.081282154672844
1773062433827127296,2.996910333633423,-0.7335948348045349,1.927955985069275,-1.0131245851516724,-0.962697446346283,-0.1021101325750351,0.25057339668273926,0.13071203231811523,0.026838548481464386,0.06935760378837585,0.2727880854906586,-0.6667767666789837,-0.42508286785390037,-0.5479962666955208,0.10228841325670497,-1.8254290820214547,-2.0855906759866714
1773062433837163264,3.006946325302124,-0.7606908679008484,1.927634835243225,-0.9753361940383911,-0.9662753343582153,-0.11357777565717697,0.23111040890216827,0.15446197986602783,0.004492677748203278,0.06710731983184814,0.2715885981669833,-0.6603633396713342,-0.42364544312143265,-0.5573907263720254,0.11382339415589095,-1.8055625594922644,-2.090637962312122
1773062433847199232,3.016982316970825,-0.7632248401641846,1.9057163000106812,-0.970005452632904,-0.9693690538406372,-0.12466248869895935,0.21162037551403046,0.15242862701416016,-0.002855248749256134,0.03909686207771301,0.2704317700756147,-0.6539357721113626,-0.42211159126458603,-0.5666185357042159,0.12498765707723151,-1.7857315469536117,-2.0958824014511523
1773062433857235200,3.0270183086395264,-0.7780517339706421,1.9087448120117188,-0.9398747086524963,-0.9719875454902649,-0.13555504381656647,0.19200250506401062,0.12782561779022217,-0.006168574094772339,0.0433795303106308,0.26920893536214807,-0.6474780600317486,-0.4204443080332017,-0.575782325133972,0.13597365602944317,-1.7658215085899656,-2.10154408880917
1773062433867271168,3.0370543003082275,-0.6799078583717346,1.8734792470932007,-0.8852127194404602,-0.9741614460945129,-0.14581070840358734,0.17247743904590607,0.10515826940536499,-0.011812567710876465,0.026756510138511658,0.2681815890293794,-0.6410218349409157,-0.41872393000540964,-0.5846706898827607,0.1463323906277662,-1.7460325319788867,-2.107095862582635
1773062433877307136,3.0470902919769287,-0.5893968939781189,1.8357495069503784,-0.8515410423278809,-0.9758936166763306,-0.15526065230369568,0.15338054299354553,0.12729144096374512,0.028017640113830566,0.03784261643886566,0.26748290250101225,-0.6346049154639241,-0.4170933653380467,-0.5930957191515501,0.15589129690919337,-1.7266903671533025,-2.112060326790686
1773062433887343104,3.05712628364563,-0.526316225528717,1.8217130899429321,-0.8425295948982239,-0.9771785736083984,-0.16436563432216644,0.13455739617347717,0.15794962644577026,0.04002182185649872,0.03986582159996033,0.2670276035156775,-0.6280835279078231,-0.4156798981959605,-0.6011800314048151,0.16511486005550316,-1.707635675784237,-2.1163245291409116
1773062433897379072,3.067162275314331,-0.5768547654151917,1.7755019664764404,-0.7691105008125305,-0.9780660271644592,-0.1729995459318161,0.11600902676582336,0.15203148126602173,0.017359882593154907,-0.023098230361938477,0.2665738768344552,-0.6216890150802343,-0.41413437685724797,-0.6090434362367915,0.17387432555660148,-1.6888553792769945,-2.1208631810385405
1773062433907415040,3.0771982669830322,-0.46645861864089966,1.7262169122695923,-0.7493381500244141,-0.9786139726638794,-0.18092238903045654,0.09788808971643448,0.10489559173583984,-0.006592899560928345,-0.060732945799827576,0.26627212810701434,-0.6154520527165035,-0.4125079593303425,-0.6165673074450088,0.1819242356480842,-1.6704919864624272,-2.1253483355064224
1773062433917451264,3.0872342586517334,-0.5347383618354797,1.6815319061279297,-0.7230803966522217,-0.9787622094154358,-0.18863545358181,0.08025838434696198,0.08920532464981079,-0.019647017121315002,-0.03994464874267578,0.2659823291442172,-0.6092758671673534,-0.4109891845046592,-0.6237982677176986,0.18977246953378238,-1.6526131589443886,-2.129634259534627
1773062433927487232,3.0972702503204346,-0.5318533778190613,1.6388179063796997,-0.6799072623252869,-0.9786109328269958,-0.1958768367767334,0.06287088990211487,0.0835152268409729,-0.08120748400688171,-0.09723366051912308,0.2655875561468656,-0.6033083202832537,-0.40921206783305536,-0.630894390970352,0.19715152337796885,-1.6349531888462923,-2.1345572644977326
1773062433937523200,3.1073062419891357,-0.44341617822647095,1.5522031784057617,-0.6531473398208618,-0.9781498908996582,-0.2026989758014679,0.046216629445552826,0.0705571174621582,-0.0772540271282196,-0.08897173404693604,0.2652072631151311,-0.5975453217115093,-0.40748975766349105,-0.6376181044009157,0.20411332895516068,-1.6180102363991122,-2.139347008868721
1773062433947559168,3.117342233657837,-0.47137269377708435,1.4572333097457886,-0.605627715587616,-0.9774155020713806,-0.20910604298114777,0.030558591708540916,0.08068686723709106,-0.04682965576648712,-0.09807872772216797,0.2649426954196129,-0.591985322710923,-0.4059959027942499,-0.6438370621633033,0.21066070530680983,-1.6020508346691402,-2.143523280702033
1773062433957595136,3.127378225326538,-0.409683495759964,1.3885424137115479,-0.5333412885665894,-0.976547122001648,-0.21473661065101624,0.015618105418980122,0.07868945598602295,-0.06333956122398376,-0.12827372550964355,0.2646337111114396,-0.5868388913003478,-0.4042637361200201,-0.649738373874102,0.2164221486938735,-1.5867881551984546,-2.148154675866731
1773062433967631104,3.1374142169952393,-0.23859983682632446,1.2721283435821533,-0.5590125322341919,-0.9754757881164551,-0.22009843587875366,0.0018875771202147007,0.07535988092422485,-0.037225767970085144,-0.09040379524230957,0.26462009565491795,-0.5817979041782027,-0.40305705209594894,-0.6550056271725153,0.22191538429606086,-1.572731356610447,-2.1513568482553564
1773062433977667072,3.1474502086639404,-0.1716967076063156,1.1760817766189575,-0.5283899307250977,-0.9741899371147156,-0.2254844307899475,-0.010527783073484898,0.10724657773971558,-0.007120564579963684,-0.04821854829788208,0.2646778959113398,-0.5769226168456996,-0.4023635205688545,-0.659704140742189,0.22744024562029658,-1.559990042764358,-2.153483524647468
1773062433987703040,3.1574862003326416,-0.1342557966709137,1.0953177213668823,-0.455331414937973,-0.9728958606719971,-0.23019632697105408,-0.021987734362483025,0.12450718879699707,-0.04989401996135712,-0.061020076274871826,0.26490232140736253,-0.5723826541133418,-0.401726560792363,-0.6639432914226806,0.23227941837950408,-1.5481998762563003,-2.155199276783958
1773062433997739008,3.1675221920013428,-0.12511582672595978,1.004280686378479,-0.43124285340309143,-0.9715571999549866,-0.23456160724163055,-0.03251836821436882,0.11329609155654907,-0.05505022406578064,-0.11147880554199219,0.265156964401621,-0.5681312886469675,-0.4012077460001567,-0.667795603407058,0.23676756367296883,-1.5373384597776052,-2.1566041706653314
1773062434007774976,3.177558183670044,-0.11128676682710648,0.8956636786460876,-0.29707783460617065,-0.9703428149223328,-0.2380424588918686,-0.04207546263933182,0.05277097225189209,-0.12804633378982544,-0.22127598524093628,0.265519353485046,-0.5643634929905226,-0.40056974039985627,-0.6712205893896173,0.24034987104799774,-1.5274620331483415,-2.157971784545913
1773062434017810944,3.187594175338745,-0.06623726338148117,0.7556887269020081,-0.23568929731845856,-0.9693295359611511,-0.24055518209934235,-0.05033058300614357,-0.01986706256866455,-0.18815568089485168,-0.27805382013320923,0.2660359221054318,-0.5611699427657121,-0.3999037433018484,-0.6740846056550862,0.24293779442103003,-1.5189198264230674,-2.159036620954315
1773062434027847168,3.1976301670074463,-0.08647336065769196,0.6208430528640747,-0.14549614489078522,-0.9684844017028809,-0.24241726100444794,-0.05719982832670212,-0.01128244400024414,-0.18823154270648956,-0.2689872980117798,0.2665637191588749,-0.5585342777295645,-0.3992988173589997,-0.676419738179752,0.24485665121314504,-1.5118036761879678,-2.159856979028739
1773062434037883136,3.2076661586761475,-0.0548885352909565,0.4886825978755951,-0.08710474520921707,-0.9678747653961182,-0.24347081780433655,-0.06277246028184891,0.038172006607055664,-0.19000086188316345,-0.2282889485359192,0.26705369795359246,-0.5565384535150213,-0.39859593321815767,-0.6782835442889409,0.2459427568962303,-1.5060310568004827,-2.1607815513865685
1773062434047919104,3.2177021503448486,0.05278825759887695,0.3711966574192047,-0.029094265773892403,-0.9674466252326965,-0.24406372010707855,-0.06693219393491745,0.10245645046234131,-0.17149414122104645,-0.19435930252075195,0.26770889554891747,-0.5549531075711822,-0.3981971247667054,-0.6795572591732236,0.24655410487894314,-1.5017220143010421,-2.16080352677026
1773062434057955072,3.22773814201355,0.2372145652770996,0.23690809309482574,0.04079373925924301,-0.9672314524650574,-0.24415402114391327,-0.06965607404708862,0.14391303062438965,-0.15461914241313934,-0.21629363298416138,0.2687116303124622,-0.5536997762262862,-0.3982317436012163,-0.680163207685067,0.24664721640162482,-1.498904508227071,-2.1594161937962397
1773062434067991040,3.237774133682251,0.3009752333164215,0.02293112501502037,0.21267835795879364,-0.9674475789070129,-0.24313746392726898,-0.07020749151706696,0.12789392471313477,-0.16604217886924744,-0.29031193256378174,0.27009222763943247,-0.5531822718686945,-0.3986045995493949,-0.6798189545707921,0.24559906867015072,-1.4983535025241002,-2.1566622755731895
1773062434078027008,3.247810125350952,0.4050891101360321,-0.08517403900623322,0.31087204813957214,-0.9681212902069092,-0.2407931238412857,-0.06899140030145645,0.08746033906936646,-0.1955471932888031,-0.35711026191711426,0.2719577880789874,-0.5533325442442664,-0.39915835961298485,-0.6786270504518234,0.24318294337848032,-1.4996534205457719,-2.1526746899758242
1773062434088062976,3.2578461170196533,0.4601631760597229,-0.2158367782831192,0.41765761375427246,-0.9690898656845093,-0.23756051063537598,-0.06655721366405487,0.05241811275482178,-0.22421620786190033,-0.44052284955978394,0.27409631796015943,-0.5539610110179395,-0.3998106964293461,-0.6768676643852867,0.23985370062972702,-1.5022238872864493,-2.1479802011235565
1773062434098098944,3.2678821086883545,0.5405769944190979,-0.37411826848983765,0.5348124504089355,-0.9704070091247559,-0.2332412302494049,-0.06251949071884155,0.009988367557525635,-0.2322891354560852,-0.5075183510780334,0.2765221272480306,-0.5552196295059723,-0.40058883965373454,-0.6743850552092748,0.23540951728594858,-1.5064591941603918,-2.142482535369968
1773062434108134912,3.2779181003570557,0.5973919630050659,-0.556961715221405,0.6246199011802673,-0.9720354080200195,-0.22789660096168518,-0.05666176602244377,0.03155982494354248,-0.2086574286222458,-0.48691731691360474,0.27914466698974794,-0.557171067276399,-0.4015339562497157,-0.6711253826732735,0.2299168845491434,-1.512570341105714,-2.136247659330385
1773062434118170880,3.287954092025757,0.6065196990966797,-0.7095025181770325,0.665666937828064,-0.9738333225250244,-0.2218928337097168,-0.04911552369594574,0.11699128150939941,-0.1986089050769806,-0.45405828952789307,0.28173172140038216,-0.5597559038028698,-0.40263577292811964,-0.6672219086662804,0.22375526486710537,-1.52040377913501,-2.1296820573729467
1773062434128206848,3.297990083694458,0.5632520318031311,-0.8476030230522156,0.7369136810302734,-0.975708544254303,-0.21535079181194305,-0.040208324790000916,0.15556395053863525,-0.20937757194042206,-0.4243454933166504,0.28414354406444553,-0.5629212023566667,-0.4037518525114135,-0.662847290241043,0.21705103589608138,-1.5296102724039187,-2.123285121866947
1773062434138243072,3.308026075363159,0.44979339838027954,-1.0249497890472412,0.8425359725952148,-0.9777129292488098,-0.2077883780002594,-0.03002072311937809,0.13538211584091187,-0.23422817885875702,-0.35207462310791016,0.28626593703594516,-0.5669064013316529,-0.40448333756751703,-0.6580745237292442,0.20931344123784476,-1.5401009216092723,-2.117934059891754
1773062434148279040,3.3180620670318604,0.5211552381515503,-1.2766375541687012,0.9169005751609802,-0.9797809720039368,-0.1992826759815216,-0.01776309125125408,0.13596999645233154,-0.2474793642759323,-0.29783445596694946,0.28819122216123705,-0.5717725333597605,-0.40520935843556827,-0.6525544362711606,0.20062586228903867,-1.5526686567365415,-2.1127949280855645
1773062434158315008,3.3280980587005615,0.643192708492279,-1.4944509267807007,1.0221983194351196,-0.9818217754364014,-0.18978306651115417,-0.0029000351205468178,0.18607592582702637,-0.24761013686656952,-0.26505953073501587,0.29017968815661366,-0.5774576567195899,-0.40631593273436173,-0.6459456599130581,0.19094118729956833,-1.5678426069003881,-2.106780525843136
1773062434168350976,3.3381340503692627,0.7466838359832764,-1.592223882675171,1.084996223449707,-0.9836897253990173,-0.1793537139892578,0.013661198318004608,0.21971279382705688,-0.210813507437706,-0.30279994010925293,0.29246698882667455,-0.5835647172014213,-0.40777790543240433,-0.638460951776231,0.18032946725148458,-1.584683145138297,-2.0996474015980504
1773062434178386944,3.348170042037964,0.8029433488845825,-1.6863789558410645,1.140288233757019,-0.9852651357650757,-0.1681697815656662,0.031170329079031944,0.19875085353851318,-0.1294528990983963,-0.3747525215148926,0.2949585917543598,-0.5899033946670014,-0.4093887505650259,-0.6304080457826416,0.16897270664752626,-1.602422265599831,-2.0919621887119844
1773062434188423168,3.358206272125244,0.7147957682609558,-1.8004156351089478,1.166735291481018,-0.9864345192909241,-0.15645304322242737,0.04969487711787224,0.14724689722061157,-0.08530722558498383,-0.43311774730682373,0.29726894131558496,-0.5966232103264768,-0.4109600745267171,-0.6219194657510669,0.15709843899713552,-1.6211320540754508,-2.0846526594601906
1773062434198459136,3.3682422637939453,0.5500097274780273,-1.9152476787567139,1.180476427078247,-0.9870970249176025,-0.14446528255939484,0.06906010955572128,0.14996933937072754,-0.11911505460739136,-0.351393461227417,0.29898116723043655,-0.6038505703053878,-0.412182657118971,-0.61325382314587,0.14497256639291303,-1.6406453450051983,-2.0789159686636878
1773062434208495104,3.3782782554626465,0.39301106333732605,-2.01876163482666,1.2160872220993042,-0.9871968626976013,-0.13224509358406067,0.08918163180351257,0.19885164499282837,-0.18722814321517944,-0.22623610496520996,0.29997389098091004,-0.6116414034158923,-0.41289903244876713,-0.6045037075662542,0.132633621340511,-1.6608900218543432,-2.075222090168117
1773062434218531072,3.3883142471313477,0.3815906345844269,-2.157966375350952,1.2952358722686768,-0.986692488193512,-0.11943177878856659,0.11033525317907333,0.23716557025909424,-0.20631282031536102,-0.15574538707733154,0.3005923203369264,-0.6199595191880823,-0.41330112797377094,-0.595379360994599,0.11971754843788807,-1.6821570413398632,-2.072701142655757
