time,seconds_elapsed,rotationRateX,rotationRateY,rotationRateZ,gravityX,gravityY,gravityZ,accelerationX,accelerationY,accelerationZ,quaternionW,quaternionX,quaternionY,quaternionZ,pitch,roll,yaw
1773065223793164032,0.03497910499572754,-0.10239376872777939,-0.12553296983242035,0.04203252121806145,0.04028907045722008,-0.21661195158958435,-0.9754260778427124,0.041314929723739624,-0.056749239563941956,0.030891835689544678,-0.9734431802452236,-0.11082645176517004,0.0021104147056848796,0.2003033067073517,0.21834268374632876,0.04128061002735065,-0.4103960116088337
1773065223803202048,0.045017242431640625,-0.13395768404006958,-0.17862242460250854,0.061427921056747437,0.03869124874472618,-0.21545346081256866,-0.975747287273407,0.029362943023443222,-0.05180419981479645,0.006692171096801758,-0.9735565773615478,-0.11008508821011706,0.002761245201244108,0.20015293216992439,0.2171561783076469,0.03963217723351129,-0.40984907802996934
1773065223813240064,0.05505514144897461,0.08781518787145615,-0.03891086205840111,-0.40788522362709045,0.03785199671983719,-0.21508608758449554,-0.9758612513542175,0.0005696304142475128,-0.019685640931129456,-0.01225215196609497,-0.9734702911684214,-0.10981407196444813,0.003200118890032431,0.20071396879088627,0.21677998255780526,0.03876886056646895,-0.41088826627607666
1773065223823278080,0.0650932788848877,0.14755649864673615,-0.20852160453796387,-0.4881112277507782,0.037740446627140045,-0.21607166528701782,-0.9756478071212769,-0.008229956030845642,0.020164087414741516,-0.02793794870376587,-0.9728880143257047,-0.11028509082325966,0.003644615483999693,0.20325527948594252,0.21778928528985944,0.03866317340847618,-0.41614162376564096
1773065223833316096,0.07513117790222168,0.14452210068702698,-0.19292214512825012,-0.2500872015953064,0.03658156469464302,-0.2173929214477539,-0.9753984212875366,0.024392548948526382,0.014756232500076294,-0.058750689029693604,-0.97242279040222,-0.1108146826421542,0.004570643815078882,0.20516578340715416,0.21914271962757603,0.037486659568013864,-0.41999355858875886
1773065223843354112,0.08516907691955566,0.15902869403362274,-0.2666517496109009,-0.1667310893535614,0.03478112444281578,-0.21880118548870087,-0.975149393081665,0.12110266089439392,0.07753530144691467,-0.003213644027709961,-0.9721411217327727,-0.11132187453546132,0.005722837776689531,0.20619458562976184,0.22058571183020179,0.0356523693260949,-0.4219606744697439
1773065223853392128,0.09520721435546875,0.15204134583473206,-0.30851319432258606,-0.3296707272529602,0.032447315752506256,-0.2202489823102951,-0.9749038815498352,0.09500935673713684,0.1157110184431076,0.001255810260772705,-0.9717942658392933,-0.11178792511038713,0.007177945505652847,0.20752817943127005,0.2220697122724102,0.03327029922310743,-0.4244924056763052
1773065223863430144,0.10524511337280273,0.11584748327732086,-0.2895756959915161,-0.4710949659347534,0.030436433851718903,-0.22144174575805664,-0.9746984839439392,0.0440722331404686,0.05443429946899414,0.009824275970458984,-0.9712760500752556,-0.11215049898953192,0.00854466964618227,0.20969545530384445,0.2232926716264252,0.031216367571043846,-0.4287665510416277
1773065223873468160,0.11528325080871582,0.10346085578203201,-0.3057810366153717,-0.46498140692710876,0.028606941923499107,-0.22233138978481293,-0.9745513796806335,0.04050011932849884,0.008067488670349121,0.03395390510559082,-0.97070207042781,-0.1123732955742712,0.009825919419147747,0.21216349413135002,0.22420505512948594,0.029345532312693233,-0.4336700697181343
1773065223883505152,0.1253201961517334,0.16890062391757965,-0.3696299195289612,-0.4758389890193939,0.026388738304376602,-0.22348110377788544,-0.9743509888648987,0.0686735212802887,0.009858056902885437,0.03526407480239868,-0.970111579225445,-0.11267752368308975,0.011326299950433381,0.2146137348027015,0.22538444458846313,0.02707678251079339,-0.43850300428388583
1773065223893542912,0.13535809516906738,0.27463558316230774,-0.4454125761985779,-0.5852656364440918,0.02362050674855709,-0.22551651298999786,-0.9739529490470886,0.11795054376125336,0.03728410601615906,0.0258634090423584,-0.9693901542226712,-0.1133504083540665,0.013236389911590757,0.2173920640717274,0.22747317310519222,0.024247451226850326,-0.4439833050851133
1773065223903581184,0.14539623260498047,0.40157487988471985,-0.5100839734077454,-0.7169246077537537,0.020427385345101357,-0.22864337265491486,-0.9732959270477295,0.12395127862691879,0.05698201060295105,0.003813505172729492,-0.9684470772555126,-0.1144985990004731,0.015560035500962063,0.22081286717154444,0.2306839190980448,0.020984766547615157,-0.45078105092462656
1773065223913618944,0.15543413162231445,0.5191870331764221,-0.5960981845855713,-0.8239437341690063,0.016820814460515976,-0.23301024734973907,-0.972328782081604,0.11347398906946182,0.07883545756340027,-0.0002663731575012207,-0.9672713453090769,-0.11619056686584242,0.018312630117542802,0.22483485545048934,0.23517199219084697,0.017297786691280227,-0.4588171662529388
1773065223923657216,0.16547226905822754,0.6159697771072388,-0.6562599539756775,-0.9182437062263489,0.012789413332939148,-0.23840433359146118,-0.9710817933082581,0.12917834520339966,0.09506328403949738,0.0023623108863830566,-0.9658800212337194,-0.11831254230282758,0.021476964802581752,0.22938293276287694,0.24072248360535706,0.013169513122705617,-0.46792575573280937
1773065223933694976,0.17551016807556152,0.7092118263244629,-0.728847324848175,-1.0065290927886963,0.008328131400048733,-0.24476583302021027,-0.9695464372634888,0.1573518067598343,0.10272176563739777,0.0043822526931762695,-0.9642787938380725,-0.12082706797130048,0.025051747930910896,0.23439230630159416,0.24727817154253467,0.008589507804532295,-0.47796891499074007
1773065223943732992,0.1855480670928955,0.8175008893013,-0.7972745895385742,-1.0488070249557495,0.003496602177619934,-0.2521234154701233,-0.967688798904419,0.17220836877822876,0.10850769281387329,-0.0022361278533935547,-0.9624775337916879,-0.12374995909582863,0.029009631780245782,0.23975296761065806,0.254873917778691,0.003613338325877629,-0.48872551676262793
1773065223953771008,0.1955862045288086,0.883852481842041,-0.9002092480659485,-1.060950756072998,-0.0020673510152846575,-0.2604316473007202,-0.9654901027679443,0.18024423718452454,0.10874402523040771,-0.030145883560180664,-0.9605235884375151,-0.12701347608436625,0.03350429741918267,0.24523376154515966,0.26346925300006674,-0.002141241887305833,-0.4996612629184085
1773065223963809024,0.20562410354614258,0.843344509601593,-0.9516571164131165,-1.0905187129974365,-0.008177900686860085,-0.2688809037208557,-0.9631386995315552,0.19135966897010803,0.0983029305934906,-0.05857449769973755,-0.9584606938371392,-0.13023041505429409,0.03834945528545314,0.2508438224793337,0.27223097081003883,-0.008490681716755587,-0.5107853116178642
1773065223973847040,0.21566224098205566,0.702507734298706,-0.9925633072853088,-1.1484675407409668,-0.014519534073770046,-0.2765328288078308,-0.960894763469696,0.18517383933067322,0.07771080732345581,-0.06008601188659668,-0.9563202495336832,-0.13296310328096228,0.043283040487963324,0.25670791405153326,0.28018434984869117,-0.015109281192665112,-0.5223707660950362
1773065223983885056,0.22570013999938965,0.5056416392326355,-1.0176763534545898,-1.1871951818466187,-0.02088961936533451,-0.2825741469860077,-0.9590179920196533,0.14704927802085876,0.05704924464225769,-0.05444025993347168,-0.9541563650804623,-0.13482721473433115,0.048089891490432225,0.26285840002988364,0.2864765723251152,-0.02177885923252947,-0.5344980015339225
1773065223993923072,0.23573827743530273,0.2830924391746521,-0.9847726821899414,-1.210166573524475,-0.027105558663606644,-0.2866639196872711,-0.9576476812362671,0.11154769361019135,0.025433450937271118,-0.04712831974029541,-0.9520371723880556,-0.1356826926152761,0.05259626553525021,0.26916344043807877,0.29074278737769044,-0.028296757557360174,-0.5469220456403784
1773065224003961088,0.24577617645263672,0.03577040880918503,-1.0123456716537476,-1.2523384094238281,-0.03310627490282059,-0.28857365250587463,-0.9568851590156555,0.08274312317371368,-0.012985795736312866,-0.05352133512496948,-0.9499727626150692,-0.13542473371978217,0.05672350226541921,0.27567080033552316,0.29273676929636705,-0.0345841650553162,-0.5597629038998537
1773065224013992192,0.25580716133117676,-0.2549112141132355,-1.0311177968978882,-1.2891600131988525,-0.039210427552461624,-0.28796684741973877,-0.9568372964859009,0.05376732349395752,-0.04223331809043884,-0.06862956285476685,-0.947968693621737,-0.13384290973690566,0.0605592052464832,0.2824431783020776,0.2921030702098097,-0.040956284340160055,-0.5731166964861294
1773065224024030208,0.26584529876708984,-0.5354511737823486,-1.0508761405944824,-1.3185858726501465,-0.04542963579297066,-0.28469225764274597,-0.9575418829917908,0.030979566276073456,-0.05307626724243164,-0.06789451837539673,-0.9460360647476953,-0.1308677327667134,0.06405225319647598,0.28945961128142067,0.28868539943729193,-0.04740847058981592,-0.5869593266462273
1773065224034068224,0.27588319778442383,-0.7641932964324951,-1.0720819234848022,-1.3296568393707275,-0.05183406174182892,-0.27904167771339417,-0.9588789939880371,0.029190026223659515,-0.03449589014053345,-0.06931918859481812,-0.9441630091758463,-0.12664626932103987,0.0672399598890571,0.2966408124360607,0.2827960023924081,-0.0540043733436521,-0.6011472175103346
1773065224044105984,0.2859210968017578,-0.9325606822967529,-1.1117900609970093,-1.337456464767456,-0.05869889259338379,-0.27156949043273926,-0.9606271386146545,0.05203080549836159,-0.036413878202438354,-0.08040374517440796,-0.9423087613756304,-0.12142162661952846,0.07030813387027231,0.3039205300365227,0.2750234396503014,-0.06102888102492407,-0.6155399493363181
1773065224054144256,0.2959592342376709,-1.027453064918518,-1.1327476501464844,-1.3574485778808594,-0.0658775344491005,-0.26292717456817627,-0.9625639915466309,0.0713859498500824,-0.05657660961151123,-0.09943246841430664,-0.9404107498287084,-0.1155384845492114,0.07327249794450574,0.3113030076381199,0.2660548641805299,-0.06833308299287916,-0.6302023083462919
1773065224064182016,0.3059971332550049,-1.113878607749939,-1.1817833185195923,-1.4066680669784546,-0.0735122412443161,-0.25350770354270935,-0.9645360708236694,0.080027736723423,-0.05780211091041565,-0.11096441745758057,-0.9383983720249836,-0.10916092680443398,0.07626183598819605,0.31886741859164297,0.25630469759600405,-0.07606806997225196,-0.6453110467428673
1773065224074220288,0.31603527069091797,-1.1341731548309326,-1.242321491241455,-1.4555416107177734,-0.08165277540683746,-0.24365079402923584,-0.9664197564125061,0.09071650356054306,-0.03016817569732666,-0.1147112250328064,-0.9362096817463457,-0.10243675512321467,0.0793526167465864,0.32668253559625055,0.24612831630167434,-0.08428978430358189,-0.661031580656276
1773065224084258048,0.32607316970825195,-1.0109915733337402,-1.303126573562622,-1.4748116731643677,-0.09039346128702164,-0.23439009487628937,-0.9679309129714966,0.10760538280010223,-0.0015718042850494385,-0.13939934968948364,-0.9337960188373763,-0.09584808531176288,0.08275068291074104,0.33464965305230754,0.23659113899729428,-0.09311825597270466,-0.677158416500439
1773065224094296064,0.33611106872558594,-0.7450437545776367,-1.4081823825836182,-1.4556763172149658,-0.10015222430229187,-0.22721360623836517,-0.9686813354492188,0.13799402117729187,-0.0008137375116348267,-0.20278167724609375,-0.9311392946719776,-0.09004167262942867,0.08690130353225237,0.3425203555275366,0.22921549761405707,-0.10302421870754067,-0.6931066694136364
1773065224104334080,0.346149206161499,-0.4762078821659088,-1.519317388534546,-1.4518742561340332,-0.111061692237854,-0.2228461652994156,-0.9685065150260925,0.1713034063577652,-0.017433971166610718,-0.2746727466583252,-0.9282300226359651,-0.08532269431295417,0.09201506619552725,0.35020344947330195,0.2247330779210205,-0.11417442642966211,-0.7086403327540458
1773065224114371072,0.3561861515045166,-0.30957043170928955,-1.6244144439697266,-1.4937745332717896,-0.12304669618606567,-0.22081510722637177,-0.9675226807594299,0.18214398622512817,-0.02707916498184204,-0.2958592176437378,-0.9250278813730538,-0.08143391682941196,0.09801613981693047,0.35788912972049136,0.22265013024715383,-0.12649798758972783,-0.7241575978208893
1773065224124409088,0.3662242889404297,-0.27742770314216614,-1.743296504020691,-1.5495089292526245,-0.13589681684970856,-0.2199944257736206,-0.9659888744354248,0.17479145526885986,-0.0267249196767807,-0.2787621021270752,-0.9215288000221146,-0.07783657654844289,0.10462806078735072,0.36575817129412536,0.22180876094389876,-0.13976433023935508,-0.7400791168276589
1773065224134447104,0.37626218795776367,-0.3465377688407898,-1.8110320568084717,-1.6099607944488525,-0.14950500428676605,-0.21920058131217957,-0.9641573429107666,0.17330871522426605,-0.027915507555007935,-0.2229459285736084,-0.9177547105561956,-0.07396134919202024,0.1115842934785845,0.37390489962837387,0.2209950496989,-0.15383769223138274,-0.7566588757587238
1773065224144485120,0.38630008697509766,-0.463988333940506,-1.890049934387207,-1.6754770278930664,-0.16372868418693542,-0.21784107387065887,-0.962152898311615,0.17241092026233673,-0.019249990582466125,-0.171453058719635,-0.9137131561240389,-0.06953577273090934,0.11869428683422528,0.38236706484203387,0.2196018711552362,-0.16855449646956247,-0.7740378252218838
1773065224154523136,0.39633822441101074,-0.6024755835533142,-1.9836156368255615,-1.7464691400527954,-0.1786293238401413,-0.21562893688678741,-0.9599977731704712,0.1673683375120163,-0.009758636355400085,-0.1522916555404663,-0.9093896262211214,-0.0643966773034287,0.12591339311792293,0.3911641114858494,0.21733587784337152,-0.1839687200069865,-0.792304324142115
1773065224164561152,0.4063761234283447,-0.85298752784729,-2.0917365550994873,-1.885130763053894,-0.1943259984254837,-0.21210834383964539,-0.9577303528785706,0.1729789674282074,0.0029408782720565796,-0.14738738536834717,-0.9046833189424928,-0.05826142783265686,0.1331931793298825,0.40051625602519897,0.21373189743647547,-0.20018497299244545,-0.8120113681375907
1773065224174599168,0.4164142608642578,-1.2308319807052612,-2.1776089668273926,-2.0794477462768555,-0.2106686383485794,-0.20615540444850922,-0.9555724263191223,0.1741848737001419,0.023812875151634216,-0.13039559125900269,-0.8994743677705298,-0.050570941289952064,0.1402011604715561,0.4107700607599576,0.2076443338816824,-0.2169921655017318,-0.8340886566868924
1773065224184637184,0.4264521598815918,-1.612280249595642,-2.2410976886749268,-2.271531581878662,-0.22739866375923157,-0.19724516570568085,-0.9536163806915283,0.17045286297798157,0.04943327605724335,-0.11224055290222168,-0.8936602327373907,-0.041094137157553196,0.14663929750663246,0.42211323466448897,0.1985470855907997,-0.23408764906301746,-0.8591334467643376
1773065224194675200,0.4364902973175049,-1.8602524995803833,-2.293642044067383,-2.4280266761779785,-0.24455958604812622,-0.18611811101436615,-0.9516042470932007,0.17732936143875122,0.04765985906124115,-0.14420568943023682,-0.8872263446310655,-0.03018668134601113,0.1525996014430561,0.4343172377438883,0.18720973638011865,-0.25155329717225894,-0.8867211254951332
1773065224204713216,0.44652819633483887,-2.127199411392212,-2.2548208236694336,-2.6289355754852295,-0.2616696357727051,-0.17350274324417114,-0.9494344592094421,0.19028902053833008,0.024393856525421143,-0.16290074586868286,-0.8801105938472984,-0.01828404004332627,0.1579508290447355,0.44735059173661607,0.17438525433083335,-0.2689293310879668,-0.9168638141982306
1773065224214750976,0.45656609535217285,-2.2607059478759766,-2.2784109115600586,-2.816638708114624,-0.27870744466781616,-0.15983782708644867,-0.9469815492630005,0.17447465658187866,0.02035723626613617,-0.11426723003387451,-0.8722097760030455,-0.005578633625786502,0.1627209543295569,0.461238522243334,0.16052636113771915,-0.2862297494544285,-0.9496870879670825
1773065224224789248,0.46660423278808594,-2.14573073387146,-2.336337089538574,-2.9171321392059326,-0.29609379172325134,-0.14705587923526764,-0.9437706470489502,0.15130317211151123,0.05043722689151764,-0.0635535717010498,-0.863535590480243,0.007116630115641638,0.1675232098028684,0.47559622748487673,0.1475911362647909,-0.3040095063802047,-0.984195824963832
1773065224234827008,0.4766421318054199,-1.8251659870147705,-2.4629054069519043,-2.9347143173217773,-0.3146308660507202,-0.13713811337947845,-0.9392552971839905,0.14234387874603271,0.08032964169979095,-0.11996406316757202,-0.8542632909036675,0.0190488481291255,0.17323244854999723,0.48975691038547614,0.13757164961713608,-0.32323096577275634,-1.0186612947618936
1773065224244865280,0.486680269241333,-1.4040336608886719,-2.5869805812835693,-2.947495937347412,-0.3343020975589752,-0.13150154054164886,-0.9332467317581177,0.15623202919960022,0.09718452394008636,-0.23015964031219482,-0.8445074117251944,0.02960820032244406,0.1802775459055274,0.5034188680640015,0.13188352880499393,-0.34397364733444175,-1.0521669764415784
1773065224254902016,0.4967172145843506,-1.1952662467956543,-2.751741886138916,-2.9703688621520996,-0.35538896918296814,-0.12978148460388184,-0.9256648421287537,0.17205464839935303,0.09369446337223053,-0.34504127502441406,-0.8342428645380698,0.03911541233165859,0.18877910706983989,0.5165958003080865,0.13014859319122354,-0.3665751749424212,-1.0847334541906029
1773065224264940032,0.5067551136016846,-1.2594091892242432,-2.778294801712036,-3.0445899963378906,-0.3770955502986908,-0.12955528497695923,-0.917068362236023,0.1983083188533783,0.07665306329727173,-0.33926403522491455,-0.8233998996003974,0.04854242651497111,0.19776109262575067,0.5296667419106691,0.1299204757338997,-0.39012134033816465,-1.117552726024861
1773065224274978048,0.5167932510375977,-1.5404558181762695,-2.7107791900634766,-3.0997800827026367,-0.3983151316642761,-0.12884360551834106,-0.9081543684005737,0.191817969083786,0.02552635967731476,-0.239321768283844,-0.8119571268632086,0.05851344864290681,0.20615282182183592,0.5429574864836724,0.12920278414907485,-0.41333207688526447,-1.1516962836409652
1773065224285016064,0.5268311500549316,-1.9603967666625977,-2.532320499420166,-3.038377046585083,-0.4182192087173462,-0.12559440732002258,-0.8996214270591736,0.17114892601966858,-0.04548713564872742,-0.15312820672988892,-0.8001503777310671,0.06959211977272607,0.21294650999931636,0.5563902620956725,0.12592695993529063,-0.4351619278795238,-1.1873312271257492
1773065224295052544,0.536867618560791,-2.394061803817749,-2.2991676330566406,-2.929527521133423,-0.4362776279449463,-0.11880714446306229,-0.8919342756271362,0.16056659817695618,-0.07514733076095581,-0.02980339527130127,-0.7882769681033547,0.08187670984226658,0.21755247893308913,0.5697250415951325,0.11908842791021944,-0.45491914176788595,-1.2240644310095057
1773065224305090560,0.5469057559967041,-2.667523145675659,-1.9734985828399658,-2.8385000228881836,-0.452092707157135,-0.10892245173454285,-0.8852954506874084,0.1149040162563324,-0.08185818046331406,0.17969858646392822,-0.7764538621475938,0.09491855648841951,0.21986980783738616,0.5828954269245191,0.1091389873371203,-0.4721461151433022,-1.2616379282329784
1773065224315128576,0.5569436550140381,-2.6703829765319824,-1.5821657180786133,-2.694889783859253,-0.4649432897567749,-0.09794162213802338,-0.8799063563346863,0.0594104528427124,-0.08812405914068222,0.4031302332878113,-0.7649311938765774,0.10747256123513896,0.2202191441972729,0.595679020896152,0.09809888421131854,-0.48610931351499126,-1.2989366134920186
1773065224325166592,0.5669817924499512,-2.6712520122528076,-1.247239589691162,-2.4652316570281982,-0.47498196363449097,-0.08657857775688171,-0.8757261633872986,0.02277246117591858,-0.08778359740972519,0.4896177649497986,-0.7540583145259264,0.11907151061955976,0.21899520697657274,0.6076669579403816,0.08668710706636427,-0.49697905509835566,-1.334601949787187
1773065224335204608,0.5770196914672852,-2.5378289222717285,-0.8923758268356323,-2.273979425430298,-0.48244306445121765,-0.07489699870347977,-0.8727193474769592,0.010519206523895264,-0.017052456736564636,0.5981374979019165,-0.7439860977481866,0.1296438249283091,0.2164088542982441,0.6187441013708339,0.07496719790670663,-0.504993709611686,-1.3681504805440718
1773065224345242624,0.5870578289031982,-2.1681926250457764,-0.5294214487075806,-2.253326177597046,-0.4870261549949646,-0.06513421982526779,-0.8709552884101868,-0.0030861198902130127,0.05442254990339279,0.6128681302070618,-0.7345821209503182,0.1382076907514314,0.21312203983063802,0.6291794480147153,0.06518036065358207,-0.5098685834149004,-1.39953475113504
1773065224355280640,0.5970957279205322,-1.7075031995773315,-0.17552809417247772,-2.262298345565796,-0.4885891079902649,-0.05908264219760895,-0.8705112934112549,-0.022977054119110107,0.11048950254917145,0.5278751850128174,-0.7256707023077653,0.14405824376759338,0.20974168185208142,0.6392633358714855,0.059117068547171574,-0.5114521765694279,-1.4288942921178207
1773065224365318656,0.6071336269378662,-1.2125794887542725,0.11205082386732101,-2.318585157394409,-0.4874502122402191,-0.057506974786520004,-0.8712549805641174,-0.025138258934020996,0.2366909384727478,0.5136347413063049,-0.7171982761578916,0.14703032979451147,0.20677185322922856,0.6490408822568319,0.05753871763733899,-0.5100928082744042,-1.4560995822706024
1773065224375356672,0.6171717643737793,-0.6474924087524414,0.27677851915359497,-2.4879729747772217,-0.4843042492866516,-0.06091553717851639,-0.872776448726654,-0.036630779504776,0.3972192704677582,0.547825276851654,-0.7088383176534744,0.1472950022395369,0.20473390663985153,0.6587385137056915,0.060953271842459335,-0.5065979668073524,-1.4817782042481502
1773065224385394688,0.6272096633911133,-0.013596521690487862,0.39348623156547546,-2.6651792526245117,-0.47962623834609985,-0.07062114775180817,-0.8746263980865479,-0.046527326107025146,0.448459267616272,0.5631639957427979,-0.7003401826404987,0.14464291465621867,0.20436542245805162,0.668458584212051,0.07067998554971155,-0.5015973708720537,-1.506106720311757
1773065224395431424,0.6372466087341309,0.2611117362976074,0.5209107398986816,-2.487910509109497,-0.47363564372062683,-0.08431785553693771,-0.8766753673553467,-0.02901935577392578,0.2943245768547058,0.49055176973342896,-0.692110926340215,0.13994990920279285,0.20512514615395536,0.6777315738892069,0.08441808432935147,-0.4953371960887706,-1.5284450192446175
1773065224405469696,0.647284746170044,0.3676884174346924,0.6879764795303345,-2.0198397636413574,-0.46622729301452637,-0.09779711812734604,-0.8792427182197571,0.06293752789497375,0.050296515226364136,0.47773826122283936,-0.6852337167464322,0.1344378379749342,0.20568202306837005,0.6856209275965608,0.09795368803491462,-0.48756158079533707,-1.5469790905591756
1773065224415507456,0.6573226451873779,0.3229404091835022,0.7995277643203735,-1.5924333333969116,-0.45771491527557373,-0.1092611625790596,-0.8823599219322205,0.14396369457244873,-0.195914626121521,0.47180694341659546,-0.6800272804276626,0.12877350881811334,0.2055174305895041,0.6919125138973644,0.10947973568244626,-0.47852654617009055,-1.5613909672798028
1773065224425545728,0.667360782623291,0.20224988460540771,0.8463718295097351,-1.324113130569458,-0.4487306475639343,-0.11820735037326813,-0.8858147859573364,0.12219256162643433,-0.39723455905914307,0.3851586580276489,-0.6760002995101224,0.12349905084613952,0.20454971906689945,0.6970875813022523,0.11848437735518311,-0.4688928855324795,-1.5731792588089535
1773065224435583488,0.677398681640625,-0.07294706255197525,0.8476232290267944,-1.1631873846054077,-0.4396623969078064,-0.12443117797374725,-0.8895020484924316,0.054667890071868896,-0.508396565914154,0.30118417739868164,-0.6725597352559348,0.11899092475651975,0.20270702740240398,0.7017225672366187,0.12475453681002709,-0.45906054605842944,-1.584046489794927
1773065224445621760,0.6874368190765381,-0.4292668402194977,0.8552230596542358,-1.0167139768600464,-0.4306938052177429,-0.12688177824020386,-0.8935344815254211,-0.016037791967391968,-0.5310161709785461,0.25721246004104614,-0.6694162673753313,0.11576134297177344,0.19957970939821462,0.7061510356266668,0.12722471969625165,-0.4491534233922908,-1.595095027291132
1773065224455659520,0.6974747180938721,-0.48763906955718994,0.8592974543571472,-0.9123440980911255,-0.421527236700058,-0.1270737648010254,-0.8978680372238159,-0.022030502557754517,-0.5114912986755371,0.2661694288253784,-0.6666273820083903,0.1131293869848549,0.19562135312547552,0.7103111579134995,0.12741826718290078,-0.4389313620622024,-1.60576729612697
1773065224465697536,0.707512617111206,-0.8489700555801392,0.7292388081550598,-0.5402547717094421,-0.4132898449897766,-0.12413867563009262,-0.9020981788635254,-0.006616771221160889,-0.5277931094169617,0.3081955909729004,-0.6643202894344464,0.11177200143604551,0.19093960553010053,0.7139521722233734,0.1244597451090525,-0.4296048582904679,-1.6155991191202785
1773065224475735552,0.7175507545471191,-0.23364698886871338,0.7256909608840942,0.21722203493118286,-0.40614283084869385,-0.11916421353816986,-0.9060065746307373,-0.014694571495056152,-0.592993974685669,0.2797400951385498,-0.6641268790911894,0.11094118315171474,0.18624919476547894,0.7154990793409857,0.11944805297302603,-0.4214209897092637,-1.6196575350484097
1773065224485773568,0.7275886535644531,0.744452714920044,0.5610292553901672,0.5580930709838867,-0.400691419839859,-0.12038786709308624,-0.9082692861557007,-0.024754106998443604,-0.8429147601127625,-0.11619049310684204,-0.6664138844449149,0.10791474329105746,0.18498582980737321,0.7141618098414281,0.12068057826348426,-0.4154777026349575,-1.6144731449845802
1773065224495811584,0.7376267910003662,0.5181556344032288,0.4089297652244568,0.5747376084327698,-0.3971683084964752,-0.12424268573522568,-0.9092970490455627,-0.14705166220664978,-0.9569951295852661,-0.29323285818099976,-0.6692988910283498,0.10451846920133183,0.18554613223195715,0.7118199501046706,0.12456456714644043,-0.4118110713094526,-1.606302333207329
1773065224505849600,0.7476646900177002,0.030319271609187126,0.2832513451576233,0.3549574017524719,-0.39449822902679443,-0.12485406547784805,-0.9103749990463257,-0.31364694237709045,-0.5884943008422852,-0.10706579685211182,-0.6714658731068224,0.1027651103703376,0.1850725322625709,0.7101556099225402,0.1251807438137822,-0.40891004255314933,-1.600798877922957
1773065224515887616,0.7577028274536133,-0.3170490562915802,0.0456310510635376,-0.025572357699275017,-0.3931305408477783,-0.12271405756473541,-0.9112571477890015,-0.4194610118865967,-0.1844301074743271,0.00557178258895874,-0.6721520838169771,0.10284760114168327,0.18383086214296723,0.7098169248037904,0.12302414810439351,-0.4072921176944111,-1.5998554064006965
1773065224525925632,0.7677407264709473,-0.5133431553840637,-0.21900127828121185,-0.38621804118156433,-0.3937681019306183,-0.11974483728408813,-0.9113768935203552,-0.4447939097881317,-0.02438966929912567,-0.028488218784332275,-0.6710875645648973,0.10440479692832069,0.18278728735763816,0.710865527170212,0.12003287013281454,-0.4078340003255511,-1.603497732407519
1773065224535963648,0.7777786254882812,-0.8984213471412659,-0.311990350484848,-0.5531383156776428,-0.39577239751815796,-0.1153220385313034,-0.9110790491104126,-0.36609894037246704,-0.03915795683860779,-0.1061939001083374,-0.6687390141636719,0.1072974443354455,0.18151508772853941,0.7129710704152162,0.1155791950881702,-0.4098051864639626,-1.6107544566523349
1773065224546000640,0.7878158092498779,-1.2672221660614014,-0.23752981424331665,-0.6301160454750061,-0.39767545461654663,-0.10763221234083176,-0.9111912846565247,-0.22511202096939087,-0.04448266327381134,-0.07855480909347534,-0.6657623468607627,0.11144613339047658,0.17884104712602264,0.7157906212019758,0.10784111504141443,-0.41151591298572493,-1.6206594367238984
1773065224556038656,0.7978537082672119,-1.1575353145599365,-0.2761608362197876,-0.7113248705863953,-0.3991590440273285,-0.09885881096124649,-0.9115366339683533,-0.12404954433441162,0.04777239263057709,0.03317970037460327,-0.6624108608235503,0.11588347882641134,0.17550702736810606,0.7190132708118098,0.09902055158856164,-0.41274351655518005,-1.6319519592805956
1773065224566076416,0.8078916072845459,-0.7880100011825562,-0.47257617115974426,-0.7919470071792603,-0.40192070603370667,-0.09313762933015823,-0.9109254479408264,-0.06899601221084595,0.14437663555145264,-0.012948453426361084,-0.658806632809843,0.11976894687559482,0.1737604220169082,0.7221057026279125,0.09327281397742844,-0.41553055231347247,-1.6427332624119573
1773065224576114688,0.817929744720459,-0.6816196441650391,-0.6446994543075562,-0.8876911401748657,-0.4062853753566742,-0.08983872085809708,-0.9093191027641296,0.022328466176986694,0.18545028567314148,-0.13656407594680786,-0.6548268320348493,0.12349655079654667,0.17346196747757334,0.7251630805543101,0.08996000815561053,-0.4201910931602839,-1.6534500203752163
1773065224586152448,0.827967643737793,-0.5738587975502014,-0.7556439638137817,-1.006892204284668,-0.4119376540184021,-0.08807795494794846,-0.9069452285766602,0.1573752760887146,0.18172113597393036,-0.09824275970458984,-0.6503436023990955,0.12730461290908093,0.1741290135269538,0.7283721136960596,0.08819223432751824,-0.4263439970347997,-1.664764002963122
1773065224596190720,0.838005781173706,-0.508733332157135,-0.5520029664039612,-0.8714755177497864,-0.41724613308906555,-0.08707928657531738,-0.9046120047569275,0.34121158719062805,0.014722101390361786,-0.09772258996963501,-0.645868380227324,0.13073167760115717,0.17493778541481625,0.7315463508638336,0.08718971143081794,-0.43216433588044395,-1.6758898153013477
1773065224606228480,0.84804368019104,-0.21555374562740326,-0.2687256932258606,-0.4378487169742584,-0.42029955983161926,-0.08645818382501602,-0.9032570123672485,0.5156670212745667,-0.21233941614627838,-0.07629615068435669,-0.6428260294601028,0.13283612081461588,0.1752884713277495,0.7337596508777471,0.08656625950082278,-0.43551710275814925,-1.6835537596063623
1773065224616266752,0.8580818176269531,0.09982231259346008,-0.12781570851802826,-0.091420479118824,-0.42185142636299133,-0.0870819240808487,-0.9024733304977417,0.627722978591919,-0.3525390625,-0.0780564546585083,-0.6417159718857366,0.13348560319032135,0.175911713450666,0.7344639070172543,0.08719235964124836,-0.43726136816054423,-1.6859989280941419
1773065224626304512,0.8681197166442871,0.08773906528949738,-0.0396185964345932,-0.06008879095315933,-0.42255619168281555,-0.08841630816459656,-0.9020137786865234,0.5740301609039307,-0.34055402874946594,-0.10326576232910156,-0.6415154837551474,0.13335327279027376,0.17666360523206903,0.7344826005807117,0.08853191519083314,-0.4380977133035031,-1.6859967175249566
1773065224636342528,0.8781576156616211,-0.19642367959022522,-0.08992118388414383,-0.187122642993927,-0.4229438006877899,-0.08841798454523087,-0.9018319249153137,0.3201758563518524,-0.20650389790534973,-0.11533421277999878,-0.6409982107124166,0.1336258492644777,0.17671494877101268,0.7348723053259011,0.08853359499174628,-0.43852753742053435,-1.6873013131915
1773065224646380544,0.8881957530975342,-0.15683956444263458,-0.3506549000740051,-0.2935083508491516,-0.42463284730911255,-0.08766111731529236,-0.9011117815971375,0.07247528433799744,-0.07661500573158264,-0.13634848594665527,-0.6397588352809356,0.1348281138052936,0.17682046980672889,0.7357068795893074,0.08777377965962326,-0.4403696278770189,-1.6904273690768494
1773065224656418560,0.8982336521148682,0.0003471244126558304,-0.5554828643798828,-0.27044937014579773,-0.4285440444946289,-0.0882948637008667,-0.8991963267326355,-0.0723867416381836,-0.0513993501663208,-0.2625163197517395,-0.6382330498416056,0.13648874765425395,0.17824886902027273,0.7363808902341119,0.08840999089149743,-0.44474127530206375,-1.6933523307128766
1773065224666456576,0.9082717895507812,-0.018819114193320274,-0.6071426272392273,-0.20505090057849884,-0.43365171551704407,-0.08932960033416748,-0.896641731262207,-0.11903688311576843,-0.046610958874225616,-0.30810070037841797,-0.6368250244184911,0.13845418404188842,0.18030408832089703,0.7367325487423376,0.08944883652817741,-0.450474071415709,-1.6955054165330352
1773065224676494592,0.9183096885681152,-0.18754687905311584,-0.5874706506729126,-0.21186353266239166,-0.4388525187969208,-0.08936729282140732,-0.89410400390625,-0.12216737866401672,-0.025882340967655182,-0.1834564208984375,-0.6354495805689022,0.14079045030760173,0.18200562825933872,0.737058961629437,0.08948667863129126,-0.4562842476626317,-1.6978000041601211
1773065224686532608,0.9283478260040283,-0.32865074276924133,-0.5224527716636658,-0.25234466791152954,-0.443631649017334,-0.08801578730344772,-0.891876757144928,-0.11638113856315613,-0.01917719841003418,-0.054915785789489746,-0.6339003676971724,0.1434797462220603,0.18296223916621812,0.7376372183818084,0.08812982435413057,-0.4615763776600895,-1.7010587251057159
1773065224696569600,0.9383847713470459,-0.32724300026893616,-0.4574947953224182,-0.27636316418647766,-0.44778183102607727,-0.08620981872081757,-0.8899771571159363,-0.09289807081222534,0.003736071288585663,0.02901524305343628,-0.6322275382588428,0.1461132606069922,0.18347302582678482,0.7384286283615371,0.08631696134289203,-0.466155319351396,-1.7049481549698566
1773065224706607616,0.9484226703643799,-0.2483416646718979,-0.43462318181991577,-0.27364209294319153,-0.4515324831008911,-0.08486498147249222,-0.8882096409797668,-0.0554254949092865,0.056651487946510315,0.024852097034454346,-0.6305840883549759,0.14843381460354504,0.1840179133852582,0.7392350621548062,0.08496718271445387,-0.47031523667155556,-1.7087314912549223
1773065224716645632,0.958460807800293,-0.11252203583717346,-0.41237378120422363,-0.2996015250682831,-0.4550594389438629,-0.08454614132642746,-0.886438250541687,-0.023273050785064697,0.13131433725357056,0.004663348197937012,-0.6290044747898065,0.15031270474438668,0.1848971356557325,0.739981369509144,0.08464719224092819,-0.47427616178050286,-1.7121030605751604
1773065224726683648,0.968498706817627,-0.009326053783297539,-0.38571128249168396,-0.35157015919685364,-0.4583379626274109,-0.08552169054746628,-0.8846538066864014,-0.009343922138214111,0.16836166381835938,0.008921384811401367,-0.6273683727945064,0.1516820029693125,0.18618720564523375,0.7407669930270853,0.08562628514317087,-0.4780215059984685,-1.7153128120103123
1773065224736721664,0.97853684425354,-0.007942541502416134,-0.3269156217575073,-0.3681371510028839,-0.4611735939979553,-0.08722233027219772,-0.883012592792511,-0.0033802390098571777,0.14360353350639343,0.014848530292510986,-0.625674814241285,0.15265658488123227,0.187589122363749,0.7416450596001,0.08733330529849896,-0.48130678736637617,-1.7185776542845774
1773065224746759680,0.988574743270874,-0.12223871052265167,-0.283525675535202,-0.33754369616508484,-0.4635569155216217,-0.08829805254936218,-0.8816566467285156,0.010752379894256592,0.10015411674976349,0.024524688720703125,-0.6240115096599383,0.15365881285011557,0.1885752869986574,0.7425887889373145,0.0884131934976046,-0.4840578112377536,-1.7220593192243894
1773065224756797440,0.998612642288208,-0.11122547090053558,-0.26538315415382385,-0.27885881066322327,-0.4656882584095001,-0.08864195644855499,-0.8804981708526611,0.020329982042312622,0.09047301113605499,0.014195680618286133,-0.6225107271983434,0.1547669658652987,0.1892038570115872,0.7434577553812602,0.0887584516303256,-0.48649300939376033,-1.7253818729929014
1773065224766835712,1.008650779724121,-0.06406404823064804,-0.2678278088569641,-0.25766125321388245,-0.46780964732170105,-0.08912523835897446,-0.8793240189552307,0.02301594614982605,0.05888234078884125,-0.06830775737762451,-0.6211952035283271,0.15578072130467327,0.1899219416234948,0.7441628723568885,0.08924365676588772,-0.48892690062164623,-1.728160725156783
1773065224776873472,1.018688678741455,-0.038576263934373856,-0.21884800493717194,-0.26981139183044434,-0.46973201632499695,-0.08992933481931686,-0.8782166838645935,0.04128047823905945,0.014352545142173767,-0.139163076877594,-0.6199361301807528,0.15659803269733763,0.19070582207335376,0.7448406302765732,0.09005098994120238,-0.49115315255487524,-1.7307437849738927
1773065224786911744,1.0287268161773682,-0.0554177388548851,-0.18179892003536224,-0.267928808927536,-0.47121310234069824,-0.09081073105335236,-0.8773320913314819,0.07004427909851074,-0.009851500391960144,-0.13112127780914307,-0.618708059064079,0.15720949019999902,0.19136123726693785,0.7455644952675113,0.09093601004984013,-0.4928835249630538,-1.7333422929005393
1773065224796949504,1.0387647151947021,-0.08798526227474213,-0.17899461090564728,-0.2920631766319275,-0.4725361764431,-0.09149526059627533,-0.8765490055084229,0.08380326628684998,0.00444386899471283,-0.12084174156188965,-0.6174474474103738,0.1578334587749498,0.19186997644534107,0.7463465501350238,0.09162339778613157,-0.4944261062683023,-1.7361279808073897
1773065224806987520,1.0488026142120361,-0.12809686362743378,-0.18219132721424103,-0.38529524207115173,-0.4737951457500458,-0.09213148057460785,-0.8758024573326111,0.06595823168754578,0.03910720348358154,-0.12056595087051392,-0.6159176839854295,0.15851884042492642,0.1922772869398286,0.7473597094029234,0.09226231939680492,-0.49589483290448716,-1.7396620729670957
1773065224817025536,1.0588407516479492,-0.07671436667442322,-0.18507766723632812,-0.40258127450942993,-0.47497764229774475,-0.09310977160930634,-0.8750581741333008,0.04416099190711975,0.039826080203056335,-0.12175273895263672,-0.6141475452088792,0.15912532425139153,0.1927434693464023,0.7485665416505027,0.0932448323478578,-0.4972951086831656,-1.7437503762006648
1773065224827062528,1.0688776969909668,-0.055426258593797684,-0.18465888500213623,-0.3762512803077698,-0.47624099254608154,-0.09449976682662964,-0.8742220997810364,0.04362383484840393,0.05264492332935333,-0.12440460920333862,-0.6124718070489066,0.15960762711209614,0.1934279153407085,0.7496594012103424,0.09464098542678519,-0.4988110830931683,-1.7474273216561012
1773065224837100800,1.0789158344268799,-0.06671646982431412,-0.16296051442623138,-0.3850913643836975,-0.47742918133735657,-0.09568814188241959,-0.8734444379806519,0.04203489422798157,0.12272672355175018,-0.038329243659973145,-0.6108294122569768,0.160119919227368,0.19400877326356758,0.7507393927035896,0.09583477352932598,-0.5002330435846725,-1.7510903903095396
1773065224847138560,1.0889537334442139,-0.007071155123412609,-0.14435513317584991,-0.436831533908844,-0.4783710539340973,-0.09733700752258301,-0.8727466464042664,0.01993599534034729,0.17363093793392181,0.07129395008087158,-0.6090919546943971,0.16041064528057006,0.19466667314042255,0.7519178027873886,0.09749136948054046,-0.5013997180144628,-1.7549283713947055
1773065224857176576,1.0989916324615479,-0.014489923603832722,-0.12495985627174377,-0.44493821263313293,-0.47911885380744934,-0.09944755584001541,-0.8720982074737549,0.0048299431800842285,0.15068656206130981,0.05692797899246216,-0.6072728834773532,0.16049762655001712,0.19542620915041742,0.753172433599479,0.09961220764086888,-0.5023719516419544,-1.7588867376948303
1773065224867214592,1.109029769897461,0.018912862986326218,-0.13447293639183044,-0.40333375334739685,-0.479867160320282,-0.10140933096408844,-0.8714606761932373,0.021065890789031982,0.11816347390413284,0.032730817794799805,-0.6055259275026069,0.16061768404727625,0.19614186184194843,0.7543664427212764,0.10158395538904631,-0.5033397681627284,-1.762688537841728
1773065224877252608,1.119067668914795,0.1052195280790329,-0.18138930201530457,-0.3304869830608368,-0.48083022236824036,-0.1037808507680893,-0.8706502318382263,0.035609275102615356,0.05451023578643799,-0.013535559177398682,-0.6040303100186469,0.16062997915796634,0.19716211276424936,0.7552962267447187,0.10396805083683619,-0.5045810159168261,-1.76562062186239
1773065224887290624,1.129105806350708,0.09011673927307129,-0.20587360858917236,-0.21070332825183868,-0.4822295606136322,-0.1059795469045639,-0.8696107864379883,0.029058843851089478,-0.024971365928649902,-0.11792272329330444,-0.6028804878816658,0.1607875850280179,0.1983480515830876,0.7558706519429832,0.10617894394817677,-0.5063182600376566,-1.7675504567658922
1773065224897328640,1.139143705368042,0.2076718509197235,-0.20861533284187317,-0.07139230519533157,-0.48392319679260254,-0.10779698938131332,-0.8684458136558533,0.03238511085510254,-0.07573574036359787,-0.17601823806762695,-0.6022346818849434,0.16105735515556285,0.19959361355956648,0.7560002339360119,0.10800685653262297,-0.5083763464842416,-1.768169614138821
1773065224907366656,1.149181842803955,0.4731476604938507,-0.17939487099647522,0.07865391671657562,-0.4855818450450897,-0.11078766733407974,-0.8671426773071289,0.02681109309196472,-0.13075897097587585,-0.2011251449584961,-0.6023237752195904,0.16074085893626935,0.20147219698383648,0.7554981700303336,0.11101556421150043,-0.510472474234812,-1.76646966856434
1773065224917404672,1.159219741821289,0.7242594957351685,-0.15775536000728607,0.2246505320072174,-0.487226277589798,-0.11521517485380173,-0.8656419515609741,-0.008867502212524414,-0.15485012531280518,-0.14084303379058838,-0.6032190416024517,0.15973487827477525,0.20411709129482977,0.754286212062673,0.11547161435247412,-0.5126550202776327,-1.7621544833042986
1773065224927442432,1.169257640838623,0.9965272545814514,-0.16222666203975677,0.29474663734436035,-0.4888935983181,-0.12143774330615997,-0.8638494610786438,-0.08595076203346252,-0.13727504014968872,0.045612215995788574,-0.6047412466355351,0.1579740745429621,0.20765222702410166,0.752471149852146,0.12173821710734414,-0.5150045988236738,-1.7555422601480606
1773065224937480704,1.1792957782745361,0.9097529649734497,-0.0979989543557167,0.3452486991882324,-0.4905051589012146,-0.12838923931121826,-0.8619285821914673,-0.1513710618019104,-0.18507206439971924,0.19869005680084229,-0.6065760053302244,0.15584607090635738,0.21153653190691665,0.7503531729974459,0.12874460764039586,-0.5173728374350863,-1.747812466730587
1773065224947518464,1.1893336772918701,0.3942148685455322,0.07329849898815155,0.41789788007736206,-0.49117377400398254,-0.1324104219675064,-0.8609389066696167,-0.14659783244132996,-0.2671867609024048,0.3191298246383667,-0.6085160874741649,0.15424752282851842,0.21386501078520276,0.7484501960645312,0.13280041988697935,-0.5184529534182731,-1.74104945882725
1773065224957556736,1.1993718147277832,-0.33164459466934204,0.2732859253883362,0.4728865623474121,-0.4902488589286804,-0.13046523928642273,-0.8617627024650574,-0.08480912446975708,-0.27850085496902466,0.3747479319572449,-0.6104201679006065,0.15397367304047818,0.21309800651924546,0.7471738480577188,0.1308382204013577,-0.5172309129082311,-1.7369261184947364
1773065224967593728,1.2094087600708008,-0.7069162130355835,0.32838204503059387,0.3699398338794708,-0.48809006810188293,-0.12352321296930313,-0.8640081286430359,-0.017082631587982178,-0.12701082229614258,0.32300782203674316,-0.6119240624267501,0.1549711377429821,0.20971380367939302,0.7466946449341259,0.12383950778138547,-0.5142211663243529,-1.7359429070423797
1773065224977631488,1.2194466590881348,-0.27641597390174866,0.2748844623565674,0.26018136739730835,-0.4857345521450043,-0.11729946732521057,-0.8662001490592957,-0.0008376836776733398,0.08781950920820236,0.21654200553894043,-0.6129983374828549,0.15578153366322964,0.20647524403428225,0.7465473936401263,0.11757013799652448,-0.5110703407859087,-1.7358814499778843
1773065224987669760,1.2294847965240479,0.5967779755592346,0.04758607596158981,0.19597521424293518,-0.484537273645401,-0.11760545521974564,-0.8668290376663208,-0.011022418737411499,0.21895432472229004,0.0252000093460083,-0.6141523018891086,0.15488549236026847,0.20638788504403144,0.7458093200866551,0.11787825546616483,-0.5097090084566263,-1.7330708737789888
1773065224997707520,1.2395226955413818,1.1909159421920776,-0.18780726194381714,0.07203782349824905,-0.4853437542915344,-0.12493261694908142,-0.8653515577316284,-0.008476436138153076,0.2564328610897064,-0.09297668933868408,-0.6153122333737485,0.15246253766826728,0.2099509543418721,0.74435657191988,0.12525991494528518,-0.5111451436692249,-1.7272782143003738
1773065225007745792,1.249560832977295,1.300304889678955,-0.3410579264163971,-0.06786854565143585,-0.48766401410102844,-0.13600192964076996,-0.8623730540275574,-0.04987260699272156,0.20016512274742126,-0.011909782886505127,-0.6159747110712771,0.14952230933828087,0.21553780247317236,0.7428067074003945,0.13642471726183816,-0.5146584846024752,-1.7209880357947585
1773065225017783552,1.259598731994629,1.1549898386001587,-0.3088459372520447,-0.1386447250843048,-0.49045467376708984,-0.14717452228069305,-0.8589493036270142,-0.09021854400634766,0.043719932436943054,0.08915865421295166,-0.6161117375496921,0.14686555177460528,0.2212597219889637,0.7415396268893685,0.14771107768383562,-0.5188182645267592,-1.715777960405735
1773065225027821568,1.269636631011963,0.9141790270805359,-0.15772965550422668,-0.10960640758275986,-0.49227264523506165,-0.15681253373622894,-0.8561994433403015,-0.036490172147750854,-0.13809406757354736,0.10832041501998901,-0.6161242417692699,0.1443604992287933,0.22596533005055194,0.7406015488949657,0.15746243261904755,-0.521797396701008,-1.7116598780458578
1773065225037859584,1.279674768447876,0.5765841603279114,-0.01569449156522751,-0.040393516421318054,-0.4928972125053406,-0.16358594596385956,-0.8545712232589722,0.042610347270965576,-0.21832628548145294,0.09498870372772217,-0.6162798711979899,0.14229209390775469,0.22905752501531232,0.739922111684501,0.16432448036880354,-0.5231688859064022,-1.7085448130843206
1773065225047897600,1.28971266746521,0.45719829201698303,0.007957842200994492,-0.010416707023978233,-0.4927575886249542,-0.16792555153369904,-0.8538097143173218,0.07047057151794434,-0.11657458543777466,0.08980214595794678,-0.6165653047137369,0.14069465870496314,0.2308682750846991,0.7394269258404693,0.16872495566214576,-0.523432134256725,-1.7062214180606725
1773065225057935616,1.299750804901123,0.5129500031471252,-0.1366957575082779,-0.12799526751041412,-0.4931495785713196,-0.1723523736000061,-0.8527005314826965,0.028672069311141968,0.017109468579292297,-0.021979033946990967,-0.6166094864149768,0.1393483628622997,0.23287717899778218,0.7390149126762038,0.17321728114280732,-0.5243396842765692,-1.704306621175385
1773065225067973632,1.309788703918457,0.6459144949913025,-0.32066360116004944,-0.25554829835891724,-0.4947889745235443,-0.1782364547252655,-0.850538432598114,-0.02561202645301819,0.0698380172252655,-0.10048085451126099,-0.616010173901107,0.13820103788681679,0.23586280059196474,0.7387831846333119,0.1791939124059297,-0.5268819626474711,-1.7030943980833306
1773065225078011648,1.3198268413543701,0.7871956825256348,-0.38385772705078125,-0.3034819960594177,-0.4973412752151489,-0.18592697381973267,-0.8473976254463196,-0.033664584159851074,0.025740206241607666,-0.13711464405059814,-0.6150208827005645,0.13692761252258648,0.23989998527774817,0.7385445411149485,0.1870151949397418,-0.5307346182261556,-1.701844000925945
1773065225088049664,1.329864740371704,0.6035557985305786,-0.20318982005119324,-0.21643324196338654,-0.49939197301864624,-0.19335047900676727,-0.8445254564285278,0.03456348180770874,-0.07804234325885773,-0.12286651134490967,-0.614146130512286,0.13551223452088934,0.24366721539613692,0.738300203079364,0.1945759255344527,-0.5340190078414687,-1.7005019463255937
1773065225098087424,1.339902639389038,0.29253849387168884,-0.013333331793546677,-0.08671067655086517,-0.49995002150535583,-0.19785799086093903,-0.8431501984596252,0.09005317091941833,-0.10772977769374847,0.023295462131500244,-0.6137681969014573,0.13433445912002215,0.24572171443337976,0.7381489102061147,0.19917223083873395,-0.5352231607041386,-1.6995080453292004
1773065225108125696,1.3499407768249512,0.18656009435653687,-0.0021535148844122887,-0.05224497988820076,-0.4998476207256317,-0.20007942616939545,-0.8426865339279175,0.058761775493621826,-0.06421805918216705,0.16768348217010498,-0.6136847872798045,0.13357258770118563,0.24660714852881405,0.7380612449181893,0.20143898728149587,-0.5353746046581667,-1.698881154844232
1773065225118162688,1.3599777221679688,0.26681551337242126,-0.04925178736448288,-0.10291720926761627,-0.49989962577819824,-0.20230840146541595,-0.8421233296394348,-0.011559754610061646,-0.013237252831459045,0.08879691362380981,-0.6135358925524628,0.1328898668664552,0.24754519922200044,0.7379941310284449,0.20371449291816165,-0.5357136863668353,-1.6983628332814782
1773065225128200448,1.3700156211853027,0.290748655796051,-0.10609189420938492,-0.22827459871768951,-0.5002210736274719,-0.20560388267040253,-0.841133713722229,-0.053550899028778076,0.03327111899852753,-0.083945631980896,-0.6130283272521789,0.13207217702379545,0.2489780909856338,0.7380807005897951,0.20708072673607283,-0.5365123471097281,-1.698269697202204
1773065225138238720,1.3800537586212158,0.29061734676361084,-0.07469482719898224,-0.28220176696777344,-0.500480055809021,-0.2093711644411087,-0.8400496244430542,-0.06331688165664673,0.0478874146938324,-0.019920408725738525,-0.6121077925915758,0.13121141109113216,0.2505169445873669,0.7384774225583353,0.21093182276220893,-0.5373066482038777,-1.6991150794248315
1773065225148276480,1.3900916576385498,0.22714444994926453,-0.005786066874861717,-0.21392789483070374,-0.5003632307052612,-0.21294310688972473,-0.8392209410667419,-0.01582634449005127,0.029273077845573425,0.009295463562011719,-0.6112993545125889,0.13023427745673952,0.251850253253133,0.7388663766752643,0.2145861707979733,-0.5376380265366117,-1.6998757325752978
1773065225158314752,1.400129795074463,0.02763134241104126,0.1486210823059082,-0.14553391933441162,-0.4993239641189575,-0.21488827466964722,-0.8393441438674927,0.05419456958770752,0.004881560802459717,0.005710721015930176,-0.610821700441847,0.12933592003743438,0.2521907048469537,0.7393029214357122,0.2165774324502734,-0.5366594164836148,-1.7007834018811328
1773065225168352512,1.4101676940917969,-0.028391312807798386,0.1817227005958557,-0.09364635497331619,-0.4976462721824646,-0.21536022424697876,-0.8402191400527954,0.0585440993309021,0.016019389033317566,0.08039247989654541,-0.610572891313023,0.12860844662671445,0.25169484603698394,0.7398043495812138,0.21706069219590834,-0.5347248210393648,-1.7019416807885868
1773065225178390784,1.42020583152771,0.10023989528417587,0.08470508456230164,-0.09154112637042999,-0.4962552487850189,-0.2160828411579132,-0.8408560752868652,0.03296786546707153,0.04335334897041321,-0.006830692291259766,-0.6104600223096841,0.12786159636593122,0.25144258748142273,0.7401125527156622,0.21780073979318906,-0.5331665641325033,-1.70250993331861
1773065225188428544,1.430243730545044,0.104457326233387,0.07475510984659195,-0.15265440940856934,-0.4954223036766052,-0.21761372685432434,-0.840952455997467,0.006500154733657837,0.05141499638557434,-0.12807220220565796,-0.6101446080150674,0.12712842252398304,0.2517183553167437,0.7404052332785419,0.2193689423531772,-0.5323814196315625,-1.7030653344526878
1773065225198466560,1.440281629562378,0.08755690604448318,0.07756554335355759,-0.14582206308841705,-0.4944283068180084,-0.21919293701648712,-0.8411272764205933,0.01516503095626831,0.046509236097335815,-0.07365238666534424,-0.6097458444764013,0.1263447858718556,0.25193921047101314,0.7407925108370921,0.22098722228800968,-0.5314127290217588,-1.7038890829063218
1773065225208504576,1.450319766998291,0.08328395336866379,0.07345469295978546,-0.11111868172883987,-0.493496835231781,-0.22051522135734558,-0.8413286805152893,0.051663339138031006,0.022044137120246887,-0.022349298000335693,-0.6094044355254717,0.12565273744430694,0.2520853804637856,0.7411415367075385,0.22234266345241754,-0.5304847729661433,-1.7046392348620012
1773065225218542592,1.460357666015625,0.10307816416025162,0.056873586028814316,-0.07100695371627808,-0.4927440881729126,-0.22180959582328796,-0.841429591178894,0.07389035820960999,-0.026130467653274536,-0.05699265003204346,-0.6092267607302752,0.12498411481018132,0.2523176030199091,0.7413215168149293,0.22366991030303088,-0.5297665623855118,-1.704885168995215
1773065225228580608,1.470395803451538,-0.0947609692811966,0.159152552485466,-0.0844670981168747,-0.49172496795654297,-0.22223609685897827,-0.841913104057312,0.08532238006591797,-0.06667383015155792,-0.1702481508255005,-0.6090595589347946,0.1245004360378358,0.2520775356685516,0.7416219232136312,0.2241073180846479,-0.5286139707572284,-1.7055709608067058
1773065225238618624,1.480433702468872,-0.10008915513753891,0.1293424516916275,-0.09299160540103912,-0.49030154943466187,-0.22170788049697876,-0.842881977558136,0.07570499181747437,-0.031053975224494934,-0.08515757322311401,-0.6088361903639913,0.12419925421308171,0.25126392632403927,0.7421317534515433,0.2235655861130285,-0.526852378485514,-1.7069650716415508
1773065225248655616,1.4904706478118896,-0.11397146433591843,0.026439379900693893,-0.08730509877204895,-0.4894598424434662,-0.22133800387382507,-0.843468189239502,0.050296634435653687,0.034906089305877686,-0.029304027557373047,-0.6085331348229531,0.12409785047644516,0.2507301910525436,0.7425777164157791,0.22318628502049526,-0.5258040482152544,-1.7082718685101619
1773065225258693632,1.5005087852478027,-0.1059604063630104,-0.04252983257174492,-0.03619557246565819,-0.48930880427360535,-0.22064171731472015,-0.8437381982803345,0.03925082087516785,0.06443747878074646,-0.029156088829040527,-0.6082291392959617,0.12437522775632677,0.2503231800549692,0.7429176109474881,0.22247235882786798,-0.5255311418713653,-1.709437453867765
1773065225268731648,1.5105466842651367,-0.11116919666528702,-0.09183985739946365,-0.027935514226555824,-0.48983022570610046,-0.21985003352165222,-0.8436422944068909,0.045082271099090576,0.03828570246696472,-0.09097379446029663,-0.6079698855590332,0.12493169869620491,0.25014179814246795,0.7430974427454698,0.22166074677348097,-0.5260428310119206,-1.7102523072977913
1773065225278769664,1.5205848217010498,0.012455275282263756,-0.07084323465824127,0.02300330065190792,-0.49052032828330994,-0.21938569843769073,-0.8433621525764465,0.053279727697372437,-0.04482024908065796,-0.14845913648605347,-0.6078076568532945,0.12541157862220664,0.25018163331598436,0.7431359417540983,0.2211847784142543,-0.5267987158330456,-1.710604396198277
1773065225288807680,1.5306227207183838,0.006279048975557089,-0.015325908549129963,0.09958143532276154,-0.4911280572414398,-0.21930758655071259,-0.843028724193573,0.06543838977813721,-0.11801843345165253,-0.2121317982673645,-0.6079908158514501,0.12561343316336238,0.25041348656595463,0.7428737685189436,0.22110473061565764,-0.5275089923270081,-1.7099003254694956
1773065225298846208,1.540661334991455,0.1731599122285843,-0.06862960755825043,0.31328094005584717,-0.49112045764923096,-0.21913181245326996,-0.8430788516998291,0.06303516030311584,-0.10498014092445374,-0.1532895565032959,-0.6088631533538551,0.12537526857291517,0.25048275860882024,0.742175974846068,0.22092456300089894,-0.5274764024184702,-1.707626401885825
1773065225308884224,1.550699234008789,0.003603815333917737,-0.28911644220352173,0.3022994101047516,-0.4928129017353058,-0.2186320573091507,-0.8422205448150635,-0.044845789670944214,-0.018382713198661804,-0.18194937705993652,-0.6100194150557405,0.12581184582320745,0.25111969881967217,0.7409362930987811,0.22041239561670578,-0.5294178074445351,-1.7040344674865846
1773065225318922240,1.5607373714447021,-0.21707770228385925,-0.2980276644229889,0.040546875447034836,-0.4961591958999634,-0.21647782623767853,-0.8408111929893494,-0.3050493001937866,0.03688187897205353,-0.00563967227935791,-0.610091705751694,0.12781617752033989,0.25151032355063857,0.7404010257969236,0.21820529402123162,-0.5331052108887905,-1.7033804283539358
1773065225328960256,1.5707752704620361,-0.0765027403831482,-0.3352532982826233,0.042652904987335205,-0.49963805079460144,-0.2150028944015503,-0.8391278386116028,-0.36686280369758606,0.027075663208961487,-0.016447722911834717,-0.6095573979757586,0.12985057661244875,0.25214063886899185,0.7402726893101277,0.2166947976772837,-0.5370490498251036,-1.7040263694885784
1773065225338998272,1.5808134078979492,-0.047087326645851135,-0.33462798595428467,0.2606810927391052,-0.5028272271156311,-0.21377840638160706,-0.8375341892242432,-0.10181748867034912,-0.07792384922504425,-0.24896782636642456,-0.609683837740459,0.13146363268273104,0.25288379196037786,0.7396300613340239,0.21544115435924535,-0.5406887255986346,-1.702895807664403
1773065225349036288,1.5908513069152832,0.17631255090236664,-0.46156781911849976,0.40988388657569885,-0.5052974820137024,-0.21304455399513245,-0.8362334966659546,-0.020245730876922607,-0.06757983565330505,-0.11686098575592041,-0.6107242404408801,0.13231722525762965,0.2537230821381699,0.7383309959294849,0.21469000275652333,-0.5435416191546749,-1.6993750573073594
1773065225359074048,1.6008892059326172,-0.6026692390441895,-0.6498397588729858,0.06401145458221436,-0.5106212496757507,-0.21015340089797974,-0.8337274789810181,-0.19166451692581177,0.03139667212963104,-0.021024107933044434,-0.610874414681126,0.13531624550324867,0.2546090653463708,0.7373576051006349,0.21173185773508138,-0.549527893092328,-1.6979850854715755
1773065225369112320,1.6109273433685303,-0.523080050945282,-0.6038579940795898,-0.18992933630943298,-0.5156198143959045,-0.20526105165481567,-0.8318678140640259,-0.39520782232284546,0.15890485048294067,0.3475233316421509,-0.6092082003253617,0.13949421997781622,0.25417994063646454,0.7381052470292353,0.20673042954072396,-0.5548756967515736,-1.7024886179969563
1773065225379150080,1.6209652423858643,-0.23448441922664642,-0.48402586579322815,0.10889916867017746,-0.5208322405815125,-0.2026224136352539,-0.82926344871521,-0.05298972129821777,0.0375986248254776,-0.09663981199264526,-0.6078957573452212,0.14287708163666551,0.25486154057906624,0.7383051024299191,0.20403513962608155,-0.5608010981920176,-1.70499055809494
1773065225389187328,1.631002426147461,-0.11084762215614319,-0.42343205213546753,0.40745922923088074,-0.5254438519477844,-0.19963055849075317,-0.8270770311355591,0.4713819622993469,-0.20932024717330933,-0.3701428174972534,-0.6081953999220578,0.14559017455579829,0.25547014903245935,0.7373172678973055,0.20098087283285634,-0.5659733575488493,-1.7035157774593976
1773065225399225344,1.641040325164795,-0.11652121692895889,-0.6075019836425781,0.3518867790699005,-0.5302696228027344,-0.19682465493679047,-0.8246660828590393,0.4074058532714844,-0.21122588217258453,-0.1798962950706482,-0.6089938835446795,0.14815214822276437,0.2563550059696549,0.7358392679156027,0.19811816409634944,-0.5714465289407857,-1.7005069314092545
1773065225409263104,1.651078224182129,-0.15051212906837463,-0.790859580039978,0.22631500661373138,-0.5360783338546753,-0.19431720674037933,-0.8214991092681885,0.13260549306869507,-0.09686625003814697,-0.08482712507247925,-0.6091293960017186,0.1512302423313976,0.25764286626316985,0.7346502314795872,0.19556134472752373,-0.5781735130503377,-1.6987403282172957
1773065225419301376,1.661116361618042,-0.19745300710201263,-0.8281366229057312,0.21174192428588867,-0.5430033206939697,-0.19174093008041382,-0.8175468444824219,-0.04879355430603027,-0.02072247862815857,-0.004077911376953125,-0.6087227980191903,0.15496314465538824,0.25925470720423677,0.7336416949671681,0.19293568042629278,-0.5862834078328912,-1.6979797899013185
1773065225429339136,1.671154260635376,-0.20011703670024872,-0.7860845327377319,0.2492397576570511,-0.550355851650238,-0.18872371315956116,-0.8133214712142944,0.016313493251800537,-0.07223209738731384,-0.07380926609039307,-0.6082638265067446,0.15903786607753762,0.2608567050238396,0.7325816702805712,0.18986234905925653,-0.5949007789924842,-1.697339558783232
1773065225439377408,1.681192398071289,-0.1849261075258255,-0.7705284953117371,0.3177250921726227,-0.5574579834938049,-0.18553417921066284,-0.8092080354690552,0.14060312509536743,-0.17028550803661346,-0.11797702312469482,-0.6080790164971762,0.16298094454717904,0.2623608057202435,0.7313301997355403,0.1866154487598819,-0.6032328265526662,-1.696107317679017
1773065225449415168,1.691230297088623,-0.21958212554454803,-0.8194706439971924,0.32285499572753906,-0.5644840002059937,-0.18210671842098236,-0.8051055669784546,0.17805516719818115,-0.19342735409736633,-0.12046205997467041,-0.6080753401436919,0.166914875562731,0.26379280047379744,0.7299296247693826,0.18312857423761447,-0.6114842455701898,-1.6944902043720962
1773065225459453184,1.701268196105957,-0.1973455250263214,-0.9522720575332642,0.26509448885917664,-0.5718973278999329,-0.1788385510444641,-0.8005936741828918,0.12100011110305786,-0.11205501854419708,-0.08685749769210815,-0.6078765617140722,0.17102312970677908,0.265432176012668,0.7285485636616003,0.17980585025191345,-0.6202864282223933,-1.6931324121413198
1773065225469491200,1.7113063335418701,-0.14901305735111237,-0.9960551857948303,0.2109130173921585,-0.5799016952514648,-0.17613829672336578,-0.7954177260398865,0.06586360931396484,-0.056893929839134216,-0.09212499856948853,-0.6072997833745181,0.17531634246250807,0.26749825533074056,0.7272523042687393,0.17706201972598654,-0.6299597059680114,-1.6922524240530232
1773065225479529216,1.721344232559204,-0.04826674982905388,-1.0010148286819458,0.21379242837429047,-0.5882996916770935,-0.17409417033195496,-0.7896801233291626,0.091946542263031,-0.08823494613170624,-0.1117175817489624,-0.606586524567845,0.1796009201257822,0.2700063658335828,0.7258739353426774,0.17498581656763793,-0.6402836428189151,-1.6912206448921514
1773065225489567232,1.7313823699951172,-0.08585664629936218,-0.9382385015487671,0.23781973123550415,-0.5965308547019958,-0.17227931320667267,-0.7838819026947021,0.18599313497543335,-0.16118627786636353,-0.15181756019592285,-0.6059729653676414,0.18371345035647357,0.2725957086640201,0.724387920443649,0.17314310882788347,-0.6505013894652353,-1.6898297580396695
1773065225499605248,1.7414202690124512,-0.09737668186426163,-0.9453811049461365,0.26762983202934265,-0.6043166518211365,-0.1700170785188675,-0.7783929705619812,0.24745941162109375,-0.1733362078666687,-0.1237829327583313,-0.6055209104810176,0.18775009876444348,0.27486982932574344,0.722869983796748,0.17084699804153572,-0.6601620034448163,-1.6883567499379355
1773065225509643264,1.7514584064483643,-0.04865232855081558,-0.9994645118713379,0.2414982169866562,-0.6121647357940674,-0.1680177003145218,-0.7726736068725586,0.21154522895812988,-0.1081358939409256,-0.051133155822753906,-0.6050747994133007,0.1917267305302131,0.27731582481466976,0.7212637809453609,0.16881843077257458,-0.6700086281599175,-1.6866599636966968
1773065225519681280,1.7614963054656982,-0.10727117210626602,-0.9909681677818298,0.2207402139902115,-0.6201043725013733,-0.1661462038755417,-0.7667242288589478,0.1359582543373108,-0.0750800222158432,-0.042800307273864746,-0.60446550461908,0.19576692299976425,0.2798449511686889,0.7197108642991832,0.1669202527467783,-0.6800663404135662,-1.685250168245798
1773065225529718272,1.7715332508087158,-0.14136455953121185,-0.9647167325019836,0.24542970955371857,-0.627932071685791,-0.16366097331047058,-0.7608655691146851,0.11676263809204102,-0.04967217147350311,-0.02775442600250244,-0.603767387206187,0.20001838553436518,0.28206357531132653,0.7182602852717586,0.1644005287633206,-0.6899705071029077,-1.6843789451146272
1773065225539756288,1.781571388244629,-0.09948582202196121,-0.9561882019042969,0.2684846818447113,-0.6357688307762146,-0.1611136645078659,-0.7548776865005493,0.1622123122215271,-0.04274372756481171,-0.026738464832305908,-0.6031664484880457,0.20426718434759855,0.2843168402606287,0.716679124229681,0.1618189548427957,-0.6999566738156345,-1.6832064798431514
1773065225549794304,1.791609287261963,-0.13031461834907532,-0.9196649193763733,0.3093140125274658,-0.6433902978897095,-0.15845470130443573,-0.748960018157959,0.22688639163970947,-0.08426684141159058,-0.08040094375610352,-0.6027332317813504,0.20841161224261165,0.28650410576218216,0.714977390854011,0.1591253899014957,-0.7097217208788386,-1.6816775076946144
1773065225559832320,1.801647424697876,-0.14676256477832794,-0.8751249313354492,0.34844595193862915,-0.6505120992660522,-0.155307337641716,-0.7434471249580383,0.261321485042572,-0.11161467432975769,-0.0801459550857544,-0.6024937396703246,0.2124559707309639,0.2883381531566905,0.7132495616471036,0.15593855877241022,-0.7188268555658912,-1.6800617279412227
1773065225569870336,1.81168532371521,-0.07252588868141174,-0.8729520440101624,0.32499897480010986,-0.6574188470840454,-0.1522718071937561,-0.7379794716835022,0.2567840814590454,-0.0939134806394577,-0.0620235800743103,-0.6023443796995889,0.21634612776875145,0.2901803053212897,0.7114568995472008,0.1528664852989705,-0.727729098378174,-1.6782060126939304
1773065225579908096,1.821723222732544,-0.03549382835626602,-0.8793689608573914,0.28661829233169556,-0.6643485426902771,-0.14988450706005096,-0.7322401404380798,0.2248649001121521,-0.06685131788253784,-0.056425631046295166,-0.6020914113909864,0.22006885700594198,0.29231767595986097,0.7096520004861754,0.15045146180905844,-0.7368239394464429,-1.676253304896596
1773065225589946368,1.831761360168457,-0.034052882343530655,-0.8618721961975098,0.2706398665904999,-0.6711176633834839,-0.14776235818862915,-0.7264760136604309,0.2006586790084839,-0.04260629415512085,-0.03145855665206909,-0.6017354934581984,0.2236837165376525,0.2944954928532443,0.7079212223466667,0.14830540830650088,-0.7458091221366364,-1.674492020143899
1773065225599984128,1.841799259185791,-0.11034365743398666,-0.8753789663314819,0.26645123958587646,-0.677915632724762,-0.14548325538635254,-0.720600426197052,0.18882566690444946,-0.04422925412654877,0.037617027759552,-0.6013138060376151,0.22740003299480305,0.296629408714646,0.7062024107266045,0.14600140007741974,-0.7548861289349621,-1.672923688878315
1773065225610022400,1.851837396621704,-0.2183900624513626,-0.8531325459480286,0.24242952466011047,-0.6844707727432251,-0.1425708532333374,-0.7149638533592224,0.16870850324630737,-0.0635143369436264,0.03362840414047241,-0.6007483134693218,0.23130999654415574,0.29835174728878133,0.7046867283222438,0.143058318013459,-0.7636120590194178,-1.6721792072775186
1773065225620060160,1.861875295639038,-0.21710827946662903,-0.824868381023407,0.20427201688289642,-0.6907126307487488,-0.13946861028671265,-0.7095524072647095,0.16106480360031128,-0.07505470514297485,0.007358193397521973,-0.6000176122661622,0.23524024646232186,0.29980965118622926,0.7033882884470503,0.1399247624593921,-0.771944530376477,-1.6721446851414925
1773065225630098176,1.871913194656372,-0.1592492312192917,-0.788852334022522,0.2015252411365509,-0.6967049837112427,-0.13674472272396088,-0.7042039036750793,0.19398891925811768,-0.09924772381782532,-0.017567336559295654,-0.5992924551383266,0.23894411864786666,0.3013366133398479,0.7021044101156488,0.13717450933514014,-0.7800452962634298,-1.6720079421376606
1773065225640136192,1.8819513320922852,-0.18083682656288147,-0.776298463344574,0.1430259644985199,-0.7024719715118408,-0.1342945396900177,-0.6989264488220215,0.21879887580871582,-0.0993785709142685,-0.06671380996704102,-0.5985072894378327,0.2424955228948971,0.3028740627090223,0.7008939837148319,0.13470151974541342,-0.7879281506784125,-1.6719970434285598
1773065225650174208,1.8919892311096191,-0.17336799204349518,-0.8346869349479675,0.06308533996343613,-0.7082406282424927,-0.1323457807302475,-0.693454921245575,0.17828762531280518,-0.06295144557952881,-0.018291234970092773,-0.5974128170659617,0.24601483148558298,0.30454757987531256,0.699875219260034,0.13273520709469044,-0.795946193136883,-1.672562773290443
1773065225660211200,1.9020264148712158,-0.15790779888629913,-0.8884772062301636,0.019044112414121628,-0.7142634987831116,-0.13096369802951813,-0.6875144839286804,0.11398273706436157,-0.060427308082580566,0.01869124174118042,-0.5960308289363762,0.2495756289926051,0.3065204193388601,0.6989309952594831,0.13134099524788656,-0.8044780768132029,-1.6734440836207698
1773065225670249216,1.9120643138885498,-0.2104881852865219,-0.8646725416183472,0.046058155596256256,-0.7203004360198975,-0.12956243753433228,-0.6814549565315247,0.10450148582458496,-0.09730525314807892,0.008542358875274658,-0.5945547326507892,0.2532046877815334,0.3084799814638405,0.6980202308578166,0.1299276924332554,-0.8131030972976019,-1.6745449529643515
1773065225680287232,1.9221022129058838,-0.27587705850601196,-0.8073948621749878,0.08227714151144028,-0.7260645627975464,-0.12737709283828735,-0.6757258176803589,0.1398066282272339,-0.11258263885974884,-0.008844494819641113,-0.5931755684266388,0.2569706968853504,0.3100050699185978,0.6971411394263275,0.12772408370152694,-0.8212930445379403,-1.6759240200928922
1773065225690325248,1.9321403503417969,-0.29118651151657104,-0.7900494337081909,0.0834348201751709,-0.7315739393234253,-0.12480732798576355,-0.6702408194541931,0.1523350477218628,-0.08295636624097824,-0.03073263168334961,-0.5918358256814467,0.26076386810492164,0.3112583827089969,0.6963123741830833,0.12513363894544496,-0.8291229124710218,-1.6775292392152423
1773065225700363264,1.9421782493591309,-0.2079084813594818,-0.837786078453064,0.0892769917845726,-0.7371290326118469,-0.12251680344343185,-0.6645527482032776,0.1245497465133667,-0.05411894619464874,-0.030942797660827637,-0.5905276376954669,0.26447664138764115,0.3126910927296089,0.6953801145527906,0.12282539595239127,-0.8371299687237965,-1.6788213272871302
1773065225710401280,1.952216386795044,-0.24396508932113647,-0.825676679611206,0.08963972330093384,-0.7427634596824646,-0.12043197453022003,-0.6586338877677917,0.0931815505027771,-0.050130777060985565,-0.06252700090408325,-0.5892504292475456,0.26814957572765186,0.3142910446766039,0.6943348908610905,0.12072500925049857,-0.8453588460428285,-1.679814314571184
1773065225720439296,1.962254285812378,-0.2645105719566345,-0.8085800409317017,0.10660165548324585,-0.7481503486633301,-0.11797506362199783,-0.6529570817947388,0.08147859573364258,-0.049581706523895264,-0.06786811351776123,-0.5879661069872413,0.271868156056065,0.31560917946207995,0.6933790481964865,0.11825045568332937,-0.8532353557223757,-1.6811630108335442
1773065225730477312,1.972292423248291,-0.2560543417930603,-0.8382174968719482,0.10663069039583206,-0.7536581158638,-0.11551018059253693,-0.6470369696617126,0.07899075746536255,-0.05016973614692688,-0.029842913150787354,-0.5866714806904136,0.2756594699137832,0.31700690233386253,0.6923402583187201,0.1157686049162444,-0.8613718264636091,-1.682419965318841
1773065225740515328,1.982330322265625,-0.27994075417518616,-0.8331518769264221,0.10055761784315109,-0.7591951489448547,-0.11300186067819595,-0.6409783959388733,0.06328761577606201,-0.07471174746751785,-0.06095641851425171,-0.5853132721008741,0.27952296193343706,0.31839869531703086,0.6913012980093166,0.11324375103021728,-0.8696284837901028,-1.683820364441436
1773065225750553088,1.992368221282959,-0.2713143825531006,-0.8278824090957642,0.11248099058866501,-0.7646375298500061,-0.11044726520776749,-0.6349258422851562,0.0650678277015686,-0.09014476090669632,-0.05762481689453125,-0.5839530655355564,0.2833793854545884,0.3197392706334868,0.6902620837565282,0.11067306071267298,-0.8778142782170444,-1.6852763207676098
1773065225760591360,2.002406358718872,-0.27453336119651794,-0.8130273222923279,0.13153484463691711,-0.7699748873710632,-0.10779111087322235,-0.6289035677909851,0.08346676826477051,-0.10355836153030396,-0.08821374177932739,-0.5826640441956953,0.2872098162777846,0.32102765016784096,0.6891692612066612,0.10800094591719951,-0.8859044110422013,-1.6866159108286245
1773065225770629120,2.012444257736206,-0.2675115764141083,-0.836919903755188,0.14799398183822632,-0.7752503752708435,-0.10501475632190704,-0.6228633522987366,0.08642292022705078,-0.09547044336795807,-0.09198039770126343,-0.5814465944363008,0.2910386826782203,0.32228065638286485,0.6880053951783747,0.10520874201066488,-0.8939643289092284,-1.6878187029768894
1773065225780667392,2.022482395172119,-0.29432642459869385,-0.8278646469116211,0.16680733859539032,-0.7805453538894653,-0.10209433734416962,-0.6167054176330566,0.06484717130661011,-0.07721167802810669,-0.08616012334823608,-0.5802214337438095,0.29494682533133576,0.3235021695572692,0.6868010765880661,0.10227253320699514,-0.9021239274231334,-1.6890671289644712
1773065225790705152,2.032520294189453,-0.32958510518074036,-0.81006920337677,0.18343359231948853,-0.7857723236083984,-0.09874772280454636,-0.6105823516845703,0.03432273864746094,-0.059592731297016144,-0.07513236999511719,-0.5790196996505399,0.29898325132801373,0.3245271166318499,0.6855854066688056,0.0989089173864951,-0.9102083901958546,-1.6905023468141587
1773065225800742144,2.0425572395324707,-0.2588866949081421,-0.8659423589706421,0.1650223582983017,-0.7910391092300415,-0.0955546572804451,-0.6042568683624268,0.01871556043624878,-0.029872581362724304,-0.07529324293136597,-0.577808274382201,0.3030035595373234,0.32566915215670816,0.6842996642027848,0.09570066928817723,-0.9184726976613905,-1.691798092305176
1773065225810780160,2.052595376968384,-0.21529817581176758,-0.8899572491645813,0.1532507836818695,-0.79646235704422,-0.09294810146093369,-0.5975018739700317,0.00894099473953247,-0.039406634867191315,-0.09683406352996826,-0.5765436205899162,0.3069249260662107,0.3271790859095205,0.6828971344534397,0.09308246239984624,-0.9271705823785958,-1.692727569420786
1773065225820818176,2.0626332759857178,-0.25819796323776245,-0.8856897950172424,0.17398935556411743,-0.8019067049026489,-0.0902467742562294,-0.5905939340591431,0.019756436347961426,-0.06755964457988739,-0.09608209133148193,-0.5752909273338338,0.31090243248886507,0.32869849035513693,0.6814230752475667,0.09036972820261113,-0.9359996997175021,-1.6936000555877533
1773065225830856448,2.072671413421631,-0.3287181258201599,-0.9044840335845947,0.17387670278549194,-0.8073028326034546,-0.08711820095777512,-0.5836716890335083,0.03063046932220459,-0.06548495590686798,-0.0740889310836792,-0.5739490416190646,0.3150750268559807,0.3299877131095657,0.6800135273210051,0.08722877462409412,-0.9448070452901719,-1.6949673878135938
1773065225840894208,2.082709312438965,-0.3231726288795471,-0.9126961827278137,0.1727515161037445,-0.8127297759056091,-0.08379682898521423,-0.5765835046768188,0.01094144582748413,-0.04959552735090256,-0.07127416133880615,-0.572505488127419,0.3194014068564757,0.3311963206197074,0.6786231008570582,0.08389521164019291,-0.9537624645251226,-1.6966630537998835
1773065225850932224,2.092747211456299,-0.28869932889938354,-0.9149619340896606,0.1477966457605362,-0.8180955052375793,-0.08074363321065903,-0.569385826587677,0.008540451526641846,-0.06290261447429657,-0.09756052494049072,-0.5710417292285371,0.3236354904874293,0.33251638643604864,0.6772032770750115,0.08083162644252191,-0.9627670720443873,-1.698244492437578
1773065225860970240,2.102785348892212,-0.31836986541748047,-0.9038901329040527,0.15163585543632507,-0.8233627676963806,-0.07783761620521545,-0.5621522068977356,0.030271947383880615,-0.08681999146938324,-0.1288725733757019,-0.5695154885585678,0.32782501986127416,0.3338482461916172,0.6758167392245849,0.07791642769573043,-0.9717405406032379,-1.6999407512738014
1773065225871008256,2.112823247909546,-0.30466678738594055,-0.9289245009422302,0.17683321237564087,-0.8285905122756958,-0.07473763823509216,-0.554844081401825,0.0483933687210083,-0.06921376287937164,-0.08332419395446777,-0.5680461158682514,0.332061718488593,0.3351312653240409,0.6743482736346648,0.074807394258703,-0.9807491308338129,-1.7015544454202123
1773065225881046272,2.122861385345459,-0.35301220417022705,-0.9541283845901489,0.17071352899074554,-0.8339272737503052,-0.07144837081432343,-0.5472298264503479,0.02969759702682495,-0.04152771085500717,-0.0649375319480896,-0.5665151892788891,0.3364718972694422,0.3364101111025696,0.6728115972480725,0.07150929638999125,-0.990069283501941,-1.7032989220282815
1773065225891084288,2.132899284362793,-0.3741678297519684,-0.9891015291213989,0.1635994166135788,-0.8393394351005554,-0.06808371096849442,-0.5393272042274475,-0.0037696361541748047,-0.027710944414138794,-0.041712164878845215,-0.56480364809827,0.3410614093192074,0.3376588651861552,0.6713124002903317,0.06813641924782435,-0.9996680562188979,-1.70548119595484
1773065225901122304,2.142937421798706,-0.4234839975833893,-0.9575989842414856,0.1715042144060135,-0.8446872234344482,-0.06456352025270462,-0.5313521027565002,-0.002785921096801758,-0.05347847193479538,-0.05577552318572998,-0.5630268900951574,0.3457393685468206,0.33880411065072713,0.6698334366673928,0.06460845997263538,-1.0092885721697493,-1.707936107341555
1773065225911160320,2.15297532081604,-0.41428637504577637,-0.9043111801147461,0.20069819688796997,-0.849707305431366,-0.06074552983045578,-0.5237436890602112,0.05089443922042847,-0.08006258308887482,-0.07171529531478882,-0.561312103073868,0.3503698634467525,0.33966028239960183,0.6684314368312511,0.06078295225886887,-1.0184187471605555,-1.7106282102889925
1773065225921198080,2.163013219833374,-0.39121195673942566,-0.9132221341133118,0.19724060595035553,-0.8545719385147095,-0.05694131553173065,-0.5162020921707153,0.08772623538970947,-0.06015464663505554,-0.07385528087615967,-0.5597437442184217,0.35487499003095274,0.34053294849054827,0.6669243453846068,0.05697213145731183,-1.0274059725102587,-1.7129531782025635
1773065225931235328,2.1730504035949707,-0.37802571058273315,-0.8905488848686218,0.1774744987487793,-0.8592953681945801,-0.0533982589840889,-0.5086846947669983,0.06986665725708008,-0.029609553515911102,-0.062405943870544434,-0.5581331363429798,0.3592656938715002,0.34144665104361555,0.6654545236324888,0.053423669049968925,-1.0362955876822975,-1.7153073686304272
1773065225941273088,2.1830883026123047,-0.41746577620506287,-0.8261384963989258,0.19166968762874603,-0.863761305809021,-0.04975937679409981,-0.5014383792877197,0.034171462059020996,-0.018844131380319595,-0.012920141220092773,-0.5565586866584907,0.3635754758409939,0.3421895648257212,0.6640494066092927,0.04977993318178553,-1.0448169039887758,-1.7178041936557074
1773065225951311104,2.1931262016296387,-0.4705977737903595,-0.7173194289207458,0.15195009112358093,-0.867708683013916,-0.04603305831551552,-0.49493682384490967,0.02159363031387329,-0.029894649982452393,0.0019864141941070557,-0.5549821827630259,0.36769052651248907,0.3425423482187053,0.6629201357620373,0.04604933118997115,-1.0524296050850688,-1.7208359723102833
1773065225961349376,2.2031643390655518,-0.47458797693252563,-0.6326625943183899,0.12320847064256668,-0.8710618019104004,-0.042525775730609894,-0.48932889103889465,0.019133150577545166,-0.03462264686822891,0.008600741624832153,-0.5533959417090563,0.37145817404222764,0.342570263166526,0.662130836176468,0.042538605547497534,-1.0589681358846053,-1.724334072640818
1773065225971387136,2.2132022380828857,-0.47873812913894653,-0.5266207456588745,0.1322268694639206,-0.8739498257637024,-0.039145875722169876,-0.48443707823753357,0.028338313102722168,-0.03891808167099953,0.025818943977355957,-0.5519251690169632,0.3749044532414275,0.3423859080821385,0.6615112846798193,0.03915588113746844,-1.0646519224804867,-1.727862273619286
1773065225981425408,2.223240375518799,-0.5034990906715393,-0.42360618710517883,0.15917912125587463,-0.8762791156768799,-0.03546984866261482,-0.48049643635749817,0.03962445259094238,-0.03749769181013107,0.05537134408950806,-0.550667805551467,0.3780822957804806,0.3417682829239582,0.6610697485564135,0.035477291154171,-1.069230634668624,-1.7315067926551146
1773065225991463168,2.233278274536133,-0.4534590244293213,-0.37371721863746643,0.1401716023683548,-0.8782434463500977,-0.03183283656835556,-0.4771531820297241,0.042931556701660156,-0.003872733563184738,0.07249009609222412,-0.5495693907876651,0.3809883084107782,0.3409858026104116,0.6607193875798012,0.03183821489207413,-1.073108524065104,-1.7350207601057719
1773065226001501440,2.243316411972046,-0.3741426169872284,-0.2820237874984741,0.16224761307239532,-0.8798398375511169,-0.028558682650327682,-0.4744114577770233,0.04368877410888672,0.014871560037136078,0.06256148219108582,-0.5487121656452443,0.3834552147544517,0.3402298754707636,0.6603943366389438,0.028562566695583803,-1.0762810597570809,-1.7379587817456192
1773065226011539200,2.25335431098938,-0.3045259118080139,-0.2049385905265808,0.2114553600549698,-0.8810248970985413,-0.025323575362563133,-0.47239160537719727,0.07778698205947876,0.022134486585855484,0.049631595611572266,-0.5482684325059844,0.38548892697295883,0.3394149068411013,0.6599981118319521,0.02532628318561412,-1.0786221018786786,-1.74005581707911
1773065226021577216,2.263392210006714,-0.2684730887413025,-0.15265993773937225,0.21058344841003418,-0.8818908333778381,-0.02209596149623394,-0.4709356129169464,0.08809810876846313,0.05255249887704849,0.0706518292427063,-0.5481442232267837,0.3871950540450723,0.33854421696006304,0.6595496282675958,0.02209775900844868,-1.0803149004516392,-1.741517338297353
1773065226031615232,2.273430347442627,-0.33611807227134705,-0.09784714877605438,0.19537107646465302,-0.8825446963310242,-0.01890336163341999,-0.4698484539985657,0.04041212797164917,0.07903824001550674,0.10246258974075317,-0.5480020599656266,0.3887907260857825,0.3375167242772761,0.6592556281425709,0.018904488556244572,-1.081582097386619,-1.7432326842058903
1773065226041653248,2.283468246459961,-0.364699125289917,-0.03966906666755676,0.201518714427948,-0.8828884959220886,-0.015466519631445408,-0.4693279266357422,0.003493964672088623,0.08362753689289093,0.1619243621826172,-0.5478563367015216,0.39032023732702514,0.336134127372585,0.6591793489625808,0.01546713646531527,-1.0822032348964612,-1.7454381123801586
1773065226051691264,2.293506383895874,-0.3399159908294678,0.09329564869403839,0.21334101259708405,-0.882811427116394,-0.011925525963306427,-0.469576358795166,0.009321928024291992,0.058998871594667435,0.17582935094833374,-0.5478686227229328,0.391590106447767,0.3344682550402705,0.6592634483129923,0.01192580844438273,-1.0819476707617146,-1.7476718354807594
1773065226061728256,2.3035433292388916,-0.2180263102054596,0.1572256237268448,0.1934911459684372,-0.8822203874588013,-0.008823210373520851,-0.4707542359828949,0.02351665496826172,0.028171345591545105,0.1729026436805725,-0.5482153505933456,0.3922601402448094,0.3327985378418423,0.6594218738641575,0.008823324753384059,-1.0806301379331527,-1.7491578438539244
1773065226071766016,2.3135812282562256,-0.1721755564212799,0.23940330743789673,0.15110480785369873,-0.8813055753707886,-0.006398822646588087,-0.4725033640861511,0.02110666036605835,0.027532245963811874,0.14585846662521362,-0.548733611113577,0.39242377156500396,0.33128825161223635,0.6596537109433086,0.006398866287879362,-1.078656271507789,-1.750037075368216
1773065226081804288,2.3236193656921387,-0.12675002217292786,0.33990463614463806,0.12004116922616959,-0.8799415826797485,-0.004491341765969992,-0.4750606417655945,0.0040108561515808105,0.05362466722726822,0.15955469012260437,-0.5493630974506862,0.3921066312283747,0.32973030774725126,0.6600988119272719,0.004491356975742927,-1.0757579353165376,-1.750723498282839
1773065226091842048,2.3336572647094727,-0.13291192054748535,0.46088364720344543,0.08305399119853973,-0.8780163526535034,-0.0030107374768704176,-0.4786212742328644,-0.017125248908996582,0.04672716557979584,0.1661670207977295,-0.5501207727761039,0.391277311008308,0.32801133421524675,0.660816023127827,0.003010741979161169,-1.071710110768442,-1.751327667307166
1773065226101880320,2.3436954021453857,-0.14489561319351196,0.6060541272163391,0.059579819440841675,-0.8754523992538452,-0.0017184176249429584,-0.48330140113830566,-0.022420525550842285,0.033655036240816116,0.15116333961486816,-0.550923135700166,0.39002881346505475,0.32592456233684985,0.6619172982816183,0.0017184184818241687,-1.066373656432924,-1.7523055553308613
1773065226111918336,2.3537333011627197,-0.05247804895043373,0.7141861915588379,0.0418839156627655,-0.8722148537635803,-0.0008099928963929415,-0.48912230134010315,-0.012932240962982178,0.045899711549282074,0.15716731548309326,-0.5519634964138449,0.38817990637107397,0.323659101549593,0.6632476385772423,0.0008099929858162007,-1.0597129667986007,-1.7529644061443705
1773065226121956096,2.3637712001800537,0.03332846611738205,0.8023898005485535,0.010590174235403538,-0.868462860584259,-0.0005706640658900142,-0.4957538843154907,-0.007544219493865967,0.06098020821809769,0.12479746341705322,-0.5532648593075242,0.38570390463662346,0.3214895904238326,0.6646614849239227,0.0005706640820617012,-1.0520935385032513,-1.7528857253625367
1773065226131994368,2.373809337615967,0.035249270498752594,0.9189727306365967,-0.019978255033493042,-0.8641489148139954,-0.000793612387496978,-0.5032355785369873,-0.010088145732879639,0.07864394038915634,0.1365058422088623,-0.554712623866919,0.38271690151531285,0.3192334202907972,0.6662670300581586,0.000793612472667447,-1.0434571950078613,-1.7525635959412993
1773065226142032128,2.383847236633301,0.01698131673038006,1.0323728322982788,-0.059953365474939346,-0.8591469526290894,-0.001276089227758348,-0.5117273926734924,-0.023009419441223145,0.09290512651205063,0.15982919931411743,-0.5561973923211108,0.37929000788238143,0.31666290493739996,0.6682126470034686,0.001276089543119004,-1.0336016645122943,-1.7525333415322824
1773065226152070400,2.393885374069214,0.047221776098012924,1.137558102607727,-0.08864786475896835,-0.8535187244415283,-0.002064167521893978,-0.521058201789856,-0.04729914665222168,0.08778801560401917,0.17042648792266846,-0.557710452882157,0.37544968778405075,0.3138605216944547,0.6704388878789366,0.002064168876683762,-1.022704770315295,-1.7526997256148487
1773065226162108160,2.403923273086548,0.12566065788269043,1.2195717096328735,-0.15050403773784637,-0.8472942113876343,-0.0035124188289046288,-0.5311122536659241,-0.04839670658111572,0.0799742192029953,0.14717060327529907,-0.5593237610676528,0.37105605114622753,0.31106475215187424,0.6728395746278135,0.003512426073317057,-1.010879743308005,-1.752588476435337
1773065226172146432,2.413961410522461,0.23457226157188416,1.3093794584274292,-0.18707655370235443,-0.8404627442359924,-0.005956561770290136,-0.541836678981781,-0.02405446767807007,0.06210889667272568,0.10567951202392578,-0.5610329685233549,0.3659944692695736,0.3084310280742964,0.6753965244462655,0.005956596894978831,-0.9981640599849506,-1.752014576918389
1773065226182184192,2.423999309539795,0.3443267345428467,1.346906065940857,-0.19247771799564362,-0.8331485390663147,-0.009163559414446354,-0.5529733896255493,0.010287821292877197,0.04612033814191818,0.09420263767242432,-0.5629689329139723,0.36036368701742416,0.3060250059700403,0.6779032300884327,0.009163687637669645,-0.9848397836577859,-1.7506006353382277
1773065226192222208,2.434037208557129,0.35680341720581055,1.3877363204956055,-0.2166026383638382,-0.8254484534263611,-0.012866152450442314,-0.5643309354782104,0.038812100887298584,0.05105889216065407,0.07035815715789795,-0.5650134864333788,0.3543713624375785,0.3037358480771221,0.6803861865754979,0.012866507832004916,-0.9711171870978051,-1.748757662961418
1773065226202259200,2.4440743923187256,0.2694743573665619,1.469129204750061,-0.21361616253852844,-0.8172275424003601,-0.016496174037456512,-0.5760790705680847,0.04372900724411011,0.06590412557125092,0.08486807346343994,-0.5669908052637813,0.3482415812077055,0.3011449470002421,0.6830526733327408,0.016496921366062144,-0.9567767750500344,-1.7474031687150318
1773065226212297216,2.4541122913360596,0.1845991313457489,1.4945974349975586,-0.18701878190040588,-0.8085017800331116,-0.01939864084124565,-0.5881739258766174,0.028701424598693848,0.09067245572805405,0.11773020029067993,-0.5689281454285028,0.34220738370680365,0.2980052959014073,0.6858627522013628,0.019399857354129645,-0.9418604314126311,-1.7467631962485575
1773065226222334976,2.4641501903533936,0.25815537571907043,1.4776726961135864,-0.22118473052978516,-0.799567699432373,-0.022288335487246513,-0.6001622080802917,0.003089427947998047,0.13650038838386536,0.15297293663024902,-0.5708107177997812,0.33615965966891104,0.2948144696475292,0.6886626174735466,0.022290181186191395,-0.9269059627574014,-1.7462576602192694
1773065226232373248,2.4741883277893066,0.3063879609107971,1.4855997562408447,-0.21467144787311554,-0.7905380129814148,-0.02584938146173954,-0.6118671894073486,-0.018040478229522705,0.129975363612175,0.16402173042297363,-0.5727010797811812,0.32988097694274426,0.29196735279324154,0.6913371676334756,0.025852261639032804,-0.9121185929396469,-1.7452753390739981
1773065226242411264,2.4842262268066406,0.1836729645729065,1.593219518661499,-0.18753303587436676,-0.7809165716171265,-0.02895965427160263,-0.6239637136459351,-0.0016914606094360352,0.10287322103977203,0.15680062770843506,-0.574651528238413,0.3235187592544668,0.28871050655009023,0.6940875791801795,0.02896370373171302,-0.8966565514654666,-1.7445862506471335
1773065226252449280,2.4942643642425537,0.1988517791032791,1.6728068590164185,-0.11923187226057053,-0.7705259919166565,-0.031285300850868225,-0.6366404891014099,0.026019155979156494,0.11606310307979584,0.19460856914520264,-0.5767472908476062,0.31707826080952534,0.2848528485226779,0.6969095783653407,0.03129040707168464,-0.8802580743921915,-1.7441914884379266
1773065226262487296,2.5043022632598877,0.27729225158691406,1.7288293838500977,-0.07838377356529236,-0.759514570236206,-0.033572662621736526,-0.6496233940124512,0.031319379806518555,0.11848782002925873,0.18632078170776367,-0.5792017272147619,0.3102860138834563,0.28091082895168307,0.6995263509519377,0.03357897385398403,-0.8632253247844812,-1.7429713529003024
1773065226272525312,2.514340400695801,0.29296937584877014,1.7720283269882202,-0.09312263876199722,-0.747979462146759,-0.03610537573695183,-0.662739098072052,0.04087191820144653,0.11542056500911713,0.13382375240325928,-0.5818169538045052,0.3031768118030007,0.2769733938185181,0.7020389021769976,0.03611322553171603,-0.8457481407837601,-1.7412812008547554
1773065226282563328,2.5243782997131348,0.25806865096092224,1.8639607429504395,-0.09884018450975418,-0.7357648015022278,-0.0386391244828701,-0.6761339902877808,0.03968936204910278,0.1089363619685173,0.14514338970184326,-0.5843764779952808,0.29585790390310884,0.2727656564452613,0.7046780157233323,0.03864874439292692,-0.8276075462349185,-1.7399333201328384
1773065226292600320,2.5344154834747314,0.32921841740608215,1.9710172414779663,-0.09068305045366287,-0.7225250005722046,-0.04137320816516876,-0.690105676651001,0.03597104549407959,0.08206841349601746,0.17194777727127075,-0.587066517037467,0.28804159886667097,0.2682893804772627,0.707393565423082,0.04138501890332818,-0.8083437155018673,-1.7384710679650894
1773065226302638336,2.5444533824920654,0.42387327551841736,2.0752251148223877,-0.036125265061855316,-0.7083652019500732,-0.04441351443529129,-0.7044474482536316,0.03369784355163574,0.05633062869310379,0.1577402949333191,-0.5900724389487702,0.27968084036169394,0.2637326306536491,0.7099565686454447,0.0444281301649719,-0.7881711768353588,-1.7362318159568078
1773065226312676352,2.5544915199279785,0.5257118940353394,2.138523817062378,-0.012811554595828056,-0.6932761073112488,-0.048019830137491226,-0.7190704345703125,0.01029270887374878,0.08931013941764832,0.1897125244140625,-0.593434410494892,0.2706833385486259,0.25922058760619404,0.7122996045637292,0.04803830323736817,-0.7671367359560234,-1.7329729817974202
1773065226322714368,2.5645294189453125,0.5463260412216187,2.1761932373046875,-0.024854902178049088,-0.6774940490722656,-0.052053991705179214,-0.7336839437484741,-0.0408896803855896,0.1454683244228363,0.2004808783531189,-0.5968794335608921,0.2613112630561264,0.2547046225105133,0.7145465719066296,0.05207752882541928,-0.7456014438829351,-1.7293952784217972
1773065226332751360,2.57456636428833,0.5860445499420166,2.1639792919158936,-0.024641316384077072,-0.6613683700561523,-0.05647147819399834,-0.7479324340820312,-0.07770633697509766,0.18098320066928864,0.20746612548828125,-0.6002576903691416,0.25178567641843397,0.2502753771098582,0.7166986621946025,0.05650153672859587,-0.724051823083662,-1.7257681917477985
1773065226342789376,2.584604501724243,0.43364810943603516,2.2877917289733887,0.02207079529762268,-0.6445406675338745,-0.06046479195356369,-0.762175440788269,-0.04633152484893799,0.1383609175682068,0.15859878063201904,-0.6036575056355251,0.24220128291019832,0.24546044837264547,0.7188083433985919,0.06050169579218123,-0.701968631923507,-1.7223457705897265
1773065226352827392,2.594642400741577,0.3093780279159546,2.420550584793091,0.0582643523812294,-0.6263592839241028,-0.0628633126616478,-0.7769956588745117,0.03860598802566528,0.0797547772526741,0.10353374481201172,-0.607105630890646,0.23268201945072076,0.23950206990222875,0.7210552396353185,0.06290479402382282,-0.6784674048324568,-1.7197633712025244
1773065226362865408,2.6046805381774902,0.6235056519508362,2.542117118835449,0.05133640393614769,-0.6068417429924011,-0.06601385027170181,-0.7920765280723572,0.07199066877365112,0.02519659698009491,0.15197038650512695,-0.6107537612012139,0.22239546382603295,0.23345658973906883,0.7231999394617783,0.0660618915630522,-0.653751114009569,-1.716584883963758
1773065226372903424,2.614718437194824,0.8283407688140869,2.630913496017456,0.08962547034025192,-0.5861135125160217,-0.07162750512361526,-0.8070566058158875,0.040108323097229004,-0.06742583215236664,0.07902932167053223,-0.614830716433171,0.21075578626765532,0.22815276459605435,0.7249216754588885,0.07168889593685364,-0.6281178379219048,-1.711478968179447
1773065226382941440,2.6247565746307373,0.7809889912605286,2.617182970046997,0.04316769167780876,-0.5646297335624695,-0.07774963229894638,-0.8216740489006042,-0.023505032062530518,-0.0014282092452049255,0.06656235456466675,-0.6188985812202717,0.19876447938728123,0.2228355095256506,0.7264994303757402,0.07782817957646945,-0.6020632076815843,-1.7062362704505205
1773065226392979456,2.6347944736480713,0.8455595374107361,2.512253999710083,-0.056192584335803986,-0.5432621240615845,-0.08457773923873901,-0.8352921009063721,-0.13795125484466553,0.1725141406059265,0.23539280891418457,-0.6225009760860345,0.18683826611205054,0.21781970729341607,0.7281061668813162,0.08467890054250071,-0.5766464224447683,-1.701732210449237
1773065226403017216,2.6448323726654053,0.5561037659645081,2.694584846496582,-0.07263761013746262,-0.5213363766670227,-0.09121144562959671,-0.8484626412391663,-0.1872054934501648,0.1810094118118286,0.18681102991104126,-0.6256923006147856,0.1749823241598365,0.21248497287802504,0.729890744049851,0.09133839249690724,-0.550975526492153,-1.6983913141679643
1773065226413055488,2.6548705101013184,0.2159249186515808,2.893568515777588,0.058742523193359375,-0.4972039759159088,-0.09429304301738739,-0.8624946475028992,-0.10242065787315369,0.1288694590330124,0.12949293851852417,-0.6288909493540585,0.16355801529690628,0.20494253070414106,0.7319450831922771,0.0944333357578102,-0.5229397783979404,-1.696677547786349
1773065226423093248,2.6649084091186523,0.5476918816566467,2.870515823364258,0.12450262904167175,-0.47215449810028076,-0.09677945822477341,-0.8761870861053467,-0.03930482268333435,0.130470871925354,0.25283509492874146,-0.6324409917553255,0.15198211513134877,0.1969971556504271,0.7335610846846592,0.09693117241726736,-0.4942610911003011,-1.6941068288519128
1773065226433131520,2.6749465465545654,1.1171350479125977,2.9550540447235107,0.11062037199735641,-0.44645798206329346,-0.10380447655916214,-0.8887631297111511,-0.030775904655456543,0.03895463049411774,0.14077728986740112,-0.6363327188954069,0.138641355740615,0.19078001952051357,0.7344808386403382,0.10399180747688741,-0.4655149014762952,-1.6890764936623484
1773065226443169280,2.6849844455718994,1.1728979349136353,3.049539566040039,0.06821725517511368,-0.41951531171798706,-0.11381381750106812,-0.9005849957466125,-0.05680304765701294,-0.010652132332324982,-0.02408236265182495,-0.6402836191396599,0.1239094382526626,0.1853481843750891,0.7350710878676227,0.114060975505663,-0.43593605605342556,-1.6831268826463377
1773065226453207552,2.6950225830078125,1.5217305421829224,2.926384210586548,-0.07286650687456131,-0.39221495389938354,-0.125756174325943,-0.9112370014190674,-0.11954957246780396,0.1793603003025055,0.10438275337219238,-0.6438267099051135,0.10859338115345456,0.18052421370657037,0.7355988732553815,0.12609002340520675,-0.40645278070025354,-1.6776425695656707
1773065226463245312,2.7050604820251465,1.8215941190719604,2.77626895904541,-0.24012233316898346,-0.3658568561077118,-0.1420818567276001,-0.9197616577148438,-0.2171051800251007,0.2793346643447876,0.19443511962890625,-0.6466451143739762,0.09240875545643466,0.1777070432754504,0.7360237332673913,0.14256429839163307,-0.3785855488836477,-1.6725428630875954
1773065226473282304,2.715097427368164,1.3880778551101685,2.8780593872070312,-0.28646785020828247,-0.33938759565353394,-0.15827910602092743,-0.9272344708442688,-0.21287372708320618,0.20497101545333862,0.13696658611297607,-0.648837632556929,0.07643407395174648,0.17475868057244268,0.7366321146847766,0.15894754439225656,-0.3508758275224221,-1.6691303768519188
1773065226483320576,2.725135564804077,0.9473629593849182,2.975510358810425,-0.31713229417800903,-0.31142300367355347,-0.16980867087841034,-0.93497633934021,-0.14173251390457153,0.17752961814403534,0.25301527976989746,-0.6506586975392716,0.06162065707143367,0.1694542200623667,0.7376526506885708,0.17063552260257173,-0.3215235887079776,-1.6682200871493984
1773065226493358336,2.735173463821411,1.1067334413528442,2.9009451866149902,-0.3714768886566162,-0.2830455005168915,-0.18022862076759338,-0.9420206546783447,-0.12297561764717102,0.13437595963478088,0.3688089847564697,-0.6521182498777721,0.04715171778262852,0.16360437903374542,0.7387504356677335,0.18121887357326177,-0.2918845853658497,-1.6685000493876934
1773065226503396352,2.745211362838745,1.2799513339996338,2.780087471008301,-0.4545890986919403,-0.25538402795791626,-0.19289861619472504,-0.947401225566864,-0.13197556138038635,-0.0051146745681762695,0.1950666904449463,-0.6531373163459117,0.03230495035612479,0.15892062783248176,0.7396703624929191,0.194115395044965,-0.26330417802290745,-1.6691098214242273
1773065226513434368,2.755249500274658,1.1831966638565063,2.803821086883545,-0.5584920644760132,-0.22773469984531403,-0.20580413937568665,-0.9517256021499634,-0.10602077841758728,-0.06452056765556335,0.15236341953277588,-0.6536042071248735,0.0175090897777556,0.15437177033178287,0.7407188603803901,0.20728536096090636,-0.23486985418712614,-1.6710486471183044
1773065226523472384,2.765287399291992,1.2667096853256226,2.7375247478485107,-0.6432207822799683,-0.1998651921749115,-0.2187630534172058,-0.9550898671150208,-0.0799504816532135,-0.02583533525466919,0.18444472551345825,-0.6535484528223072,0.0027150865157241745,0.14982556002026662,0.7419025729328294,0.22054664074421118,-0.20628643518519624,-1.6743383435512822
1773065226533510400,2.7753255367279053,1.3086084127426147,2.7042031288146973,-0.6902468800544739,-0.1722726821899414,-0.2324352115392685,-0.9572334885597229,-0.0730886161327362,-0.026323318481445312,0.16179287433624268,-0.6530368933147669,-0.012148448779008569,0.1457246061980774,0.7430743570518576,0.2345807172939746,-0.17806324423508488,-1.6785648561768092
1773065226543548416,2.7853634357452393,1.1739094257354736,2.7029449939727783,-0.7126179337501526,-0.14465481042861938,-0.24561171233654022,-0.958514392375946,-0.06271213293075562,-0.020501568913459778,0.18249815702438354,-0.6522315635268047,-0.026827428308900805,0.14150294995594168,0.7442117544178951,0.2481506802158706,-0.14978530855083397,-1.6836261124695229
1773065226553586432,2.7954015731811523,0.9765308499336243,2.6672897338867188,-0.7173140645027161,-0.11696223169565201,-0.25690513849258423,-0.9593328833580017,-0.0818902924656868,0.01847130060195923,0.17538213729858398,-0.6512524701896866,-0.040898129348278696,0.13660488587232972,0.745343435867198,0.25981847685868353,-0.12132161591553534,-1.689467288456552
1773065226563624448,2.8054394721984863,0.7193347811698914,2.656911611557007,-0.721356213092804,-0.08949275314807892,-0.265815794467926,-0.9598609209060669,-0.09391788393259048,0.053764402866363525,0.1777411699295044,-0.6501287512483402,-0.05408959563046767,0.13093451561721522,0.7465005883681887,0.26905005633157997,-0.09296636962776225,-1.6959930903436908
1773065226573662208,2.8154773712158203,0.7835928201675415,2.6092774868011475,-0.6397655010223389,-0.06217484176158905,-0.2733152508735657,-0.9599130749702454,-0.08011337369680405,0.06605511903762817,0.16514378786087036,-0.6490408827595026,-0.06679853548436124,0.12482560209801061,0.7474639532151824,0.2768378150492241,-0.06468097658045104,-1.7025060517626547
1773065226583700480,2.8255155086517334,0.9010965824127197,2.5971593856811523,-0.5999014377593994,-0.03555880859494209,-0.2818538546562195,-0.9587982296943665,-0.05257594585418701,-0.0009525120258331299,0.07342225313186646,-0.6479881742105356,-0.07966098533666635,0.11939441526071923,0.7480043766539153,0.2857257412246453,-0.03706986243654067,-1.7085096547852663
1773065226593738240,2.8355534076690674,0.96712327003479,2.6233956813812256,-0.5881898999214172,-0.008708158507943153,-0.29093194007873535,-0.9567041397094727,-0.0010879859328269958,-0.08052802085876465,0.024193763732910156,-0.6469196532125052,-0.0928571042686839,0.11412930005275056,0.7482293215252903,0.29520077778063264,-0.009101996624891247,-1.7144199766852262
1773065226603775488,2.845590591430664,1.0030986070632935,2.659433126449585,-0.6212080717086792,0.018407071009278297,-0.3003831207752228,-0.9536409974098206,-0.009831633418798447,-0.07806536555290222,0.024930059909820557,-0.6456307563763493,-0.10631991772895936,0.10897511011287578,0.7483190328052925,0.3050942938771327,0.019299490092862772,-1.7208320955134693
1773065226613813504,2.855628490447998,0.9052705764770508,2.6813230514526367,-0.6274941563606262,0.045896537601947784,-0.30938076972961426,-0.9498299956321716,-0.047727588564157486,-0.029974699020385742,0.14674466848373413,-0.644154744361236,-0.11982289308664024,0.10357348541961928,0.7483179377530131,0.3145417793261305,0.0482832343091405,-1.727785456264781
1773065226623851264,2.865666389465332,0.7291378974914551,2.577207088470459,-0.682353138923645,0.07303352653980255,-0.3168335258960724,-0.945665180683136,-0.12851449847221375,0.05001834034919739,0.204667866230011,-0.6425354803137827,-0.13272022425078084,0.0977381873288071,0.7483186396665467,0.3223891440580175,0.07707679927350997,-1.735155743002612
1773065226633889536,2.875704526901245,0.4902477562427521,2.5031075477600098,-0.7788553237915039,0.09941143542528152,-0.3219369053840637,-0.9415274858474731,-0.19615215063095093,0.07324916124343872,0.14286720752716064,-0.6405553302253417,-0.14454657384442948,0.0913375366756187,0.7486338856558561,0.32777460164102934,0.10519551103306571,-1.7434949389913317
1773065226643927296,2.885742425918579,0.42624613642692566,2.5484161376953125,-0.7111348509788513,0.12556231021881104,-0.3253055214881897,-0.9372355341911316,-0.14375078678131104,-0.028149068355560303,0.07636517286300659,-0.6384906557625953,-0.15576123374613826,0.0843840778582728,0.7489642913149004,0.33133478945536415,0.13317793737224262,-1.7520069523023385
1773065226653965568,2.895780563354492,0.409906804561615,2.654257297515869,-0.606067955493927,0.1520964652299881,-0.3283940851688385,-0.9322145581245422,0.0020783543586730957,-0.190053790807724,-0.11690348386764526,-0.6367326065446178,-0.16715882503376073,0.0771403881653068,0.7487850586507125,0.33460286852068166,0.16173102297524142,-1.7595645057574458
1773065226664003328,2.905818462371826,0.3761637508869171,2.753242015838623,-0.5511780381202698,0.1791609823703766,-0.3309399485588074,-0.9264880418777466,0.10781106352806091,-0.2765429615974426,-0.021433711051940918,-0.6352303053012648,-0.1786993473517335,0.06944440084395466,0.748148684418955,0.3372994851248877,0.1910187461614884,-1.7663058596014753
1773065226674041344,2.91585636138916,0.6626704335212708,2.7843821048736572,-0.53564453125,0.20657894015312195,-0.3347049653530121,-0.9194007515907288,0.04770877957344055,-0.22385826706886292,0.04795604944229126,-0.633654230699665,-0.19090631493938964,0.06208390997673135,0.7471161925883729,0.34129213228164756,0.22101810017558066,-1.773011131944283
1773065226684079360,2.9258944988250732,0.7304630279541016,2.797903537750244,-0.6556921005249023,0.23443195223808289,-0.3400215208530426,-0.9107288122177124,-0.09211325645446777,-0.11412578821182251,-0.11202198266983032,-0.6315332205331954,-0.20391349451248655,0.055270908595077745,0.7460094472574476,0.3469397933660685,0.25194181663104626,-1.7809945104008649
1773065226694117376,2.9359323978424072,0.5489318370819092,2.7052853107452393,-0.6796769499778748,0.26196470856666565,-0.344113826751709,-0.9016430377960205,-0.18948546051979065,0.09284737706184387,0.08603024482727051,-0.6290552697859016,-0.21646830024437594,0.048165921495351184,0.7450577359915113,0.35129481639555965,0.2827568312020225,-1.789745708517657
1773065226704155392,2.9459705352783203,0.6059250831604004,2.34202241897583,-0.7188387513160706,0.28713637590408325,-0.3473391830921173,-0.8926971554756165,-0.27970534563064575,0.3086428940296173,0.20667725801467896,-0.6264124916231134,-0.22786956070482667,0.041555803633122924,0.7442822139422506,0.35473211318243075,0.31119929907778116,-1.7985818323917997
1773065226714193408,2.9560084342956543,0.6158710718154907,2.2743823528289795,-0.7764039039611816,0.31018245220184326,-0.35052525997161865,-0.8836961388587952,-0.27276790142059326,0.22691383957862854,0.10227829217910767,-0.6233105502216179,-0.23847757640914227,0.03578219136678244,0.7438629850108178,0.3581319035682781,0.3375705447293136,-1.8083635096144985
1773065226724231424,2.9660465717315674,0.6350282430648804,2.4008238315582275,-0.6647913455963135,0.3333239257335663,-0.3537110388278961,-0.8739471435546875,-0.09104487299919128,-0.10875234007835388,-0.124603271484375,-0.6202126478308755,-0.24925690131085979,0.029956902813216557,0.7431754642856324,0.36153565910933116,0.36437026787085414,-1.8180024845932083
1773065226734268416,2.976083517074585,0.424905389547348,2.6095285415649414,-0.6595876216888428,0.3575659394264221,-0.3562135100364685,-0.8632835745811462,0.10483640432357788,-0.3834105134010315,-0.09095531702041626,-0.6173926631575128,-0.26040824200057633,0.02336135035291856,0.7419354211034747,0.3642124371666342,0.39268145625561945,-1.8267497307297489
1773065226744306432,2.986121416091919,0.2573366165161133,2.5469810962677,-0.6728296875953674,0.3823336958885193,-0.3565289378166199,-0.8524717092514038,0.10811427235603333,-0.34357479214668274,0.10836166143417358,-0.6147495465849699,-0.2711450898773368,0.015635894592256137,0.7404855028995353,0.3645500492409764,0.4216059545283864,-1.834664373424055
1773065226754344448,2.996159553527832,0.45230090618133545,2.4552395343780518,-0.7016302943229675,0.40598219633102417,-0.3566397726535797,-0.8414193987846375,-0.08272475004196167,-0.09105309844017029,0.11223238706588745,-0.6118979321807559,-0.28146468757161575,0.00824259024514195,0.739114846530916,0.3646686599363772,0.44954730775709684,-1.8428343357920551
1773065226764382464,3.006197452545166,0.6237747073173523,2.4371092319488525,-0.8001608848571777,0.42913395166397095,-0.3581913709640503,-0.8291821479797363,-0.19449955224990845,0.04363146424293518,-0.06277036666870117,-0.6083516134954032,-0.2922426725713687,0.0017744721704932732,0.7379020746484793,0.3663300141003863,0.47758000903259235,-1.8527934968199962
1773065226774420480,3.016235589981079,0.5286046266555786,2.355384588241577,-0.8609954714775085,0.45209169387817383,-0.3592067062854767,-0.8164457678794861,-0.17590761184692383,0.10868790745735168,-0.08569961786270142,-0.6044130002412262,-0.302910582666393,-0.004722631417604833,0.7368228029047968,0.3674177246989623,0.5057035321542721,-1.8635461254766525
1773065226784458496,3.026273488998413,0.6194924712181091,2.1558074951171875,-0.8437802195549011,0.47352781891822815,-0.35985854268074036,-0.8039112091064453,-0.14703550934791565,0.18796828389167786,0.07888984680175781,-0.600257212267386,-0.3129357619627916,-0.010751407676663091,0.7359667203893506,0.3681162713573453,0.5323142732680869,-1.8746458617862383
1773065226794496256,3.036311388015747,0.5599626898765564,2.1910135746002197,-0.7504394054412842,0.4937973618507385,-0.36073052883148193,-0.7912254333496094,-0.10919958353042603,0.049710631370544434,-0.057987213134765625,-0.596215110650968,-0.32267606426639533,-0.016353776213042466,0.7349423564652966,0.3690510369440245,0.5579460089274774,-1.8853043147243007
1773065226804534528,3.04634952545166,0.5826024413108826,2.2469842433929443,-0.7425114512443542,0.5139867663383484,-0.36152714490890503,-0.7778918743133545,-0.004236400127410889,-0.15804985165596008,-0.10899472236633301,-0.5923550928670044,-0.33251484349782207,-0.022089562663916786,0.7335267421152544,0.3699053141408949,0.5838905523085051,-1.8952801751457182
1773065226814572288,3.056387424468994,0.5191800594329834,2.243075370788574,-0.8594344258308411,0.5342622995376587,-0.36163878440856934,-0.7640557289123535,0.05408608913421631,-0.2577001750469208,0.004961490631103516,-0.5881808939056711,-0.34232432833704257,-0.02803893395035917,0.7321688145868048,0.3700250566253621,0.610219219627286,-1.9057925782651575
1773065226824610560,3.0664255619049072,0.4430389404296875,2.2354204654693604,-0.8965517282485962,0.5543994903564453,-0.36041486263275146,-0.7501615881919861,-0.016038894653320312,-0.20887529850006104,-0.013647615909576416,-0.5837538707253215,-0.3517624137610944,-0.034386308162075246,0.7309666943325638,0.36871259442644666,0.6364498069623169,-1.9165151976789079
1773065226834648320,3.076463460922241,0.5974640250205994,2.3108580112457275,-0.8976747393608093,0.5747689604759216,-0.35926470160484314,-0.7352343201637268,-0.06616300344467163,-0.10916486382484436,-0.1018628478050232,-0.5791013253326454,-0.36155319267050756,-0.04076916046891281,0.7295606912083489,0.36747988318504504,0.663512992796072,-1.927597176860076
1773065226844686336,3.086501359939575,0.44171249866485596,2.316715955734253,-0.940876305103302,0.5949912667274475,-0.357728511095047,-0.7197330594062805,-0.061727166175842285,-0.059599339962005615,-0.12804526090621948,-0.574253295063308,-0.37135282299155875,-0.04722880502115714,0.7280793878940268,0.3658343170849627,0.6908007925518236,-1.9388666223553677
1773065226854724352,3.0965394973754883,0.503656804561615,2.100165605545044,-0.9922387003898621,0.6142916083335876,-0.355132132768631,-0.704646646976471,-0.09138816595077515,0.0856161117553711,-0.030002951622009277,-0.569301432545365,-0.38051073620885084,-0.05374236717514834,0.7267868563071976,0.3630553985088914,0.7169991272410364,-1.9499587126179927
1773065226864761344,3.106576442718506,0.587641179561615,2.098752975463867,-0.9537743926048279,0.632355272769928,-0.35284245014190674,-0.6896585822105408,-0.12342888116836548,0.09068119525909424,-0.10350847244262695,-0.5640645787542683,-0.3893892275992934,-0.05955441434954006,0.7257136745775339,0.3606071900323731,0.7420797750816366,-1.9617589805212605
1773065226874799616,3.116614580154419,0.5317866802215576,2.249218463897705,-0.9148785471916199,0.6504539847373962,-0.3508194386959076,-0.6736729741096497,-0.01291126012802124,-0.11033168435096741,-0.20515698194503784,-0.5588707075641067,-0.39860651050883794,-0.06539386128298723,0.72422367319299,0.3584460164985824,0.7678646206958347,-1.9732393683381568
1773065226884837376,3.126652479171753,0.3846771717071533,2.3752589225769043,-0.9212599992752075,0.6691864132881165,-0.34775999188423157,-0.6566982269287109,0.10090941190719604,-0.22011113166809082,-0.024591445922851562,-0.553826950141992,-0.4079858030764212,-0.07210045500833276,0.72223599433418,0.3551808985185738,0.7948166506441865,-1.9836181366775076
1773065226894875392,3.136690378189087,0.3111950159072876,2.3366384506225586,-0.9478715062141418,0.6878477334976196,-0.3436696231365204,-0.639340877532959,0.032489240169525146,-0.15048626065254211,0.007321834564208984,-0.5488307955424028,-0.4171756845202772,-0.07933473608126484,0.7200383905947791,0.3508217426944778,0.8219304486275241,-1.9931972322963747
1773065226904913408,3.146728515625,0.2590077221393585,2.2904393672943115,-0.9969874024391174,0.7057702541351318,-0.33862754702568054,-0.622269868850708,-0.10269713401794434,-0.029292374849319458,-0.07295107841491699,-0.54377730548878,-0.42584794872917386,-0.0867098604285364,0.7179423647318767,0.3454578739672524,0.8481904327709892,-2.00235558318561
1773065226914951424,3.156766414642334,0.3316817283630371,2.3440022468566895,-1.043352723121643,0.7234588265419006,-0.33313336968421936,-0.6046730279922485,-0.13453060388565063,-0.00452837347984314,-0.12793195247650146,-0.5384273640585148,-0.43451327534154865,-0.09413665483686486,0.7158438665813204,0.3396248359377548,0.8745990982402552,-2.011803278437278
1773065226924989440,3.166804552078247,0.31333494186401367,2.3791353702545166,-1.0514607429504395,0.7410392761230469,-0.3273336589336395,-0.5862708687782288,-0.07719039916992188,-0.08096101880073547,-0.22931146621704102,-0.5327817937400964,-0.44332345480983354,-0.10163115236497147,0.7136378781862228,0.33348038532456753,0.9014770419878874,-2.021532928363291
1773065226935027456,3.176842451095581,0.35349470376968384,2.361553192138672,-0.9663650393486023,0.7581022381782532,-0.32168325781822205,-0.5672749876976013,0.012924373149871826,-0.08726754784584045,-0.21835434436798096,-0.5271718043832839,-0.4521880723155752,-0.10903424166760542,0.7111451376003158,0.3275067065148195,0.9283950596605859,-2.0308573960512377
1773065226945065472,3.186880588531494,0.39990055561065674,2.2782480716705322,-0.9605204463005066,0.7741502523422241,-0.31643176078796387,-0.5482355952262878,0.07198011875152588,-0.04405713081359863,-0.12017560005187988,-0.521607305254137,-0.460897277405097,-0.11599952393919799,0.7085503419420585,0.32196560016069475,0.9546033077730055,-2.0399983336977017
1773065226955103488,3.196918487548828,0.492661714553833,2.166405200958252,-1.0054932832717896,0.7892869114875793,-0.31112924218177795,-0.5293626189231873,0.08017414808273315,-0.040784209966659546,0.004734933376312256,-0.5157383651503836,-0.4693737987155777,-0.12250279090759188,0.7061835870933211,0.31638100567069366,0.9800172140646518,-2.0497930648295157
1773065226965141248,3.206956386566162,0.45234331488609314,2.1360247135162354,-1.0818315744400024,0.8036860823631287,-0.3053395748138428,-0.5107410550117493,0.027612745761871338,-0.08734536170959473,-0.05523794889450073,-0.509560801695503,-0.4775421106804988,-0.12877499240565812,0.7040726664274332,0.3102950161832189,1.0046833234990822,-2.060057500619861
1773065226975179520,3.216994524002075,0.28723034262657166,2.144742012023926,-1.1590908765792847,0.8178586363792419,-0.29807522892951965,-0.4921974539756775,-0.0006895065307617188,-0.15355437994003296,-0.09679177403450012,-0.5032983123790351,-0.4852904207550582,-0.13562625312037102,0.701989674298403,0.30267559677191785,1.0290452696667631,-2.0695559784072035
1773065226985217280,3.227032423019409,0.13700968027114868,2.13738751411438,-1.1777455806732178,0.8317156434059143,-0.28939881920814514,-0.473811537027359,0.026575982570648193,-0.19702082872390747,-0.0682111382484436,-0.49715420540196986,-0.4925489874251387,-0.14314231717890263,0.6998167204074247,0.29359873002945613,1.0529695625935596,-2.0776968375429945
1773065226995255552,3.2370705604553223,-0.01670362986624241,2.0499274730682373,-1.1502708196640015,0.8448184728622437,-0.2799408733844757,-0.45597684383392334,0.07302820682525635,-0.1592070460319519,-0.16169893741607666,-0.49136776212367667,-0.4992105242390226,-0.1509981303375007,0.6975286180427792,0.283732528391642,1.0758694207734607,-2.0842083654233274
1773065227005292288,3.24710750579834,-0.06522483378648758,1.9215577840805054,-1.0375440120697021,0.8567771911621094,-0.27028006315231323,-0.439182847738266,0.14842605590820312,-0.06834298372268677,-0.20383775234222412,-0.48613785014385547,-0.5051472117892357,-0.15885486661305437,0.6951700726359873,0.2736839066717407,1.0971206451977158,-2.0889817945747233
1773065227015330304,3.257145404815674,0.24558953940868378,1.6377546787261963,-0.9328845739364624,0.8671115636825562,-0.2621571719646454,-0.4235460162162781,0.26065027713775635,-0.032078057527542114,-0.06981641054153442,-0.4810837207857212,-0.5107523183995794,-0.16540575105835603,0.6930595682234664,0.26525688226290894,1.1164263501842244,-2.0942590800042944
1773065227025368576,3.267183542251587,0.37308090925216675,1.477502703666687,-0.9420032501220703,0.875958263874054,-0.2554300129413605,-0.4092097580432892,0.34791868925094604,-0.08781644701957703,-0.0515599250793457,-0.47570468591155646,-0.5161201800105519,-0.17033814664866403,0.6915995187651025,0.2582924469501582,1.133766854226989,-2.10153533236797
1773065227035406336,3.277221441268921,0.2518983483314514,1.4114261865615845,-0.9880813956260681,0.8842993974685669,-0.24806757271289825,-0.39557191729545593,0.3305138349533081,-0.12282781302928925,-0.060742199420928955,-0.47022391875909403,-0.5210641422430677,-0.17523186529579335,0.6904168708984418,0.25068496632221804,1.1501666265199046,-2.1087528741808237
1773065227045444608,3.287259578704834,0.18025027215480804,1.2326788902282715,-0.7855793833732605,0.8916501998901367,-0.2408979833126068,-0.3833121955394745,0.23893463611602783,-0.07175460457801819,-0.0279579758644104,-0.4653883407231025,-0.5253215415065622,-0.17994770412595906,0.6892531743825101,0.24329098126819573,1.1647904480724374,-2.1144886829055953
1773065227055482368,3.297297477722168,0.14992454648017883,1.0647087097167969,-0.6689176559448242,0.8976174592971802,-0.23526449501514435,-0.3727380335330963,0.24477767944335938,-0.031916916370391846,-0.059711307287216187,-0.4615054400038522,-0.5289874795699103,-0.1838565400721448,0.688027484122196,0.2374906911237187,1.1772106360520278,-2.118870062700989
1773065227065520384,3.307335376739502,0.15464845299720764,0.9882615804672241,-0.8984110355377197,0.9032328128814697,-0.22870662808418274,-0.363130658864975,0.2755849361419678,-0.03438541293144226,-0.11778056621551514,-0.4575217991961033,-0.5321109303366192,-0.18786331973030462,0.6871966225869105,0.23074888406388805,1.1885373816705957,-2.1231220650674554
1773065227075558400,3.317373514175415,0.4502652883529663,0.781842052936554,-0.8375375270843506,0.908459484577179,-0.2215730845928192,-0.354410320520401,0.29700005054473877,-0.04373146593570709,-0.09268739819526672,-0.45278798732905695,-0.5349798491106654,-0.19128878622784717,0.687159504228613,0.22342735651023965,1.1988340927121115,-2.129344967842042
1773065227085596416,3.327411413192749,0.5123646259307861,0.688812792301178,-0.35189175605773926,0.9122558236122131,-0.21803154051303864,-0.3467727601528168,0.3963683247566223,-0.017472609877586365,-0.13424524664878845,-0.44870436625981486,-0.5380312344306647,-0.19270705263791815,0.6870594240494328,0.21979702413212468,1.2075386480040848,-2.1364297302432376
1773065227095634432,3.337449550628662,0.26139941811561584,0.6875432729721069,-0.23547139763832092,0.9152730703353882,-0.2167624533176422,-0.3395425081253052,0.44686365127563477,0.027431383728981018,-0.18366608023643494,-0.44601457736284084,-0.5410211529791932,-0.19371334465584236,0.6861793535162971,0.2184968394820017,1.215559960730222,-2.141149390975795
1773065227105672448,3.347487449645996,0.06214488670229912,0.6018126606941223,-0.15910205245018005,0.9178854823112488,-0.21552762389183044,-0.3332178592681885,0.3261788487434387,0.024106115102767944,-0.09709525108337402,-0.44427839763238336,-0.5434267363432291,-0.19513701830399033,0.6850004663339961,0.21723211864766606,1.2225630018099245,-2.1433857450424854
1773065227115710464,3.357525587081909,0.09126811474561691,0.4248119294643402,0.2679804265499115,0.9193549752235413,-0.2163945585489273,-0.32857251167297363,0.24243396520614624,0.0228215754032135,-0.08713793754577637,-0.4438349870062378,-0.5453268883950048,-0.19578644889373883,0.683591085262323,0.21812001166687411,1.2275491317840153,-2.1438534635077877
1773065227125748480,3.367563486099243,0.022139638662338257,0.2649348974227905,0.34431782364845276,0.9197803139686584,-0.21955934166908264,-0.3252659738063812,0.22014278173446655,0.09924380481243134,-0.1315821409225464,-0.44443482263750117,-0.5469550927430904,-0.1954664546319965,0.6819902620447198,0.22136276819851905,1.2308873803796967,-2.1433266140688314
