time,seconds_elapsed,rotationRateX,rotationRateY,rotationRateZ,gravityX,gravityY,gravityZ,accelerationX,accelerationY,accelerationZ,quaternionW,quaternionX,quaternionY,quaternionZ,pitch,roll,yaw
1773064875944565760,0.02224278450012207,0.12724457681179047,-0.037605784833431244,-0.008327323943376541,-0.06112345680594444,-0.017637401819229126,-0.9979743957519531,0.021191202104091644,-0.011796800419688225,-0.08694076538085938,0.9822886519850088,0.003022312624378869,-0.0316809131438698,-0.1846511671618088,0.01763831652739133,-0.061171107408237634,-0.37108458056677474
1773064875954604032,0.032280921936035156,0.004737034440040588,-0.02061108499765396,-0.02222929149866104,-0.06140046566724777,-0.01825743541121483,-0.9979462027549744,0.053618479520082474,-0.01152772270143032,0.012686192989349365,0.9822653031771372,0.003298712063264849,-0.031874921559123776,-0.18473794769254878,0.018258450449330974,-0.061449365442413556,-0.3712424517260714
1773064875964641792,0.04231882095336914,-0.04263567551970482,-0.028791118413209915,-0.039736777544021606,-0.061635810881853104,-0.01803610473871231,-0.9979357123374939,-0.006723560392856598,-0.08204629272222519,0.04656553268432617,0.9822359005057337,0.0031635083402456973,-0.03197070512880858,-0.18487990337181462,0.018037082680432786,-0.061684949421979336,-0.3715371492196979
1773064875974679808,0.052356719970703125,-0.046649858355522156,-0.03802189975976944,-0.12709484994411469,-0.06194901838898659,-0.01765993796288967,-0.9979230761528015,-0.005433790385723114,-0.08089658617973328,0.024183452129364014,0.9821535201104082,0.002935850777458448,-0.03209123863887021,-0.18530018147801952,0.017660855111355796,-0.06199839159753285,-0.37240299054729664
1773064875984717824,0.06239485740661621,-0.06821924448013306,-0.04861648753285408,-0.1637633889913559,-0.06236496567726135,-0.017155874520540237,-0.997905969619751,0.0055412352085113525,-0.022486459463834763,0.0048334598541259766,0.9820070509489693,0.0026247999463955914,-0.03225112314467706,-0.18605135374354495,0.017156716026828157,-0.062414661036074105,-0.3739463950393229
1773064875994755840,0.0724327564239502,-0.016640469431877136,-0.061515506356954575,-0.1666281521320343,-0.06289046257734299,-0.01679825782775879,-0.9978790283203125,-0.022879183292388916,0.01858353801071644,-0.005889832973480225,0.9818443733617984,0.0023729237853982567,-0.032478328484470305,-0.18687189559079365,0.016799047479685053,-0.06294088684057278,-0.37562697933946865
1773064876004793856,0.08247089385986328,0.05732541158795357,-0.06305388361215591,-0.14183691143989563,-0.06347544491291046,-0.017122264951467514,-0.9978365302085876,-0.012604877352714539,0.025072095915675163,-0.0011106133460998535,0.9816860064474878,0.0024515642408427835,-0.032798416387850735,-0.18764522776768244,0.01712310198374395,-0.06352747224970434,-0.3771911926312773
1773064876014831872,0.09250879287719727,0.10638882219791412,-0.06479772180318832,-0.08175493776798248,-0.06409962475299835,-0.01803896203637123,-0.997780442237854,-0.004244498908519745,0.011889668181538582,-0.010642409324645996,0.9815678713750994,0.002824973825181566,-0.033193259768755444,-0.18818812694640513,0.01803994032358114,-0.0641540511559879,-0.3782679174611693
1773064876024869888,0.10254693031311035,0.12443289905786514,-0.054400742053985596,-0.03216128423810005,-0.06469590216875076,-0.01926765963435173,-0.9977189898490906,-0.00039808452129364014,0.0026660989969968796,-0.012885808944702148,0.9815019691961848,0.003363482931622684,-0.03360339730479864,-0.1884501270811714,0.019268851588540286,-0.06475315782744619,-0.3787624693497588
1773064876034907904,0.11258482933044434,0.09788864105939865,-0.0362507663667202,0.08137486129999161,-0.06514433771371841,-0.02039780095219612,-0.9976673722267151,0.013752728700637817,0.003460543230175972,0.002183973789215088,0.9815122820537954,0.003880622853908984,-0.0339302908487608,-0.18832792550857685,0.020399215312452475,-0.0652040851244017,-0.37847720966535964
1773064876044945664,0.12262272834777832,0.06644345819950104,-0.014596069231629372,0.19659626483917236,-0.0654296949505806,-0.021124497056007385,-0.9976335763931274,0.012649543583393097,-0.006234511733055115,0.01898062229156494,0.9816410941267424,0.004235699740243497,-0.03413621239615441,-0.18761050488712813,0.021126069370407504,-0.06549110402861619,-0.3769919469228417
1773064876054983936,0.1326608657836914,0.045892104506492615,0.005931575782597065,0.25881969928741455,-0.06551629304885864,-0.021547121927142143,-0.9976188540458679,0.033152393996715546,-0.015379147604107857,0.03477400541305542,0.9818540622879589,0.004474896860187206,-0.03421342552833822,-0.1864725703893135,0.02154878978043512,-0.06557849855349299,-0.37466034998756653
1773064876065021696,0.1426987648010254,0.02068439871072769,0.014871275052428246,0.29736122488975525,-0.06546922773122787,-0.021702468395233154,-0.997618556022644,0.043939076364040375,-0.019709886983036995,0.03842055797576904,0.982115652615063,0.004603810144414291,-0.034198346976475794,-0.18508964472636183,0.021704171787650522,-0.06553154475833158,-0.3718392059418705
1773064876075059968,0.15273690223693848,0.0021762277465313673,0.021076973527669907,0.31786516308784485,-0.06535444408655167,-0.021619457751512527,-0.9976279139518738,0.025696851313114166,-0.014665944501757622,0.03403538465499878,0.9824036100022533,0.004626515154825536,-0.03412701253990998,-0.18356787646678038,0.02162114133718047,-0.06541636628964076,-0.3687437971478687
1773064876085098752,0.16277575492858887,0.01643434725701809,0.01645771972835064,0.29878920316696167,-0.06522984057664871,-0.021502653136849403,-0.9976385831832886,0.017881810665130615,-0.010022006928920746,0.027957797050476074,0.9826918909310683,0.004633715804779776,-0.03404771004429941,-0.18203313832005105,0.021504310270345207,-0.06529130173174942,-0.3656239852268691
1773064876095136768,0.17281389236450195,0.044628702104091644,0.0081870062276721,0.24728527665138245,-0.06517960876226425,-0.021638864651322365,-0.9976388812065125,0.010919347405433655,-0.010526664555072784,0.01887911558151245,0.9829441147360344,0.004752614528662594,-0.034028834541753795,-0.18066673026131583,0.021640554558429816,-0.0652411441317846,-0.3628394579185529
1773064876105174784,0.18285179138183594,0.04088793694972992,-0.0013636215589940548,0.18029798567295074,-0.0651940181851387,-0.021953243762254715,-0.9976310729980469,0.0008019357919692993,-0.001987794414162636,0.0032921433448791504,0.9831349930945213,0.004942471608412262,-0.03405915500033222,-0.17961412573478822,0.021955008036867507,-0.0652560384145364,-0.3606882098350695
1773064876115212800,0.19288992881774902,0.02529912255704403,-0.00757917296141386,0.1102704256772995,-0.06528109312057495,-0.022194024175405502,-0.9976200461387634,-0.012553982436656952,0.0043259840458631516,-0.003631114959716797,0.9832635708500004,0.005078163323567729,-0.03412004145857843,-0.17889307672811602,0.022195846834889524,-0.06534366568576475,-0.35921361350877684
1773064876125250816,0.202927827835083,0.03355439007282257,-0.006092596333473921,0.026740914210677147,-0.06536570191383362,-0.022439438849687576,-0.99760901927948,-0.016436658799648285,0.0029844827950000763,0.003270089626312256,0.9833238170801304,0.005203428516554328,-0.03418192940194823,-0.17854649876037354,0.02244132158858652,-0.06542883840715694,-0.35850072305009384
1773064876135288832,0.212965726852417,0.06006535887718201,-0.022137075662612915,-0.05214191600680351,-0.06549627333879471,-0.02289513684809208,-0.9975901246070862,-0.014246150851249695,-0.003594120964407921,0.010804235935211182,0.9833086837051419,0.00541409188550143,-0.034287414684121845,-0.17860327713463953,0.022897137080041,-0.06556040382767103,-0.3586014953881379
1773064876145326848,0.22300386428833008,0.1139642745256424,-0.02602609060704708,-0.11045581847429276,-0.06574472784996033,-0.023845452815294266,-0.9975515007972717,-0.018773697316646576,-0.0022318176925182343,0.0051961541175842285,0.98322522912111,0.00584546220113684,-0.03449743729555259,-0.1790080978565563,0.023847713441369683,-0.06581092571518797,-0.3593942560793507
1773064876155364864,0.23304176330566406,0.10022236406803131,-0.032722875475883484,-0.14440420269966125,-0.06603725999593735,-0.025064727291464806,-0.997502326965332,-0.019747652113437653,0.008447906002402306,-0.0026655197143554688,0.9831009229433795,0.006397730922579561,-0.034755125533160534,-0.17962094889992536,0.025067352792956608,-0.0661061494538069,-0.3606015786588027
1773064876165402880,0.24307990074157715,0.058620329946279526,-0.02668522298336029,-0.1682237833738327,-0.06629589945077896,-0.025956936180591583,-0.9974623322486877,-0.014529906213283539,0.018998930230736732,-0.012486398220062256,0.9829490783897649,0.006786081808881524,-0.03496836417414817,-0.18039435589223368,0.025959852469599497,-0.06636695507866867,-0.36214584456162335
1773064876175440896,0.25311779975891113,0.05312329903244972,-0.019928250461816788,-0.1444454789161682,-0.06646949052810669,-0.026590101420879364,-0.9974340796470642,-0.006345443427562714,0.013940565288066864,0.0013709068298339844,0.9828006276428508,0.007054522606827484,-0.03511675065738949,-0.18116315266759328,0.026593235358404823,-0.06654209612608793,-0.3636895124088169
1773064876185478912,0.2631559371948242,0.0729832872748375,-0.016911953687667847,-0.11249206960201263,-0.06662175804376602,-0.027286937460303307,-0.9974051117897034,-0.00030329078435897827,0.0029491670429706573,0.01379305124282837,0.9826773531368351,0.007361060607349524,-0.03525984562210015,-0.18179096205466494,0.027290324962183806,-0.0666960082487879,-0.36494456686702603
1773064876195516928,0.2731938362121582,0.09440255910158157,-0.01579289324581623,-0.08504899591207504,-0.06674493104219437,-0.028214840218424797,-0.9973710775375366,0.012148983776569366,-0.001188846305012703,0.008830428123474121,0.9825808640789644,0.007789306744124984,-0.035408972225409015,-0.1822644398513492,0.028218585352865495,-0.06682122861382844,-0.36587863959772027
1773064876205554688,0.2832317352294922,0.08952045440673828,-0.00017265579663217068,-0.06645587086677551,-0.06679818034172058,-0.029185209423303604,-0.9973395466804504,0.019602753221988678,0.0011090412735939026,0.005854010581970215,0.9825080139956698,0.008249203524877924,-0.03552694255113164,-0.18261341731031597,0.029189354717694533,-0.0668764871226508,-0.3665586475309719
1773064876215592960,0.2932698726654053,0.10187751799821854,-0.00467659393325448,-0.07303573936223984,-0.06679926812648773,-0.030175551772117615,-0.9973100423812866,0.015804387629032135,0.0052732061594724655,0.012416243553161621,0.9824402387251076,0.008724512668864894,-0.03562117585205464,-0.18293790787027986,0.030180132729599195,-0.0668795442355482,-0.36718879922328584
1773064876225630720,0.30330777168273926,0.11508800089359283,-0.004073254764080048,-0.057715777307748795,-0.06680417060852051,-0.03131762146949768,-0.9972745180130005,0.006882913410663605,0.00897875428199768,0.01732456684112549,0.982375263981043,0.009274938941872413,-0.03573136340165664,-0.1832379246422478,0.031322744545890756,-0.06688682105157326,-0.36776454173719403
1773064876235668992,0.31334590911865234,0.09814310818910599,0.006272593513131142,-0.02224273979663849,-0.06677242368459702,-0.03243248164653778,-0.9972409605979919,-0.0038757696747779846,0.018058698624372482,0.014605462551116943,0.9823345665816133,0.009819946336219541,-0.03582006596837028,-0.1834102500987679,0.032438168433885514,-0.06685736243069314,-0.3680816616292772
1773064876245706752,0.32338380813598633,0.04708169773221016,0.023022545501589775,-0.021394789218902588,-0.06664075702428818,-0.03319042921066284,-0.9972248673439026,-0.0021306052803993225,0.024019896984100342,0.013475477695465088,0.9823144484351949,0.010201707767212005,-0.03582595493338469,-0.1834962847408798,0.03319652594299693,-0.06672699746692057,-0.3682351534397379
1773064876255745792,0.3334228992462158,0.01013246551156044,0.04099142551422119,-0.012483319267630577,-0.06631281226873398,-0.03345838561654091,-0.9972377419471741,-0.0017718970775604248,0.018336929380893707,0.027297616004943848,0.9823007311135049,0.010360329146125419,-0.035690114520659684,-0.1835867993886826,0.03346463129974175,-0.06639873938340728,-0.3684147533486013
1773064876265783808,0.3434607982635498,0.08640047162771225,0.03837074339389801,-0.036518748849630356,-0.06590361893177032,-0.033875323832035065,-0.9972507953643799,-0.014754347503185272,0.009186599403619766,0.04536175727844238,0.9822873461791545,0.010599756805521558,-0.03552802683910948,-0.18367623794193863,0.033881804802872645,-0.0659893438716741,-0.3685887227443037
1773064876275821824,0.3534989356994629,0.1972481608390808,0.02561499923467636,-0.05552253499627113,-0.06556617468595505,-0.035344887524843216,-0.9972220659255981,-0.019440539181232452,0.018407631665468216,0.050093770027160645,0.9822393971955229,0.011345736669476334,-0.03549999461516795,-0.18389336685510455,0.03535224946484215,-0.0656543251312629,-0.368990894757728
1773064876285859840,0.3635368347167969,0.25754648447036743,0.014857692644000053,-0.06223662570118904,-0.06535930186510086,-0.03769780695438385,-0.9971494674682617,-0.02578144520521164,0.04811955615878105,0.02824687957763672,0.9821767552056857,0.012513512115060948,-0.035618591561558624,-0.1841291802879769,0.0377067401796608,-0.06545251475527698,-0.36940434351943996
1773064876295897600,0.37357473373413086,0.26625287532806396,0.012025420553982258,-0.10300137102603912,-0.06519075483083725,-0.04040909558534622,-0.9970542788505554,-0.021387621760368347,0.06048966199159622,0.02206343412399292,0.9820880481417585,0.013850080554921556,-0.035791435311077716,-0.18447286347133812,0.04042009966611618,-0.06529042094982844,-0.37002757565225536
1773064876305935872,0.38361287117004395,0.2376234084367752,0.013103867881000042,-0.17880280315876007,-0.06500376015901566,-0.043012600392103195,-0.9969576001167297,-0.022062882781028748,0.045606598258018494,0.030664265155792236,0.9819450612699976,0.015124861968261185,-0.035950604639441816,-0.18510167022388865,0.043025874826522245,-0.06510997149993801,-0.37123607082245647
1773064876315973632,0.39365077018737793,0.2358236461877823,0.016506323590874672,-0.3149968385696411,-0.06475955247879028,-0.04552360251545906,-0.99686199426651,-0.019560515880584717,0.04489799216389656,0.03334575891494751,0.9817039034963457,0.016340314378951133,-0.03608331265400297,-0.18624816737698444,0.04553934105166454,-0.06487225075676877,-0.37350409258450623
1773064876326011904,0.403688907623291,0.2581202983856201,-0.015559336170554161,-0.4765464663505554,-0.06458424031734467,-0.04823590815067291,-0.996745765209198,-0.025869853794574738,0.05267622321844101,0.022578954696655273,0.9813072924177068,0.01761931384867682,-0.03628586870631932,-0.18817225282509376,0.04825463437208201,-0.06470464903271997,-0.37735175927821774
1773064876336049920,0.413726806640625,0.29412224888801575,-0.03611627221107483,-0.527533769607544,-0.06460481882095337,-0.0513264499604702,-0.9965900778770447,-0.035569123923778534,0.0530354380607605,0.014610767364501953,0.9807892365675253,0.019044230497980076,-0.03663701682507813,-0.19065002363611835,0.05134901135729909,-0.06473528809742193,-0.3823170901624795
1773064876346087680,0.423764705657959,0.3118274509906769,0.006544102448970079,-0.3207786977291107,-0.06461617350578308,-0.054727453738451004,-0.9964084029197693,-0.002965010702610016,0.0371798500418663,0.012643754482269287,0.9803053871919291,0.02063004355828607,-0.037016380304772514,-0.19288716676709244,0.05475481098627887,-0.06475840932330205,-0.3867869523954135
1773064876356125952,0.43380284309387207,0.500519335269928,-0.11017479002475739,0.5097177028656006,-0.06508769094944,-0.05861956626176834,-0.9961562752723694,0.0698636844754219,0.02534014731645584,-0.010725438594818115,0.9803356089473486,0.022515058370684245,-0.037615569688969085,-0.1924062016714825,0.05865318865701581,-0.06524609188461747,-0.38568983298420967
1773064876366163712,0.44384074211120605,0.7289685010910034,-0.19101771712303162,0.9973440766334534,-0.06722592562437057,-0.06425296515226364,-0.9956667423248291,0.31499814987182617,0.18464481830596924,-0.0531766414642334,0.981002509943939,0.02524057691500586,-0.039109458324553224,-0.18832820282679905,0.06429725974162953,-0.06741618445327044,-0.3771664867735869
1773064876376201984,0.45387887954711914,0.8288005590438843,-0.2261064648628235,0.3245670199394226,-0.06985654681921005,-0.07159819453954697,-0.9949843287467957,0.44613829255104065,0.3806344270706177,-0.09000712633132935,0.9815274526446625,0.02876037791133824,-0.04099621309357721,-0.18465109294590965,0.07165950590729746,-0.07009367336165845,-0.36939221590589655
1773064876386239744,0.4639167785644531,1.041652798652649,-0.19553042948246002,-0.7589898705482483,-0.07173856347799301,-0.08091379702091217,-0.9941360950469971,0.2644265592098236,0.4839746952056885,-0.05197596549987793,0.9811336699851664,0.03313368671647094,-0.04282663998270713,-0.18559294185959374,0.08100234765072771,-0.07203684466957626,-0.3709850767549663
1773064876396278016,0.4739549160003662,1.4525556564331055,-0.2639380097389221,-1.3848042488098145,-0.07302675396203995,-0.09410510212182999,-0.9928803443908691,0.07842837274074554,0.5725291967391968,-0.006600856781005859,0.9798057949420892,0.03927387409833637,-0.04491552612215272,-0.19084226830228015,0.09424455260515384,-0.07341821193619015,-0.3812704449258381
1773064876406315776,0.4839928150177002,1.831339955329895,-0.39129436016082764,-1.4117828607559204,-0.07481284439563751,-0.11159054189920425,-0.9909341931343079,0.1605062037706375,0.6385833621025085,-0.07020777463912964,0.9779831708167785,0.047392968305954256,-0.04782056235817952,-0.1975247499867071,0.11182344346891458,-0.07535433295952608,-0.39436149427652634
1773064876416354816,0.4940319061279297,2.103459596633911,-0.4847702383995056,-1.2991551160812378,-0.07750862836837769,-0.13222718238830566,-0.98818439245224,0.3449341654777527,0.7353308200836182,-0.10120159387588501,0.9755857080493944,0.05686250767904846,-0.05171519504482724,-0.2057294522963659,0.13261555119163668,-0.07827513078444436,-0.41046514493372693
1773064876426392832,0.5040698051452637,2.2838706970214844,-0.5677683353424072,-1.4025887250900269,-0.08077950775623322,-0.15501318871974945,-0.9846042990684509,0.4420008063316345,0.8274070024490356,-0.08964496850967407,0.9733636658235051,0.06740583665388067,-0.0561632772484461,-0.21181459611388173,0.15564080299588018,-0.08185927573644763,-0.4221541129386789
1773064876436430592,0.5141077041625977,2.4526472091674805,-0.672325611114502,-1.751718521118164,-0.08423537760972977,-0.1796567589044571,-0.9801162481307983,0.42565080523490906,0.8630216121673584,-0.06428682804107666,0.970618509214255,0.07874849683197307,-0.06116004137879769,-0.2189931070393068,0.18063751505911269,-0.08573360120242327,-0.43604407969716075
1773064876446468864,0.5241458415985107,2.6215693950653076,-0.7655173540115356,-2.1436731815338135,-0.08749955147504807,-0.20622915029525757,-0.9745836853981018,0.35013383626937866,0.8699406981468201,-0.04404729604721069,0.9671191429197502,0.09090547617514812,-0.06666595940529822,-0.22797469193608388,0.20771969960537373,-0.08954139481492335,-0.45365936779147176
1773064876456506624,0.5341837406158447,2.7434890270233154,-0.8395984768867493,-2.4395687580108643,-0.09024085104465485,-0.23446331918239594,-0.9679274559020996,0.29298436641693115,0.8526731729507446,-0.0010056495666503906,0.9628346199587222,0.10377471570949572,-0.07257469226992792,-0.23856484695502148,0.23666646095926713,-0.09296228897361694,-0.4747039339144193
1773064876466544896,0.5442218780517578,2.787799119949341,-0.875329852104187,-2.6524908542633057,-0.09216420352458954,-0.26360252499580383,-0.9602184295654297,0.27266043424606323,0.8242104649543762,0.04775816202163696,0.957846351585082,0.11704000072763487,-0.0786918986381145,-0.25027894026114594,0.26675492131073,-0.0956894032237616,-0.4983096936162231
1773064876476582656,0.5542597770690918,2.766369342803955,-0.8485424518585205,-2.855952024459839,-0.09277680516242981,-0.29283803701400757,-0.9516503214836121,0.2640567123889923,0.7893590331077576,0.10820549726486206,0.9522216401067485,0.13038132581558529,-0.0847085947911682,-0.2628670512064225,0.2971936488899239,-0.09718332268026805,-0.5241368922369687
1773064876486620928,0.5642979145050049,2.6798248291015625,-0.7639803886413574,-3.065080165863037,-0.09132292121648788,-0.3214828372001648,-0.942501425743103,0.23181059956550598,0.7436935305595398,0.16712605953216553,0.9459906551477185,0.14357029798404086,-0.09020458690403793,-0.2763192323772046,0.327295045894452,-0.09659267092030477,-0.5524159117016618
1773064876496658688,0.5743358135223389,2.531789541244507,-0.6828981041908264,-3.2930498123168945,-0.08741765469312668,-0.34890908002853394,-0.9330705404281616,0.17076116800308228,0.7001816034317017,0.21792161464691162,0.9391666227904598,0.15636897020740526,-0.09493936134820762,-0.2906909863707691,0.35640676434288754,-0.09341547710249724,-0.5834983194190542
1773064876506696704,0.5843737125396729,2.3273022174835205,-0.6019883155822754,-3.5869836807250977,-0.08085941523313522,-0.3745062053203583,-0.923691987991333,0.08099673688411713,0.6632635593414307,0.259782075881958,0.9317265924576879,0.1685206505688366,-0.09876642175788536,-0.3061559150703635,0.3838641508414233,-0.08731678606677616,-0.6179725472991741
1773064876516734720,0.5944118499755859,2.053086519241333,-0.5359259247779846,-3.9025824069976807,-0.071588896214962,-0.3975994288921356,-0.9147621393203735,-0.045415498316287994,0.6156933307647705,0.31069719791412354,0.9236095135765597,0.1797109409692289,-0.10160178013389476,-0.3229960479986836,0.4088990870641367,-0.0781003909474059,-0.6566321907502846
1773064876526772736,0.6044497489929199,1.7732175588607788,-0.4978839159011841,-4.163451671600342,-0.059773169457912445,-0.4177395701408386,-0.9065984487533569,-0.18059852719306946,0.5496518611907959,0.3635534644126892,0.9148377245612306,0.18974808082178332,-0.1034235313420895,-0.3411321095352136,0.4309559964619051,-0.0658359645409217,-0.6994208121569402
1773064876536810752,0.614487886428833,1.5337226390838623,-0.4469863772392273,-4.343048095703125,-0.045818377286195755,-0.4349663257598877,-0.8992802500724792,-0.28271859884262085,0.4662926197052002,0.38753098249435425,0.9054853017218566,0.198681733850341,-0.10433331401787933,-0.36018960044234993,0.4500008825737622,-0.05090603350189689,-0.7455395230815502
1773064876546848768,0.624525785446167,1.3579117059707642,-0.381102979183197,-4.501536846160889,-0.029920263215899467,-0.4496143162250519,-0.8927215337753296,-0.3497183918952942,0.37725716829299927,0.39911502599716187,0.8955904582924036,0.20674217545121315,-0.10438823167038,-0.3798401207304668,0.4663335032578586,-0.03350324339849314,-0.7942971842676845
1773064876556886784,0.6345639228820801,1.336560845375061,-0.24672037363052368,-4.670315265655518,-0.011765189468860626,-0.46249473094940186,-0.8865439295768738,-0.37846308946609497,0.31587305665016174,0.41115641593933105,0.8850345283140296,0.21447577154021355,-0.1035768625340325,-0.39998226545955223,0.4808069017067078,-0.01327006825117445,-0.8456785028593888
1773064876566924800,0.6446018218994141,1.5830029249191284,-0.04747079312801361,-4.772280216217041,0.009179961867630482,-0.47534236311912537,-0.8797529935836792,-0.387109637260437,0.28916987776756287,0.4461134672164917,0.8736439507977336,0.2229750334290279,-0.10200797621174881,-0.42026513371490887,0.49535313545241144,0.010434324710319293,-0.8993821760445445
1773064876576963840,0.6546409130096436,1.9948914051055908,0.17671677470207214,-4.712801456451416,0.03276125341653824,-0.490040123462677,-0.8710840344429016,-0.37049928307533264,0.2689555287361145,0.4777582287788391,0.8613610125097969,0.23329595429491842,-0.10015477383328415,-0.43999924444284444,0.5121357870357007,0.037592031607960597,-0.9543733587836466
1773064876587001856,0.6646788120269775,2.2881577014923096,0.4131312966346741,-4.404927730560303,0.05810536816716194,-0.5067315697669983,-0.8601435422897339,-0.32925403118133545,0.2114434838294983,0.4962977170944214,0.8486007875710334,0.245484659667099,-0.09831330422157251,-0.4582014685354392,0.5313893011580403,0.06745062841750488,-1.008549925706309
1773064876597039616,0.6747167110443115,1.91218101978302,0.7155241966247559,-3.919706106185913,0.08442145586013794,-0.5222402811050415,-0.8486095070838928,-0.27227240800857544,0.1062551736831665,0.5679545998573303,0.8363800351524118,0.2579321470933779,-0.09574059886071994,-0.4741024184888682,0.5494758371218822,0.09915585911528448,-1.059345910427993
1773064876607077888,0.6847548484802246,0.9137090444564819,1.1296350955963135,-3.377330780029297,0.11148854345083237,-0.5308555364608765,-0.8400968313217163,-0.25307485461235046,-0.059476494789123535,0.7256101965904236,0.8261197025027057,0.26786174991307915,-0.09056302206559824,-0.48741624928488303,0.5596097490614855,0.1319382100398124,-1.1040403282113227
1773064876617115648,0.6947927474975586,-0.29728248715400696,1.6775269508361816,-3.0533196926116943,0.14034295082092285,-0.529409646987915,-0.8366775512695312,-0.28180718421936035,-0.29503798484802246,0.9527053833007812,0.8183988399940008,0.2739934615404361,-0.08117156082307728,-0.49856003104132934,0.5579045519400914,0.16619127058578065,-1.1419996668144876
1773064876627153920,0.7048308849334717,-1.2903012037277222,2.210414409637451,-2.960404634475708,0.1724538803100586,-0.5178302526473999,-0.8379209041595459,-0.3741292953491211,-0.5509563088417053,1.0471341609954834,0.8126793954979402,0.27667821406932563,-0.06699776456843462,-0.5084413519731911,0.5443126957789879,0.20297738325786197,-1.1749399079298073
1773064876637191680,0.7148687839508057,-1.8697483539581299,2.7174906730651855,-2.9275903701782227,0.20832018554210663,-0.4986756443977356,-0.8413829207420349,-0.4802013039588928,-0.7179075479507446,1.0313549041748047,0.8080271235325472,0.27737014189844084,-0.048727145345286035,-0.5174780085194856,0.5220702196267031,0.24271159187273195,-1.204357020227596
1773064876647229952,0.7249069213867188,-2.1004133224487305,3.073634147644043,-2.7285118103027344,0.24680432677268982,-0.4752243161201477,-0.8445410132408142,-0.4957667291164398,-0.7321578860282898,0.9593634009361267,0.8039497798325804,0.277414078865977,-0.027765640951823715,-0.5252954077712748,0.4952189427182259,0.28431767808207264,-1.2298452191904268
1773064876657267712,0.7349448204040527,-2.057898759841919,3.3209452629089355,-2.4510445594787598,0.285983145236969,-0.4505518078804016,-0.8457048535346985,-0.408968985080719,-0.5843145251274109,0.8673723340034485,0.8002657904976063,0.27769538314774433,-0.005731215252441552,-0.5314386569907315,0.4673833431010036,0.32608779867442794,-1.2506935652273732
1773064876667305728,0.7449827194213867,-1.8269875049591064,3.535019636154175,-2.2894234657287598,0.3254803419113159,-0.4267486035823822,-0.8437702059745789,-0.2868146002292633,-0.3841492235660553,0.7579548358917236,0.796575481044406,0.2790001332667916,0.01654756714410262,-0.5360527343245036,0.4408944984426237,0.36815771652516566,-1.2680716066470343
1773064876677343744,0.7550208568572998,-1.4834120273590088,3.713698148727417,-2.2179512977600098,0.3655088245868683,-0.4049271047115326,-0.8381153345108032,-0.2183225452899933,-0.2291060984134674,0.6703296899795532,0.7923190122294843,0.28186515401199963,0.0386569140632176,-0.5397112714532786,0.4168990963487028,0.41124148300521257,-1.2841416942587507
1773064876687381760,0.7650587558746338,-1.0702379941940308,3.8046765327453613,-2.1505420207977295,0.4056969881057739,-0.3856750428676605,-0.8286523818969727,-0.16987240314483643,-0.14421692490577698,0.6074762344360352,0.7872681768918219,0.2864436271294521,0.06019859961273922,-0.5427108210882714,0.3959393561197754,0.4552821480473318,-1.2999703941216343
1773064876697419776,0.7750968933105469,-0.5951390862464905,3.9152438640594482,-1.927981972694397,0.4453043043613434,-0.37008151412010193,-0.8153181672096252,-0.07646885514259338,-0.12898769974708557,0.5733595490455627,0.7815329357590072,0.29298253466882285,0.08063587189871532,-0.5448535158882601,0.3790967740957592,0.49989982444904574,-1.3155115875661
1773064876707457792,0.7851347923278809,-0.1173023208975792,3.9375667572021484,-1.7024205923080444,0.48380574584007263,-0.3588053584098816,-0.7982422709465027,0.05214396119117737,-0.1907399296760559,0.5206238627433777,0.7753207351585851,0.3015696510832449,0.09967254873976217,-0.5458927289328438,0.3669877235548235,0.5448845859380561,-1.3305325233195402
1773064876717495808,0.795172929763794,0.2344173640012741,3.9078969955444336,-1.5449119806289673,0.5205494165420532,-0.3511827290058136,-0.7782666683197021,0.18046987056732178,-0.2820112109184265,0.46392035484313965,0.7686972625901726,0.31166937411229956,0.1171702470164173,-0.5461115599425966,0.358833998200311,0.589517706905734,-1.345409877994502
1773064876727533824,0.8052108287811279,0.44520002603530884,3.8406472206115723,-1.580633521080017,0.555799126625061,-0.3454909920692444,-0.7561238408088684,0.26033246517181396,-0.3496994376182556,0.4430745244026184,0.7614746117662807,0.32264298214461057,0.13356489834375537,-0.5460936879015116,0.3527619356858643,0.6338731081569388,-1.3610763190438269
1773064876737571840,0.8152487277984619,0.5049366354942322,3.7431631088256836,-1.702260136604309,0.5898428559303284,-0.3396066129207611,-0.7326341271400452,0.28514188528060913,-0.3778921663761139,0.42520004510879517,0.7534613331092256,0.33371328401915296,0.1493933678219678,-0.5464550143573568,0.34649860973739566,0.6778422321916623,-1.3781862457154446
1773064876747610880,0.8252878189086914,0.5459663271903992,3.644550323486328,-1.7611567974090576,0.6224349737167358,-0.3328532874584198,-0.7083667516708374,0.28187716007232666,-0.3782825767993927,0.3971027135848999,0.7448858038967899,0.3444679550713483,0.1647982567417414,-0.5471092235092334,0.3393277889052432,0.7209162503721455,-1.395961740619664
1773064876757648640,0.8353257179260254,0.6070035696029663,3.496184825897217,-1.7522629499435425,0.6532787680625916,-0.325549840927124,-0.6835525631904602,0.29549747705459595,-0.36553600430488586,0.3767593502998352,0.7359282328366354,0.3549088409904173,0.17962024097880955,-0.5478921605378747,0.3315931760576079,0.7627560868119297,-1.4139360703910242
1773064876767686912,0.8453638553619385,0.649088978767395,3.2855381965637207,-1.5703346729278564,0.6815609931945801,-0.3186005651950836,-0.6587626934051514,0.3109774589538574,-0.3698149621486664,0.32374072074890137,0.7270105449818847,0.3650026064486889,0.1933694682191694,-0.5484860654342005,0.32425275559295785,0.8024060564290318,-1.431221535659377
1773064876777724672,0.8554017543792725,0.6656951308250427,3.0968987941741943,-1.3808480501174927,0.7068697214126587,-0.3126469850540161,-0.6344975233078003,0.3237699270248413,-0.3601893484592438,0.2791813611984253,0.7185800866040777,0.3746748897904656,0.2058396929672528,-0.5485357251818767,0.3179784360002517,0.8392999828550096,-1.4468256399618815
1773064876787762944,0.8654398918151855,0.5789240598678589,2.862630605697632,-1.2621405124664307,0.7296255230903625,-0.30711042881011963,-0.6110072135925293,0.31877535581588745,-0.35156574845314026,0.2516932487487793,0.7105589892184713,0.3837712279023455,0.21729254913899654,-0.5482786966848786,0.31215524687860974,0.8736477238171029,-1.461063694057299
1773064876797800704,0.8754777908325195,0.3545474112033844,2.6718242168426514,-1.0416054725646973,0.7498044967651367,-0.3013705909252167,-0.5890407562255859,0.3008241653442383,-0.3968410789966583,0.19458580017089844,0.7033689406034704,0.39175680098527355,0.22804876637939137,-0.5475331689010879,0.30612976341331344,0.9049024531721083,-1.4726130923378702
1773064876807838976,0.8855159282684326,0.08811546117067337,2.554525852203369,-0.7621262669563293,0.7676121592521667,-0.29582011699676514,-0.5685614347457886,0.3279842138290405,-0.4531117379665375,0.17552554607391357,0.6974207797372353,0.3986231398147154,0.23836707840625776,-0.5457884761682472,0.3003139426871566,0.9332812846854425,-1.480193876605297
1773064876817876736,0.8955538272857666,-0.23939263820648193,2.4860727787017822,-0.5500486493110657,0.7836813926696777,-0.29035264253616333,-0.5491255521774292,0.33919763565063477,-0.5114356279373169,0.14473718404769897,0.6927075367748106,0.4044698929140983,0.24867914720718948,-0.54288037065053,0.29459532374721026,0.9596006847371212,-1.4835624197354105
1773064876827914752,0.9055917263031006,-0.5782707333564758,2.3525846004486084,-0.4569394588470459,0.7982731461524963,-0.2841888666152954,-0.5310335159301758,0.2830866575241089,-0.5224822759628296,0.10447412729263306,0.689108543976851,0.409004028229626,0.2592275778668847,-0.5391160155358813,0.2881603021019011,0.9837904685702744,-1.482925633892236
1773064876837952768,0.9156298637390137,-0.8693382740020752,2.212885618209839,-0.4304761588573456,0.8114622831344604,-0.2767842710018158,-0.5147032141685486,0.20077520608901978,-0.4673868715763092,0.10735458135604858,0.6864070304658261,0.41202642257291744,0.2699678345811792,-0.5349737306822955,0.28044601595703694,1.0055437415902675,-1.4790120453602966
1773064876847990784,0.9256677627563477,-0.9878829121589661,2.1375696659088135,-0.41565316915512085,0.8237124681472778,-0.26850441098213196,-0.4994027316570282,0.1615169644355774,-0.39352864027023315,0.12011507153511047,0.6842020842215736,0.41403042471692697,0.28085127572229374,-0.5306305963623588,0.27184007949826755,1.02576989742067,-1.4730365527994425
1773064876858028800,0.9357059001922607,-0.9117950797080994,2.069715738296509,-0.3902149200439453,0.8351700305938721,-0.26044031977653503,-0.48441916704177856,0.18999171257019043,-0.32302525639533997,0.07514792680740356,0.6821182004360284,0.4157502502003678,0.29144837096580684,-0.526236090427365,0.2634782359652005,1.0451941442874835,-1.4665624738817318
1773064876868066816,0.9457437992095947,-0.7328047156333923,1.9979859590530396,-0.3820468485355377,0.8459140658378601,-0.2532288432121277,-0.4693661630153656,0.2583644986152649,-0.23329761624336243,-0.004373490810394287,0.6797980093139498,0.41771164710524644,0.30138662695087964,-0.5220706878632955,0.25601643504563687,1.0642274279582775,-1.4610894744524014
1773064876878104832,0.9557819366455078,-0.4913835823535919,1.905896544456482,-0.3261955678462982,0.8558818101882935,-0.24728408455848694,-0.4542211592197418,0.31767159700393677,-0.12480148673057556,-0.07651004195213318,0.6771573473253109,0.420155471092956,0.31041714936289383,-0.5182359283487094,0.24987628605981252,1.0828871658923,-1.4572311523804984
1773064876888142848,0.9658198356628418,-0.08696114271879196,1.7824351787567139,-0.16298334300518036,0.8647624254226685,-0.24372904002666473,-0.4390695095062256,0.35311776399612427,-0.01110801100730896,-0.12304899096488953,0.674252151302743,0.4234891532539763,0.3179971445698727,-0.5147025844199641,0.2462089976433407,1.1009804818454156,-1.4555990486641652
1773064876898180608,0.9758577346801758,0.6252142190933228,1.61089026927948,0.08419022709131241,0.8722068071365356,-0.24444793164730072,-0.4236750602722168,0.38537681102752686,0.08075162768363953,-0.1911931037902832,0.6708797698019293,0.4286343551771466,0.3231641437139217,-0.5116228182672149,0.24695031444749893,1.1186130156339964,-1.4581175084924167
1773064876908219904,0.9858968257904053,1.414681315422058,1.317773461341858,0.3051218092441559,0.8779023289680481,-0.25052884221076965,-0.40807202458381653,0.4142729640007019,0.10140466690063477,-0.2934202551841736,0.6667254409655969,0.43624103297203703,0.32505037196153164,-0.5094243471330191,0.2532264805003938,1.1356815290059432,-1.4669425068657176
1773064876918257664,0.9959347248077393,1.7995661497116089,0.9933995604515076,0.4027714133262634,0.8815779089927673,-0.2603381872177124,-0.3937568664550781,0.42553573846817017,0.0487140417098999,-0.3329277038574219,0.66215943677963,0.4452273204388105,0.3238737511239003,-0.5083535661867825,0.26337245525112307,1.1507316794135027,-1.480880295182697
1773064876928295936,1.0059728622436523,1.5760340690612793,0.8712515830993652,0.37681838870048523,0.8840981125831604,-0.2705606520175934,-0.38100847601890564,0.4388388395309448,-0.046166032552719116,-0.23642310500144958,0.6577853738889705,0.45393103067080204,0.3216245924203077,-0.5077623789824696,0.2739753536206978,1.1638906812549845,-1.495678697147128
1773064876938333440,1.0160105228424072,0.9360033273696899,0.9901865124702454,0.29842662811279297,0.8866496682167053,-0.2783255875110626,-0.3693062961101532,0.4369891881942749,-0.1639808714389801,-0.07452604174613953,0.654241629746838,0.4609992675365188,0.3206657497832241,-0.5065776829154555,0.2820503842204692,1.1761311513539083,-1.506495589076983
1773064876948371712,1.0260486602783203,0.31019437313079834,1.1053290367126465,0.299702525138855,0.889659583568573,-0.28315433859825134,-0.35823073983192444,0.40195101499557495,-0.21698296070098877,0.044967859983444214,0.6518679205420405,0.4661325543534169,0.32187741300136996,-0.504166123133543,0.287081464993906,1.1879985562009205,-1.5112517560076657
1773064876958409472,1.0360865592956543,0.05917013809084892,1.143167495727539,0.4433174729347229,0.8926239013671875,-0.2869773805141449,-0.347658634185791,0.3607940673828125,-0.1692756712436676,0.014498233795166016,0.6505879793191632,0.4700891319983651,0.32432528924404197,-0.5005642554598791,0.2910700009773851,1.1993921955254787,-1.5113594680274163
1773064876968447744,1.0461246967315674,0.22427813708782196,1.0311083793640137,0.6517903208732605,0.8947938084602356,-0.29229509830474854,-0.3375019133090973,0.35062849521636963,-0.03859171271324158,-0.11148789525032043,0.6498792536653305,0.47411343330376826,0.32629049796494247,-0.49639489552028815,0.2966258616600741,1.2101122814712133,-1.510511544617301
1773064876978485504,1.0561625957489014,0.605490505695343,0.8685282468795776,0.8474522233009338,0.8957250118255615,-0.3004482090473175,-0.3277308940887451,0.371319055557251,0.09616357088088989,-0.2520573139190674,0.6492158120775496,0.47904577560963346,0.32657264787468576,-0.4923253188624249,0.30516254938423387,1.2200421490820963,-1.511774893744047
1773064876988523520,1.0662004947662354,1.0055620670318604,0.7309150099754333,0.9296591877937317,0.8955515623092651,-0.3111436367034912,-0.31808337569236755,0.41108906269073486,0.1709153950214386,-0.29112374782562256,0.6481663959284896,0.4851099130725557,0.32500258025460216,-0.48879650814168857,0.31639616265997805,1.2295129086323735,-1.5165876457909062
1773064876998561536,1.0762386322021484,1.3234729766845703,0.6868420839309692,0.93128901720047,0.8948010802268982,-0.32320523262023926,-0.30800867080688477,0.42162036895751953,0.16672635078430176,-0.25928255915641785,0.6464281442037831,0.49215737965688744,0.32214403681584686,-0.4859371719520041,0.3291145610635236,1.2392797385425904,-1.5250326659137932
1773064877008599552,1.0862765312194824,1.5161939859390259,0.5710615515708923,0.9392192959785461,0.8936483263969421,-0.3358914852142334,-0.29760605096817017,0.37606585025787354,0.1316373646259308,-0.19694653153419495,0.6441246494525826,0.49981192917363193,0.31841013871344626,-0.48363862703044674,0.34255154264548565,1.2493245100105614,-1.5362173917585076
1773064877018637568,1.0963146686553955,1.576167106628418,0.45590272545814514,1.0201542377471924,0.891810953617096,-0.34920111298561096,-0.28763148188591003,0.30992549657821655,0.12504950165748596,-0.13509804010391235,0.6417308954630632,0.5076324969977223,0.31383675440437286,-0.4816609243837649,0.35671840885248346,1.2588044544652324,-1.548784997028086
1773064877028675584,1.1063525676727295,1.4683613777160645,0.43417760729789734,1.1123530864715576,0.8892219662666321,-0.36311227083206177,-0.2782692313194275,0.2639457583427429,0.12074166536331177,-0.10098797082901001,0.639693063505307,0.5152818733028,0.3087879169770139,-0.47950745785195326,0.37160597782749194,1.2675146487060056,-1.5610141232377943
1773064877038713600,1.1163907051086426,1.2009621858596802,0.42974796891212463,1.1320644617080688,0.8862118721008301,-0.3768611550331116,-0.26945143938064575,0.23010581731796265,0.11363184452056885,-0.04480329155921936,0.6382491429676771,0.5223522840928624,0.3040104871447426,-0.47682669884999485,0.3864052632725895,1.2756294298415767,-1.5712618703378713
1773064877048751616,1.1264286041259766,0.9304320216178894,0.40027862787246704,1.0974102020263672,0.8830446004867554,-0.38958868384361267,-0.26163479685783386,0.19398170709609985,0.12854135036468506,0.025688141584396362,0.6374796289351697,0.5284377359075038,0.2998935873433433,-0.47374787043362876,0.4001849510900157,1.282749266698904,-1.5787953913981225
1773064877058789376,1.1364665031433105,0.8727364540100098,0.35862597823143005,1.1030540466308594,0.8796749711036682,-0.40158602595329285,-0.25475624203681946,0.1914157271385193,0.13721227645874023,0.051417648792266846,0.6371523678994733,0.5338091499547402,0.2960906330455559,-0.4705476381234477,0.41324800336754497,1.2889054104756967,-1.5847018622997182
1773064877068827648,1.1465046405792236,1.044649600982666,0.3546770215034485,1.178795576095581,0.8758949041366577,-0.41400304436683655,-0.2478094846010208,0.2280784249305725,0.10157936811447144,-0.026665613055229187,0.6367672180926045,0.5393357498985977,0.2919112990429803,-0.46736734811709857,0.42684729078459677,1.2950806016578886,-1.5912647230589616
1773064877078866688,1.1565437316894531,1.3006545305252075,0.3208727240562439,1.2677321434020996,0.8715354800224304,-0.4276244044303894,-0.2399231195449829,0.25866764783859253,0.0672118067741394,-0.1684325635433197,0.6359565641668837,0.5456419713354669,0.2869029146437498,-0.46424203915968215,0.44186313404442734,1.3021625359049158,-1.600106875851573
1773064877088904704,1.166581630706787,1.6104508638381958,0.31258684396743774,1.2918974161148071,0.866709291934967,-0.44225072860717773,-0.23071451485157013,0.2324116826057434,0.09183263778686523,-0.25755149126052856,0.6344631602755191,0.5528657460567493,0.2810377385337443,-0.461317357539814,0.45810659628945316,1.3106334484041187,-1.6120041406177217
1773064877098942464,1.176619529724121,1.9278429746627808,0.2801056206226349,1.2781054973602295,0.8615817427635193,-0.4573989510536194,-0.22014325857162476,0.18010520935058594,0.11752471327781677,-0.27006059885025024,0.6320647827160041,0.5609698591174062,0.2743012667245622,-0.45887436727780223,0.4750680289863659,1.3206379764286424,-1.6276220473054783
1773064877108980736,1.1866576671600342,2.112718105316162,0.2456618845462799,1.2334938049316406,0.8562855124473572,-0.47263303399086,-0.20831003785133362,0.14530134201049805,0.09033933281898499,-0.24582205712795258,0.6288128572098393,0.5697435865683426,0.2669030262252676,-0.45689096346823016,0.4922761888469241,1.3321601255683748,-1.6465720991333905
1773064877119018496,1.1966955661773682,2.090122699737549,0.17836512625217438,1.1343650817871094,0.8510156273841858,-0.4870818853378296,-0.1962745636701584,0.1267675757408142,0.04498898983001709,-0.19920271635055542,0.6251494720545983,0.5784557718080736,0.2593292032381631,-0.45533007026447275,0.5087453477087736,1.3441242837697216,-1.6669799352156907
1773064877129056768,1.2067337036132812,1.8277512788772583,0.0700363963842392,1.0500476360321045,0.8458569645881653,-0.5001227259635925,-0.18548114597797394,0.11028927564620972,0.017304182052612305,-0.15884870290756226,0.621716967310332,0.5862936737042798,0.25203007482892875,-0.4541019789650119,0.5237405071019158,1.3549310589402563,-1.6864151800842015
1773064877139094528,1.2167716026306152,1.4358335733413696,0.0534835159778595,1.0228573083877563,0.8407008647918701,-0.511857807636261,-0.17670245468616486,0.12449383735656738,0.0038469433784484863,-0.14080244302749634,0.6191499583567617,0.5928129510629174,0.24540085031372785,-0.4527743439733547,0.537345982694182,1.3636272391805744,-1.7025560162424243
1773064877149132544,1.2268095016479492,0.9908851385116577,0.18261046707630157,0.9976663589477539,0.835646390914917,-0.5224798321723938,-0.169440358877182,0.1644909381866455,-0.0299951434135437,-0.1275871992111206,0.6176787556762108,0.5980711769680624,0.23998060048036451,-0.45076956064855206,0.5497567315007633,1.3707429404523173,-1.7140932605904466
1773064877159170560,1.2368476390838623,0.6502602100372314,0.3452547788619995,0.9333505034446716,0.8309398889541626,-0.5319562554359436,-0.16297675669193268,0.1643909215927124,-0.0664934515953064,-0.11479425430297852,0.6171329040714056,0.6023208252945814,0.23605347848475694,-0.44792338366003315,0.560909143275918,1.3771194432656246,-1.7211683426048139
1773064877169208576,1.2468855381011963,0.6464418172836304,0.5624905824661255,0.8442625403404236,0.826863706111908,-0.5403512120246887,-0.15593916177749634,0.10540252923965454,-0.04309910535812378,-0.09267228841781616,0.6167198160804727,0.606285346024379,0.23334201729194456,-0.44455172340535776,0.57085441242006,1.3843945033590546,-1.726415571663669
1773064877179246592,1.2569236755371094,1.0881032943725586,0.6083802580833435,0.7290869355201721,0.8235121965408325,-0.5482115745544434,-0.14591732621192932,0.02214515209197998,0.04612112045288086,-0.09176886081695557,0.6151181407298765,0.6112866266574684,0.23101948077938547,-0.44112174198865667,0.5802243159250183,1.3954274779775777,-1.7347645177964655
1773064877189284608,1.2669615745544434,1.4503592252731323,0.16600607335567474,0.5078045725822449,0.8206287622451782,-0.5550879836082458,-0.13581468164920807,-0.046092689037323,0.20712661743164062,0.005565658211708069,0.6121175574532228,0.6167385682283543,0.22743394926997884,-0.4395672515733741,0.5884687340273413,1.4067822741514675,-1.7486660845446544
1773064877199322624,1.2769997119903564,1.4676004648208618,-0.14401571452617645,0.5232727527618408,0.8178053498268127,-0.5611465573310852,-0.12770558893680573,0.049214184284210205,0.3557175397872925,-0.12964914739131927,0.6086042927043916,0.6218063854775426,0.22249499401567557,-0.43983346485726876,0.595770386588401,1.4158908876092167,-1.7655618638071702
1773064877209360640,1.2870376110076904,1.156527042388916,-0.013511630706489086,0.783822238445282,0.8140137791633606,-0.5681012868881226,-0.12100609391927719,0.2800261378288269,0.26985299587249756,-0.3029136061668396,0.6060355494013526,0.6263191891350353,0.21730445383212318,-0.4395724430164174,0.604196835597336,1.4232233878381413,-1.780107392859633
1773064877219398400,1.2970755100250244,1.2924001216888428,0.1503092646598816,0.9218898415565491,0.8091067671775818,-0.5765785574913025,-0.11359419673681259,0.39147013425827026,-0.00731426477432251,-0.2269972711801529,0.6041377154596992,0.6310149032260116,0.21218646107983402,-0.4379667335288693,0.6145349037084034,1.4313134215953718,-1.7929120740077553
1773064877229436672,1.3071136474609375,1.797755241394043,0.11561466008424759,0.9117279648780823,0.8039198517799377,-0.5856848359107971,-0.10337326675653458,0.29594886302948,-0.2269982099533081,-0.25591015815734863,0.6010752418086334,0.6369788608436896,0.20632812800319428,-0.43634286582535686,0.6257247099347987,1.4429115419536425,-1.810297368534196
1773064877239474432,1.3171515464782715,1.5405548810958862,-0.1840175986289978,0.9521904587745667,0.7982971668243408,-0.5949347019195557,-0.09367135167121887,0.11643671989440918,-0.28032463788986206,-0.3701958656311035,0.5975435875289926,0.643031503534034,0.19918536313205068,-0.4356343951035359,0.6371844202806664,1.453991491415705,-1.830666321194588
1773064877249513728,1.327190637588501,0.22010327875614166,0.3199998736381531,0.8958391547203064,0.7926943898200989,-0.6032580137252808,-0.08783654868602753,0.13061481714248657,-0.21063053607940674,-0.3013846278190613,0.5966677353140556,0.6467540214227354,0.19439897843672604,-0.4334810053374444,0.647579840258103,1.4604389428182714,-1.8403572912779242
1773064877259551488,1.337228536605835,-0.8940098881721497,0.7785253524780273,0.5861029028892517,0.7886475324630737,-0.6088880300521851,-0.0853838250041008,0.22566521167755127,-0.12820297479629517,0.2066454291343689,0.5988855193581601,0.6476714606640388,0.1944987614236064,-0.42898491082784096,0.6546580822145224,1.4629502579704345,-1.8348188845132893
1773064877269589760,1.347266674041748,-0.9747670888900757,0.873101532459259,0.40206846594810486,0.7864929437637329,-0.6116741299629211,-0.0853436067700386,0.17639762163162231,0.04502379894256592,0.474229097366333,0.6025068162814166,0.6467083629715364,0.19772832666603682,-0.4238600205152175,0.6581750411554632,1.462707650457297,-1.8208672349221688
1773064877279627520,1.357304573059082,0.7086908221244812,0.6651781797409058,0.6749165058135986,0.7839831709861755,-0.6155674457550049,-0.08029425889253616,0.20992857217788696,0.3325169086456299,0.34671270847320557,0.6034865817222331,0.6482866549794178,0.19894040215114167,-0.41946524042953565,0.6631057729687716,1.468733850049532,-1.8174951156752146
1773064877289665792,1.3673427104949951,2.3953018188476562,-0.06409571319818497,0.9334697723388672,0.7791725397109985,-0.6232295036315918,-0.06689685583114624,0.33525311946868896,0.3779749870300293,-0.13944774866104126,0.5993903509980321,0.6549312580203938,0.19395003902966645,-0.4173483832144497,0.6728655094111382,1.485150074678338,-1.8376596553058575
1773064877299703552,1.377380609512329,2.028041124343872,-0.4353294372558594,0.7192535996437073,0.7735944390296936,-0.6312987804412842,-0.05489523708820343,0.4160570502281189,0.19701838493347168,-0.25269144773483276,0.5938453106676531,0.661982638206653,0.18528725901965962,-0.4180853786579461,0.6832267554436396,1.4999538181959597,-1.8665409630056131
1773064877309741568,1.387418508529663,0.4197889566421509,0.13416984677314758,0.2782464921474457,0.7703221440315247,-0.6358001828193665,-0.04860113561153412,0.42488354444503784,-0.09512633085250854,0.012132644653320312,0.5909613004355834,0.6656890315462042,0.18043709654224005,-0.41840819219334663,0.6890447935853109,1.507787882791016,-1.8820943353601325
1773064877319779584,1.3974566459655762,-0.230538472533226,0.47247037291526794,-0.0016857997979968786,0.769730806350708,-0.6367365717887878,-0.045619502663612366,0.2508227825164795,-0.4089024066925049,0.15569639205932617,0.5908186865662929,0.6666276177825267,0.18110181840068657,-0.416825000639071,0.6902585621799067,1.5115987472412202,-1.8822208915723662
1773064877329817600,1.4074945449829102,0.009440798312425613,0.26980555057525635,0.023401843383908272,0.7699701189994812,-0.6365865468978882,-0.04363284260034561,0.04458993673324585,-0.4744822382926941,0.2290729284286499,0.5909358266643825,0.6669754444890044,0.1825577596789333,-0.41546528808869754,0.6900640080509968,1.514188643221203,-1.8803503126631613
1773064877339855616,1.4175326824188232,0.7594447135925293,0.21766780316829681,0.13847090303897858,0.7695156931877136,-0.6374064087867737,-0.03947962075471878,0.08572417497634888,-0.2634877562522888,0.045781493186950684,0.589666109847088,0.6686312504451375,0.18218792719811414,-0.4147694368564884,0.6911275668289831,1.519536767464993,-1.885087538906846
1773064877349893632,1.4275705814361572,1.1680269241333008,0.05207230523228645,0.12589985132217407,0.7686784267425537,-0.6388410925865173,-0.031868040561676025,0.2258589267730713,-0.035490572452545166,-0.17981714010238647,0.586403492659236,0.6720548674358756,0.18002287503081918,-0.4148071786161337,0.6929909388193907,1.5293618363837982,-1.89825096828298
1773064877359931648,1.4376087188720703,0.8224897384643555,-0.1653529554605484,0.07727852463722229,0.7679974436759949,-0.6399422287940979,-0.02557271346449852,0.3138964772224426,0.009128570556640625,-0.4048472046852112,0.5831300767918388,0.6751056036596874,0.17733038950485167,-0.4156268722339516,0.6944230634508868,1.5375107091433626,-1.9118557902477609
1773064877369969664,1.4476466178894043,-0.35218545794487,-0.1277824193239212,-0.008367405273020267,0.7677429914474487,-0.6402646899223328,-0.02513684146106243,0.36186516284942627,-0.013482868671417236,-0.4372807741165161,0.5824295062720204,0.6755742361034773,0.1761562681954631,-0.4163463632424156,0.6948428009626276,1.5380667987746193,-1.915384720284193
1773064877380007424,1.4576845169067383,-1.2535924911499023,0.05661991983652115,-0.07598985731601715,0.7680017948150635,-0.6397035121917725,-0.030864965170621872,0.295947790145874,-0.03751206398010254,-0.3888585567474365,0.585262853779924,0.6729681670005188,0.17799259399775297,-0.41581231562635224,0.6941124671306889,1.5306292802308712,-1.904244079709886
1773064877390045696,1.4677226543426514,-1.6394532918930054,0.172042116522789,-0.09263834357261658,0.7686424255371094,-0.6384541392326355,-0.03956567868590355,0.18616116046905518,-0.08362233638763428,-0.18537938594818115,0.5899652854171807,0.6687291047511503,0.1817100578060196,-0.4143958768875846,0.692488060565348,1.519366965018351,-1.8849652392545837
1773064877400083456,1.4777605533599854,-1.5522936582565308,0.28429436683654785,-0.01972232386469841,0.7691178321838379,-0.6372933387756348,-0.04811631515622139,0.18036043643951416,-0.1808982491493225,-0.05982435494661331,0.5950404142542757,0.6643506109447349,0.18595727448063612,-0.41229258140634456,0.6909808026104047,1.5083173576860294,-1.8639570103337857
1773064877410121728,1.4877986907958984,-1.2226659059524536,0.25701361894607544,0.07660700380802155,0.7690604329109192,-0.6368089318275452,-0.05495944246649742,0.2997414469718933,-0.18444961309432983,-0.027193903923034668,0.5995084018274619,0.6607442268035797,0.18957147862327078,-0.4099627380726219,0.6903524210034672,1.499454507155674,-1.8457103156881463
1773064877420160512,1.4978375434875488,-0.7757357358932495,0.16552895307540894,0.1324353963136673,0.7684949040412903,-0.6370706558227539,-0.05963711440563202,0.4565264582633972,-0.0910024642944336,-0.10021394491195679,0.6028223415332107,0.6582899448287489,0.19192652792379897,-0.40795069771493464,0.6906918935288249,1.4933490588474425,-1.8326490751501001
1773064877430198784,1.507875680923462,-0.2764487862586975,0.03135450929403305,0.13516765832901,0.7677140831947327,-0.6377750635147095,-0.06211454048752785,0.5672774910926819,0.013415932655334473,-0.22795504331588745,0.6046987486696536,0.6570697517005991,0.19287838260923135,-0.4066900495266172,0.691606121305393,1.4900637536201624,-1.8257825598128818
1773064877440236544,1.517913579940796,0.2464067041873932,-0.04783538356423378,0.157078817486763,0.7667867541313171,-0.6388727426528931,-0.062287405133247375,0.5615976452827454,0.08430731296539307,-0.18510335683822632,0.6050566156052282,0.6571402360939277,0.19241363818121132,-0.40626371426763613,0.6930320846255605,1.4897425784569747,-1.8254087451988588
1773064877450274816,1.527951717376709,0.35644012689590454,-0.04275580123066902,0.17625875771045685,0.7656828761100769,-0.640368640422821,-0.06048133596777916,0.49359458684921265,0.07434380054473877,-0.16991114616394043,0.6043003009865804,0.6582435652388847,0.19098361200046077,-0.4062781648397331,0.6949781096282428,1.4919699380220361,-1.829769526812036
1773064877460312576,1.537989616394043,0.021817129105329514,0.04589177668094635,0.15062344074249268,0.7646234035491943,-0.6417521238327026,-0.05920489504933357,0.40543580055236816,0.025144517421722412,-0.24122542142868042,0.6039865094171151,0.6589994336669689,0.1900455172431169,-0.4059590507267033,0.6967807560797741,1.4935203790954235,-1.832156399728706
1773064877470350592,1.548027515411377,-0.2660745680332184,0.09016229957342148,0.11566785722970963,0.7638102173805237,-0.6426917910575867,-0.05950936675071716,0.3144673705101013,0.05657118558883667,-0.19921869039535522,0.6046282783208311,0.6588693383104679,0.19009605810580166,-0.40519059397413376,0.698006633994522,1.4930422040197184,-1.8302839399317279
1773064877480388608,1.55806565284729,-0.3387852609157562,0.11766503006219864,0.13497258722782135,0.7631092667579651,-0.6434133052825928,-0.06069430336356163,0.27589237689971924,0.06664633750915527,-0.23036712408065796,0.605790596661573,0.6582579243927795,0.19065506428819945,-0.4041843897340803,0.6989487877087307,1.4914278683903712,-1.8261180883338555
1773064877490426624,1.568103551864624,-0.38787224888801575,0.10405907779932022,0.2642766535282135,0.7619102001190186,-0.644692063331604,-0.06216920167207718,0.34131550788879395,0.030098557472229004,-0.3225811719894409,0.6072704278631493,0.6575750977806152,0.1910769237867994,-0.402873732515145,0.700620404806096,1.489380203595795,-1.8211992664399643
1773064877500464640,1.578141689300537,-0.4985792934894562,0.08820314705371857,0.3693961501121521,0.7598752379417419,-0.6468677520751953,-0.06443324685096741,0.46186548471450806,0.010103285312652588,-0.3158310651779175,0.6093279391249936,0.6566804968977322,0.19119127065184544,-0.4011683589521975,0.7034699544517155,1.486204175231802,-1.8149268750057252
1773064877510502656,1.588179588317871,-0.4053920805454254,0.08686263859272003,0.32588446140289307,0.7576169967651367,-0.6492817997932434,-0.06670413911342621,0.5379456281661987,0.028478026390075684,-0.2217479944229126,0.6114706600801827,0.6558029412477356,0.19123397151744656,-0.399318960052853,0.7066397541553903,1.482978107858187,-1.8084714990493584
1773064877520540672,1.5982177257537842,-0.21843203902244568,-0.02041534334421158,0.17817704379558563,0.7559826970100403,-0.6509992480278015,-0.06848302483558655,0.5138383507728577,0.05271744728088379,-0.17422328889369965,0.612981613840883,0.6551514386765492,0.19114152158702025,-0.3981142291226273,0.7089000982422686,1.480454826837231,-1.8040230452460209
1773064877530578688,1.6082556247711182,-0.018151238560676575,-0.08712299913167953,0.041469793766736984,0.7552474737167358,-0.6517254114151001,-0.06967956572771072,0.4929519295692444,0.04611939191818237,-0.13375061750411987,0.6136296941289968,0.6547814487711482,0.19084410357145104,-0.3978672862093961,0.7098571456889541,1.4787961965928975,-1.802372225875513
1773064877540616448,1.6182935237884521,0.05252400040626526,-0.15383438766002655,-0.03893663361668587,0.7551928758621216,-0.6517072916030884,-0.07043781131505966,0.5204266309738159,-0.014827132225036621,-0.12763655185699463,0.6136542134504166,0.6546111183854466,0.190434705752436,-0.3983057538202507,0.7098331956325848,1.4777941060045752,-1.802708896298786
1773064877550654720,1.6283316612243652,0.11345530301332474,-0.1917608678340912,-0.10554615408182144,0.755553662776947,-0.6512083411216736,-0.07117728143930435,0.5406803488731384,-0.06494766473770142,-0.02847784012556076,0.6134000457440072,0.6544559620467306,0.18999671645106977,-0.39916028653935165,0.7091755874770628,1.4768680677019155,-1.8038711360677355
1773064877560692480,1.6383695602416992,0.1643030345439911,-0.21323925256729126,-0.17948108911514282,0.756316602230072,-0.6502445936203003,-0.0718819797039032,0.5301060080528259,-0.08252823352813721,0.10281158238649368,0.6128699989355748,0.6543212613341507,0.18953283468665091,-0.4004138778452384,0.7079063337007752,1.476038772598231,-1.8058485449963502
1773064877570730752,1.6484076976776123,0.20216667652130127,-0.24759231507778168,-0.27452144026756287,0.7576404213905334,-0.648648738861084,-0.07236072421073914,0.4732862114906311,-0.06462335586547852,0.16913199424743652,0.6120125189209746,0.6542281821629197,0.18922242043172074,-0.4020214010609632,0.7058076718085872,1.4755771495532217,-1.8085768929127877
1773064877580768512,1.6584455966949463,0.29245659708976746,-0.3260769844055176,-0.35329669713974,0.7594883441925049,-0.6464090943336487,-0.0730275809764862,0.39721953868865967,-0.010573387145996094,0.1593465805053711,0.6108753751687697,0.6540651248753896,0.18890479557835035,-0.40415988330725516,0.7028686221149023,1.4749373678179953,-1.8120483684194464
1773064877590807552,1.6684846878051758,0.3595254123210907,-0.4479638636112213,-0.38995444774627686,0.761629045009613,-0.6438015699386597,-0.07376139611005783,0.3603038787841797,0.012041926383972168,0.034378476440906525,0.6093555794428489,0.6539719776814902,0.18825502493241789,-0.40689856901408417,0.6994560372518381,1.4742505383073496,-1.8169944936644236
1773064877600845568,1.6785225868225098,0.13240386545658112,-0.5735726952552795,-0.39043542742729187,0.76376873254776,-0.640992283821106,-0.07606763392686844,0.363092839717865,-0.020750880241394043,-0.06358081102371216,0.6082071952786542,0.6533212741623017,0.18744998419984713,-0.4100217591136081,0.6957903295603388,1.4715285700182323,-1.8207947140974157
1773064877610883840,1.6885607242584229,0.033246349543333054,-0.6793929934501648,-0.4241168200969696,0.7658675909042358,-0.6379372477531433,-0.08051647245883942,0.3759170174598694,-0.023027777671813965,0.03838694095611572,0.6077564612140892,0.6518286372433892,0.18671151516011522,-0.4133888333406461,0.6918166574825328,1.4660500389141915,-1.8221620917063928
1773064877620921600,1.6985986232757568,0.13037928938865662,-0.7303088903427124,-0.4945182800292969,0.7682288885116577,-0.6344485282897949,-0.08543657511472702,0.3425804376602173,-0.03779268264770508,0.16189837455749512,0.6071993550119028,0.650167413678267,0.1859140880435603,-0.41716566347438977,0.6872948514509968,1.4600390585161067,-1.823808559965999
1773064877630959616,1.7086365222930908,0.16413788497447968,-0.7862703800201416,-0.5070434212684631,0.7707766890525818,-0.6306756734848022,-0.09028612077236176,0.2518826723098755,-0.06710875034332275,0.22904956340789795,0.6063400855336735,0.6485757342935425,0.18494987370418903,-0.42130131621115574,0.6824235758546856,1.4541911478725016,-1.8265106616392661
1773064877640997632,1.718674659729004,0.14639216661453247,-0.9428057074546814,-0.46404555439949036,0.7730463147163391,-0.6270421147346497,-0.09600924700498581,0.18242859840393066,-0.038912415504455566,0.3229837417602539,0.6056011020320279,0.646757062156132,0.18357744735620865,-0.4257370443485677,0.6777503135344183,1.4472330541342677,-1.8292443640752714
1773064877651035648,1.728712558746338,0.26691511273384094,-1.1414716243743896,-0.4146530032157898,0.7747925519943237,-0.6237488985061646,-0.1031205803155899,0.17357170581817627,0.023346126079559326,0.3499009609222412,0.6051043856979333,0.6445824914588821,0.18152994456447322,-0.4305914516540308,0.673529868992995,1.4384795211492791,-1.8319226311783539
1773064877661073664,1.738750696182251,0.08439590781927109,-1.2296006679534912,-0.34971556067466736,0.7758712768554688,-0.621014416217804,-0.11119771748781204,0.19780725240707397,0.033551037311553955,0.28775715827941895,0.6047688791658834,0.6422206984782977,0.1787560231970758,-0.43572180829357193,0.6700362353102318,1.4284458982791683,-1.834894263561943
1773064877671111680,1.748788595199585,-0.04352512210607529,-1.43537175655365,-0.3382072150707245,0.7763701677322388,-0.618407130241394,-0.12174635380506516,0.21641242504119873,0.03671157360076904,0.23310500383377075,0.6052312013995824,0.6389460319289679,0.17571224493295995,-0.44109914781336973,0.6667141336455739,1.415248270066375,-1.8355556705433498
1773064877681149440,1.758826494216919,0.19620411098003387,-1.6564223766326904,-0.4031340181827545,0.7766816020011902,-0.6156429648399353,-0.13322800397872925,0.21854251623153687,0.06379354000091553,0.43341416120529175,0.6054571811572546,0.6354580676249239,0.17198558203471773,-0.44725357050476117,0.663201631686219,1.4009147507123287,-1.8374985320211559
1773064877691187712,1.768864631652832,0.2525476813316345,-1.8306772708892822,-0.3737877309322357,0.7767049670219421,-0.6128754019737244,-0.1453046053647995,0.1771221160888672,-0.02761232852935791,0.4919080138206482,0.6052630098209146,0.6319190795297258,0.1674096023626909,-0.45421264055067945,0.6596943636438534,1.3858558322471013,-1.8414475579204754
1773064877701225472,1.778902530670166,0.4094158709049225,-1.9886517524719238,-0.2760036289691925,0.7757960557937622,-0.6108172535896301,-0.15824854373931885,0.12413668632507324,-0.0530925989151001,0.5486141443252563,0.6050850666713659,0.6282228125564389,0.16190066684400645,-0.46151517405466097,0.6570923669752308,1.3695747341332782,-1.8462126045935294
1773064877711263744,1.788940668106079,0.5166715383529663,-2.1266837120056152,-0.1724587380886078,0.7737554907798767,-0.6098672747612,-0.17135997116565704,0.09985589981079102,-0.023280799388885498,0.5860022902488708,0.6046769220650761,0.6246875387821494,0.15519500648246454,-0.4690903890792451,0.6558931417154197,1.3528488239386443,-1.8528291212078172
1773064877721301504,1.798978567123413,0.5983445644378662,-2.248603343963623,-0.10373000800609589,0.7707020044326782,-0.6097813248634338,-0.18489161133766174,0.07649630308151245,0.006616652011871338,0.47612082958221436,0.6042939221071906,0.6210749812361978,0.14771614491355703,-0.476733171961453,0.6557846238048521,1.3353456568880506,-1.859980451833891
1773064877731339776,1.8090167045593262,0.6254270672798157,-2.495159387588501,-0.045634616166353226,0.7666381001472473,-0.6103737950325012,-0.19927376508712769,0.07758504152297974,0.06119471788406372,0.4186646044254303,0.6038684644143582,0.617216072624388,0.13931058064634982,-0.48474722493542916,0.6565324188864952,1.3164919736790828,-1.8678712650248703
1773064877741377536,1.8190546035766602,0.42319726943969727,-2.6277103424072266,0.06964350491762161,0.7612274289131165,-0.6115660667419434,-0.21568453311920166,0.10476988554000854,0.03794240951538086,0.34054720401763916,0.6039676280064536,0.6125469459305111,0.13016902258817348,-0.49301663704333765,0.6580384503255852,1.2946951409769671,-1.8744296056122356
1773064877751415552,1.8290925025939941,0.15674550831317902,-2.7152884006500244,0.18172451853752136,0.7544185519218445,-0.6131704449653625,-0.2342534214258194,0.12384682893753052,0.0024374723434448242,0.3262791633605957,0.6050951138221377,0.6068278105170029,0.12096816102539601,-0.5009856670653926,0.6600678562351551,1.269726745244876,-1.8774377350444231
1773064877761454592,1.8391315937042236,-0.007129699923098087,-2.8233234882354736,0.2858940660953522,0.7461894154548645,-0.6151008605957031,-0.25466129183769226,0.10522055625915527,-0.036647796630859375,0.3726269602775574,0.6070845763353245,0.6001676966123073,0.11166061391943836,-0.5087032494504374,0.6625138941466397,1.2419087760956615,-1.8773854589959444
1773064877771492608,1.8491697311401367,-0.007085403427481651,-2.8927972316741943,0.4106655418872833,0.7364116311073303,-0.6176241040229797,-0.2761129140853882,0.0853351354598999,-0.06633579730987549,0.37283840775489807,0.6095725831685913,0.5929203455237994,0.10192645847197618,-0.5162147952893773,0.6657181291869013,1.2120750046716602,-1.8756522262705317
1773064877781530624,1.8592076301574707,0.13359394669532776,-2.979100465774536,0.4893726110458374,0.725140392780304,-0.6211185455322266,-0.2972929775714874,0.07396239042282104,-0.024801254272460938,0.4102538228034973,0.6120317156888745,0.5856527240239796,0.09145704759342986,-0.5235108918819487,0.6701691503425906,1.181716294889837,-1.8741390577822528
1773064877791568640,1.8692455291748047,0.4240928590297699,-3.1290132999420166,0.49566659331321716,0.7126136422157288,-0.6255379915237427,-0.3176223039627075,0.06883472204208374,0.060184597969055176,0.45643150806427,0.61386081421977,0.5786240365613988,0.07989408787061517,-0.5310234963758776,0.6758208746470368,1.151511823275343,-1.8748513503380069
1773064877801606656,1.8792836666107178,0.6886550188064575,-3.2420923709869385,0.470046728849411,0.6990870237350464,-0.6308026313781738,-0.33669793605804443,0.04165089130401611,0.12730836868286133,0.5227483510971069,0.6147122613213388,0.5719631487517355,0.06715052201652595,-0.5389599909983799,0.682587171869823,1.121956307742242,-1.8788092695254701
1773064877811644672,1.8893215656280518,0.9006625413894653,-3.3410794734954834,0.46846386790275574,0.684709370136261,-0.6368350982666016,-0.35442066192626953,0.02026188373565674,0.13836103677749634,0.529637336730957,0.6146806068826884,0.5656234353412006,0.05347706059615549,-0.5471544284384008,0.6903863322949718,1.0931506629500374,-1.8854515245452454
1773064877821682688,1.8993597030639648,0.7213223576545715,-3.4027042388916016,0.5114288926124573,0.6692571640014648,-0.6432117223739624,-0.3719859719276428,0.033013343811035156,0.07891124486923218,0.4997172951698303,0.6144541101960823,0.5589790436027621,0.03936290514238825,-0.5553730238530854,0.6986855058774498,1.0634963795174104,-1.8920810394327283
1773064877831720704,1.9093976020812988,0.3237007260322571,-3.321420907974243,0.5210771560668945,0.6529834866523743,-0.6486445069313049,-0.390989750623703,0.04927176237106323,0.011513829231262207,0.5083298087120056,0.6150249079617924,0.5512038222451545,0.026066716534650446,-0.563240047181858,0.7058021172810912,1.0312785515080474,-1.8945580991679125
1773064877841758464,1.9194355010986328,0.17763113975524902,-3.148669719696045,0.5094183683395386,0.6366143822669983,-0.6528645753860474,-0.41047540307044983,0.014844357967376709,-0.01945286989212036,0.5316454172134399,0.6161833705274633,0.5427393312431897,0.01401156614835962,-0.5705750170850221,0.7113600813998934,0.9981003918721647,-1.8935338205072725
1773064877851796736,1.929473638534546,0.3477848172187805,-3.02285099029541,0.5785661339759827,0.6201296448707581,-0.6573037505149841,-0.4282418489456177,-0.06475549936294556,-0.06068331003189087,0.4728280305862427,0.6171779105014639,0.5346715983055965,0.0023137954530673744,-0.5772455590337683,0.7172354407826231,0.9664284795137993,-1.892343901236648
1773064877861834496,1.9395115375518799,0.4612535834312439,-2.9552228450775146,0.7046282291412354,0.6027834415435791,-0.6630403399467468,-0.4438804090023041,-0.08818072080612183,-0.07255536317825317,0.3915122151374817,0.617904593167,0.5272216610438654,-0.009854887799149153,-0.5832102724688919,0.7248729167228734,0.93606619613613,-1.8918017989368419
1773064877871872768,1.949549674987793,0.5322360992431641,-2.903601884841919,0.7524868845939636,0.5845975875854492,-0.6696848273277283,-0.45800429582595825,-0.02858257293701172,-0.01950889825820923,0.35242873430252075,0.6185307915635928,0.5200950542176737,-0.022337981450922945,-0.5885760996227242,0.7337842979328718,0.9062272249974962,-1.891122541350292
1773064877881910528,1.959587574005127,0.5358430743217468,-2.8996975421905518,0.6776720285415649,0.5662148594856262,-0.6763654947280884,-0.47109508514404297,0.03322666883468628,0.04655897617340088,0.39649486541748047,0.6188530622447352,0.5130700804912649,-0.034807386652120305,-0.5937748301495845,0.7428169751612116,0.8768409715162964,-1.89068156289407
1773064877891948800,1.96962571144104,0.6361963152885437,-2.9150679111480713,0.5679847598075867,0.5480587482452393,-0.6825879812240601,-0.4834308326244354,0.04447060823440552,0.07344186305999756,0.45709413290023804,0.6186382309576156,0.5060257281995775,-0.047143928345147655,-0.599167950419181,0.7512980913689173,0.8479712929482559,-1.8911454559368728
1773064877901986560,1.979663610458374,0.7381951212882996,-2.848278522491455,0.552708625793457,0.5300694704055786,-0.688995897769928,-0.4942784011363983,0.027669787406921387,0.06108146905899048,0.4627689719200134,0.6177813002562706,0.4993074251832475,-0.05960618944093996,-0.6045540689221479,0.7601027376645646,0.8203243287418653,-1.8931229907157985
1773064877912024576,1.989701509475708,0.7381178140640259,-2.697547674179077,0.5685200095176697,0.5122676491737366,-0.6956316232681274,-0.5036649703979492,0.008728444576263428,0.04061764478683472,0.4181852340698242,0.6167386609320817,0.4929554548958679,-0.07184998192321893,-0.6094800025082532,0.7692987444043383,0.7938657086009279,-1.895136771575449
1773064877922063616,1.9997406005859375,0.8169886469841003,-2.5346102714538574,0.5331628322601318,0.4950750768184662,-0.7023676037788391,-0.5114493370056152,-0.033344119787216187,0.05609685182571411,0.42445898056030273,0.6155100082843692,0.48710891414631335,-0.08366748964919957,-0.6138990698496327,0.7787182266625227,0.769131487853119,-1.8972876830681449
1773064877932101376,2.0097784996032715,0.8122165203094482,-2.4084155559539795,0.5180773735046387,0.4786666929721832,-0.7091953754425049,-0.5176101326942444,-0.10259848833084106,0.03710669279098511,0.3205123543739319,0.6139910361865034,0.48182023361350956,-0.09510092471512277,-0.6179160658812666,0.7883562783155111,0.746329062232148,-1.9000283030510405
1773064877942140416,2.019817352294922,0.6711832284927368,-2.2999589443206787,0.5364648699760437,0.4626123011112213,-0.7155879139900208,-0.5233774185180664,-0.12064757943153381,-0.011523902416229248,0.2247171401977539,0.6126489030482163,0.4765400128686178,-0.10592878700976628,-0.6215706949627645,0.7974653657191475,0.7238474634202086,-1.9015977845879901
1773064877952178176,2.029855251312256,0.5380431413650513,-2.239323616027832,0.5043767690658569,0.4468281865119934,-0.7211554050445557,-0.5294142365455627,-0.06375628709793091,-0.038610219955444336,0.29976946115493774,0.6115987809332201,0.4709880148356913,-0.11603088977447336,-0.6250232258365418,0.8054686544082459,0.7010032629518277,-1.901527471908493
1773064877962216448,2.039893388748169,0.5797519683837891,-2.149366617202759,0.42080405354499817,0.43177303671836853,-0.7261354327201843,-0.5350694060325623,-0.008814722299575806,-0.047973453998565674,0.3647814393043518,0.6104458937051515,0.46551249311382314,-0.1255524019262932,-0.6284030550223053,0.8126843323934524,0.6789630176217417,-1.901393342208036
1773064877972254208,2.049931287765503,0.6456635594367981,-2.0716028213500977,0.36803364753723145,0.417534738779068,-0.731112003326416,-0.5395739078521729,0.009772390127182007,-0.045163631439208984,0.35573601722717285,0.608866906709005,0.46046133426068314,-0.13486443835253933,-0.6317183123997836,0.8199504243936764,0.6585743625743149,-1.9025081551595158
1773064877982292480,2.059969425201416,0.6847693920135498,-1.9744340181350708,0.33948323130607605,0.403926283121109,-0.7361788749694824,-0.5430324673652649,-0.010585218667984009,-0.002804279327392578,0.3017756938934326,0.6070221345812258,0.4557981435866801,-0.14398553219598753,-0.6348545979947295,0.8274069098745055,0.6395435237368821,-1.9043540312133982
1773064877992330240,2.07000732421875,0.6389617919921875,-1.8603265285491943,0.3273760974407196,0.39101046323776245,-0.7411701679229736,-0.5456899404525757,-0.03923439979553223,0.03235369920730591,0.30034393072128296,0.6051273008927256,0.4514819637233826,-0.15270577184475026,-0.6377035914734288,0.8348117695334807,0.6217427617673852,-1.90626214706079
1773064878002368256,2.080045223236084,0.49744775891304016,-1.7296720743179321,0.33873316645622253,0.37869760394096375,-0.7455629706382751,-0.5483830571174622,-0.07567328214645386,0.010623395442962646,0.29487359523773193,0.6034828845469965,0.44718858160311614,-0.16071972729735506,-0.6403124135930833,0.8413792107122914,0.6043698736190872,-1.9071501326181128
1773064878012406272,2.090083360671997,0.3185523450374603,-1.6247963905334473,0.38260194659233093,0.3667631149291992,-0.7491761445999146,-0.5515613555908203,-0.10243508219718933,-0.033965885639190674,0.3139209747314453,0.602337180973001,0.442746795406792,-0.1679124411152615,-0.6426279380708886,0.8468174353122522,0.5868161816487731,-1.9061538747181095
1773064878022444288,2.100121259689331,0.18056412041187286,-1.5557081699371338,0.3969361484050751,0.35501763224601746,-0.7519403100013733,-0.5554711222648621,-0.11331844329833984,-0.05245727300643921,0.31914299726486206,0.601697648473558,0.43802578039474843,-0.1743498212366179,-0.6447444611507736,0.8510004772565688,0.5686949653245176,-1.9032101573703826
1773064878032482304,2.110159397125244,0.12835653126239777,-1.5444921255111694,0.37196195125579834,0.3434748649597168,-0.7541223764419556,-0.559753954410553,-0.1122889518737793,-0.024396300315856934,0.3032689690589905,0.6012388218114681,0.433130762448192,-0.18033515481145193,-0.6468299013778348,0.854316781471327,0.5503723034657066,-1.8994643831540114
1773064878042520320,2.120197296142578,0.13169293105602264,-1.6107152700424194,0.3271329402923584,0.3319690525531769,-0.7560474872589111,-0.5640823245048523,-0.10195806622505188,0.017232179641723633,0.309733510017395,0.6006392098424475,0.4280965252351977,-0.1862584572437163,-0.6490560931983593,0.8572530464342191,0.531929412991397,-1.8959379987017713
1773064878052558336,2.130235433578491,0.03316215053200722,-1.6334969997406006,0.3030616044998169,0.3204113245010376,-0.7575581669807434,-0.5687199234962463,-0.07581290602684021,0.04147845506668091,0.32592207193374634,0.5999393025807342,0.42278548589241105,-0.19207412258909093,-0.6514851798662962,0.8595641831640386,0.5130655608422422,-1.8924462208695365
1773064878062596352,2.140273332595825,-0.07288013398647308,-1.6654958724975586,0.30167993903160095,0.3086026906967163,-0.7583803534507751,-0.5741285085678101,-0.052575498819351196,0.049182355403900146,0.31744515895843506,0.5993478824958806,0.41698666746234847,-0.19763060315062533,-0.6540996490709391,0.8608246975140391,0.4932072988003402,-1.8882278364877472
1773064878072634112,2.150311231613159,-0.0930350199341774,-1.6479482650756836,0.3288995921611786,0.2966494858264923,-0.7588552832603455,-0.5797739624977112,-0.06485319137573242,0.04083770513534546,0.3228312134742737,0.5988667584164903,0.4109833253113,-0.2029919430226677,-0.6566929803921451,0.8615535953273966,0.4729352289540379,-1.8834313699999692
1773064878082672384,2.1603493690490723,-0.2011287361383438,-1.6327078342437744,0.3635917901992798,0.284434974193573,-0.759022057056427,-0.5856468081474304,-0.095958411693573,0.009525656700134277,0.2802574038505554,0.5986122466214366,0.404785599046682,-0.2081471001806574,-0.6591560697642534,0.8618097695810105,0.45212338714108924,-1.8776742940947893
1773064878092710144,2.1703872680664062,-0.22328796982765198,-1.6358901262283325,0.3379075825214386,0.27210649847984314,-0.7586904168128967,-0.5919011235237122,-0.09461623430252075,0.005211353302001953,0.34814202785491943,0.5985022069015494,0.3983349806786367,-0.21302269845240765,-0.6616235389374416,0.8613004640476473,0.43090440053096035,-1.8713039076499576
1773064878102749440,2.1804263591766357,-0.18110083043575287,-1.7117327451705933,0.30266332626342773,0.25973859429359436,-0.7583457827568054,-0.5978692173957825,-0.10766950249671936,0.034224629402160645,0.39666682481765747,0.5981392272092049,0.3918438217675881,-0.21799956965166092,-0.6642018577482021,0.8607716027317625,0.4098395854960788,-1.8656229350203162
1773064878112787200,2.1904642581939697,-0.20978610217571259,-1.8026432991027832,0.3099161684513092,0.24686084687709808,-0.7579852342605591,-0.603753387928009,-0.10701404511928558,0.05467718839645386,0.35421115159988403,0.5975663770581939,0.38508695118306524,-0.223229346325633,-0.6669267086992903,0.8602187339690607,0.3881354112558246,-1.8602328729158537
1773064878122825472,2.200502395629883,-0.352373868227005,-1.8646291494369507,0.33968043327331543,0.23322948813438416,-0.7570652961730957,-0.6102917790412903,-0.05583083629608154,0.05761772394180298,0.3347333073616028,0.5971016095409879,0.37773229900062666,-0.22841284376774754,-0.6697876357570709,0.8588095388676409,0.3650336677993317,-1.8540474326454264
1773064878132863232,2.210540294647217,-0.48676103353500366,-1.918527603149414,0.3647497296333313,0.21891778707504272,-0.7552725672721863,-0.6177688837051392,-0.008224427700042725,0.03398960828781128,0.35983431339263916,0.5968772967499483,0.36969852125304037,-0.2333207402084437,-0.6727718245440765,0.8560698631270788,0.3405612133398974,-1.8467841900365995
1773064878142901504,2.22057843208313,-0.5206145644187927,-1.9351550340652466,0.38831284642219543,0.20407634973526,-0.7528991103172302,-0.6256963014602661,0.0035194754600524902,0.013748109340667725,0.3875523805618286,0.5967910379352892,0.36122098392947194,-0.2380572637464347,-0.6757874678122756,0.8524561010263537,0.3152796328021787,-1.8388939314307031
1773064878152939264,2.230616331100464,-0.5076360702514648,-1.948636770248413,0.4350731372833252,0.18872930109500885,-0.7504513263702393,-0.6334067583084106,-0.010445579886436462,0.04448819160461426,0.33999550342559814,0.5967666586362503,0.35259213169659076,-0.24284850510791164,-0.6786553565585282,0.8487446964385141,0.28958333056464874,-1.8306043766122073
1773064878162977280,2.240654230117798,-0.4080311357975006,-1.9228060245513916,0.45459383726119995,0.17303834855556488,-0.7483267784118652,-0.6403630375862122,-0.03558717668056488,0.12059545516967773,0.2743656635284424,0.5967176915047622,0.34408432076406714,-0.2478396082997245,-0.6812558345225378,0.8455359952026095,0.26391607399546124,-1.8221914897344864
1773064878173015296,2.250692367553711,-0.3417494595050812,-1.9319343566894531,0.39844709634780884,0.1573699414730072,-0.7466642260551453,-0.6463181972503662,-0.06654965877532959,0.16335123777389526,0.2126481533050537,0.5963982723203647,0.33584377325819775,-0.2530807573435394,-0.6837164075591767,0.8430331776105405,0.2388392577359594,-1.8145097928732719
1773064878183053312,2.260730266571045,-0.2655564248561859,-1.9330954551696777,0.2761286497116089,0.14231210947036743,-0.7451949715614319,-0.6514843106269836,-0.09641368687152863,0.14204555749893188,0.14832574129104614,0.5955780144456612,0.3278824382374321,-0.25836206419666224,-0.6863155683765129,0.8408271498437517,0.21506459554341195,-1.8085748245583986
1773064878193091328,2.270768404006958,-0.25706225633621216,-1.9380306005477905,0.19875742495059967,0.12792953848838806,-0.7438795566558838,-0.6559551954269409,-0.10569749772548676,0.06770163774490356,0.1610059142112732,0.5942366891409908,0.32017587331626907,-0.26364710983089396,-0.6891011228642273,0.8388567260947055,0.1926101063105697,-1.804463713836037
1773064878203129344,2.280806303024292,-0.36356741189956665,-1.8630448579788208,0.19020815193653107,0.11399975419044495,-0.7420490384101868,-0.6605810523033142,-0.08784616738557816,-0.018403232097625732,0.2151007056236267,0.592820005781086,0.3124138716206637,-0.26852754935009926,-0.6919935435762254,0.8361219118057883,0.17089173345648082,-1.8009360851462581
1773064878213167360,2.290844440460205,-0.3982819616794586,-1.757325530052185,0.1960761547088623,0.10056905448436737,-0.739689826965332,-0.66539067029953,-0.06152182072401047,-0.05074596405029297,0.2564246654510498,0.5916027039742536,0.3047180611887588,-0.27285812674863297,-0.6947672554782778,0.8326093464516114,0.15000746951237234,-1.7972757597139264
1773064878223205376,2.300882339477539,-0.4068134129047394,-1.6548506021499634,0.2056795060634613,0.08780103176832199,-0.7372146248817444,-0.6699294447898865,-0.07087904959917068,-0.03738248348236084,0.19115447998046875,0.5905509763164444,0.29736929234790155,-0.2767793019287147,-0.697290564567419,0.8289386011884188,0.13031735857246843,-1.7935825389546527
1773064878233243136,2.310920238494873,-0.477456271648407,-1.4864954948425293,0.19849468767642975,0.07582077383995056,-0.734318733215332,-0.6745570302009583,-0.10563644021749496,0.012791633605957031,0.11594808101654053,0.589702493242017,0.2902729597832171,-0.28011263252650265,-0.6996638758731468,0.8246625428379625,0.11193103227112326,-1.7899518463797033
1773064878243281408,2.320958375930786,-0.34957101941108704,-1.403812289237976,0.10471600294113159,0.06505545228719711,-0.7316579818725586,-0.6785606145858765,-0.12892872095108032,0.0812673568725586,0.11119306087493896,0.5887529177801365,0.28383098099019727,-0.2831248403464064,-0.7018906126545329,0.8207510001521816,0.09558058938448075,-1.7872799759802132
1773064878253319168,2.33099627494812,-0.26753902435302734,-1.3244949579238892,0.024971377104520798,0.055618010461330414,-0.7296443581581116,-0.6815613508224487,-0.17614716291427612,0.11248737573623657,0.10207831859588623,0.5873942922750313,0.2781636043687106,-0.28608449222969673,-0.7040942789480102,0.8178016973428284,0.08142340188413286,-1.7863273443844248
1773064878263358464,2.3410353660583496,-0.15811742842197418,-1.2610679864883423,0.004033870995044708,0.04702659323811531,-0.7282848954200745,-0.683659017086029,-0.19412130117416382,0.11776548624038696,-0.023814678192138672,0.5858001553616972,0.27311816126951216,-0.28909679637194063,-0.7061641176609029,0.8158158044556291,0.06867843781089239,-1.7862758284817162
1773064878273396224,2.3510732650756836,-0.13764841854572296,-1.155456781387329,0.031542327255010605,0.038867346942424774,-0.7273294925689697,-0.6851869821548462,-0.17196974158287048,0.07655739784240723,-0.04831826686859131,0.584230265159602,0.2684841761397623,-0.29210057824946006,-0.7080032566556614,0.814422639742966,0.05666443985076379,-1.786224116087788
1773064878283434496,2.3611114025115967,-0.1293010115623474,-1.0190818309783936,0.07911251485347748,0.03119499795138836,-0.7265015840530396,-0.6864563226699829,-0.13135367631912231,-0.0009916424751281738,-0.024008095264434814,0.5829412990429097,0.2642469816455085,-0.2948649821870024,-0.7095122652424326,0.8132170891365307,0.04541228349381649,-1.7855928487269892
1773064878293472256,2.3711493015289307,-0.24113714694976807,-0.8942034244537354,0.13089221715927124,0.024074751883745193,-0.7253163456916809,-0.6879947185516357,-0.1141473650932312,-0.06067913770675659,-0.028008699417114258,0.5820904896859309,0.2602560490617394,-0.2971017257715747,-0.7107518360575003,0.8114937965353536,0.034978368191198525,-1.7842071470057372
1773064878303510528,2.3811874389648438,-0.2847176194190979,-0.820335865020752,0.14812473952770233,0.017355386167764664,-0.7235316634178162,-0.6900729537010193,-0.12422796338796616,-0.03782081604003906,-0.04842191934585571,0.5816351170804892,0.25631198548316114,-0.29877698902266403,-0.7118546633486732,0.8089049271721973,0.02514477395426301,-1.782230005694573
1773064878313548288,2.3912253379821777,-0.18784666061401367,-0.8011453747749329,0.11843954026699066,0.010980290360748768,-0.7218925952911377,-0.6919179558753967,-0.14470833539962769,0.02661067247390747,-0.007361769676208496,0.581178432209092,0.2525985519661825,-0.30039140373887,-0.7128748324264117,0.8065333886199655,0.015868021661587225,-1.780408965737352
1773064878323586304,2.4012632369995117,-0.07428574562072754,-0.7939010262489319,0.11934635043144226,0.004787168465554714,-0.7210485339164734,-0.6928679943084717,-0.16804096102714539,0.057749032974243164,0.013699352741241455,0.5805081089466504,0.24927604945761317,-0.3023697527407145,-0.7137536000500826,0.8053144198313573,0.006909097738330387,-1.7789180313232964
1773064878333624320,2.411301374435425,-0.05570411682128906,-0.7854400277137756,0.1928665190935135,-0.0016565625555813313,-0.7206789255142212,-0.6932669878005981,-0.15798088908195496,0.04987204074859619,-0.025681376457214355,0.5799037463587478,0.24611653578903725,-0.30461968984608195,-0.7143844174955206,0.8047811259432495,-0.002389497077947784,-1.7768426334407001
1773064878343662336,2.421339273452759,-0.13632839918136597,-0.7671302556991577,0.2563019394874573,-0.008557993918657303,-0.7200405597686768,-0.693879246711731,-0.1224539652466774,0.026635408401489258,-0.03935134410858154,0.5796181002300937,0.2427746784015308,-0.3067912009621198,-0.7148304643175691,0.8038608085171393,-0.012332924389545157,-1.7737103514294041
1773064878353700352,2.431377410888672,-0.2064247876405716,-0.7333298921585083,0.27212604880332947,-0.015583755448460579,-0.718845546245575,-0.6949951648712158,-0.10494539886713028,-0.012477695941925049,0.00661015510559082,0.5796002307548632,0.2392319344342213,-0.3086592114468671,-0.715235082914844,0.802140233999049,-0.022419069508401786,-1.7700292484081055
1773064878363738368,2.441415309906006,-0.1998172253370285,-0.7058063745498657,0.29015856981277466,-0.022473130375146866,-0.7173629403114319,-0.6963372230529785,-0.12747496366500854,-0.04472208023071289,0.018099308013916016,0.5797131616109892,0.23567401576646332,-0.31030494477526455,-0.71561259930478,0.8000097931157553,-0.032262147764389654,-1.76622083773242
1773064878373776128,2.45145320892334,-0.2248508334159851,-0.7175402045249939,0.34250113368034363,-0.029648926109075546,-0.7158515453338623,-0.6976227760314941,-0.16279493272304535,-0.040435075759887695,-0.005074977874755859,0.5799652503820549,0.23205662847842431,-0.3119909357802075,-0.7158573295933466,0.797842900718027,-0.04247437985945605,-1.7618651258982034
1773064878383814400,2.461491346359253,-0.27536940574645996,-0.6997790932655334,0.40011197328567505,-0.037159647792577744,-0.7139780521392822,-0.6991812586784363,-0.17577674984931946,-0.0043599605560302734,-0.028250932693481445,0.5804681666206158,0.22824844463576413,-0.3135474562126518,-0.7159938934646103,0.795163426232734,-0.05309741784937613,-1.75680736288082
1773064878393852160,2.471529245376587,-0.287342369556427,-0.7041075229644775,0.43962767720222473,-0.045013997703790665,-0.7118521928787231,-0.7008853554725647,-0.18186891078948975,0.028334736824035645,-0.028011679649353027,0.5811697568328495,0.22428082578880826,-0.3150482945012717,-0.7160199357810273,0.7921319004731451,-0.06413639137174829,-1.7511365969161348
1773064878403890432,2.4815673828125,-0.32081538438796997,-0.7040004134178162,0.48543909192085266,-0.053176041692495346,-0.7095165848731995,-0.7026796340942383,-0.17572101950645447,0.023893356323242188,-0.032260000705718994,0.5820338591094388,0.2201773490333132,-0.31651559400586055,-0.7159445469357221,0.788811954997123,-0.0755321131601601,-1.7449565574519632
1773064878413928192,2.491605281829834,-0.3830502927303314,-0.6833009123802185,0.5143667459487915,-0.06158899515867233,-0.7067220211029053,-0.7048055529594421,-0.16385960578918457,0.009441137313842773,-0.03648173809051514,0.583112726796332,0.21586778762247852,-0.3178023434890427,-0.7158089425526106,0.7848541873072182,-0.08716297267667399,-1.7383124026275194
1773064878423966464,2.501643419265747,-0.4077894687652588,-0.6777162551879883,0.5300946235656738,-0.07004645466804504,-0.7036172747612,-0.7071182131767273,-0.15729424357414246,0.009540796279907227,-0.01178431510925293,0.5842993999203049,0.2114642854127406,-0.3189416155217395,-0.7156488174362021,0.7804753747950194,-0.09873693235663224,-1.7315555646292804
1773064878434004224,2.511681318283081,-0.4271877706050873,-0.6495161652565002,0.5883684158325195,-0.07865381240844727,-0.7002270221710205,-0.709574282169342,-0.15927648544311523,0.007859528064727783,0.0015054941177368164,0.5856655565923731,0.20697007502621,-0.3199628883700607,-0.7153900724307886,0.7757154603630398,-0.11039581172690296,-1.724412884670069
1773064878444043520,2.5217204093933105,-0.4784376621246338,-0.6050366163253784,0.6465023159980774,-0.08742742240428925,-0.6966096758842468,-0.7121034860610962,-0.15662164986133575,0.008285701274871826,-0.02449929714202881,0.5873331368979919,0.2024641344034615,-0.3208684144908511,-0.7149065767056574,0.7706610619177751,-0.12216213304928142,-1.7165008943939317
1773064878454081280,2.5317583084106445,-0.5635266304016113,-0.6328070759773254,0.6699379682540894,-0.0963020920753479,-0.6924607157707214,-0.7149993777275085,-0.1645316481590271,0.009599387645721436,-0.036846935749053955,0.5892070190142612,0.19778821419006876,-0.32152781591816276,-0.7143772457709594,0.7648942649697438,-0.13388265288747928,-1.708327369701489
1773064878464119296,2.5417962074279785,-0.6407572627067566,-0.5798149704933167,0.7431509494781494,-0.10551641136407852,-0.6873719096183777,-0.7186000943183899,-0.20330621302127838,0.01775527000427246,0.022799372673034668,0.5913492163976773,0.19268716532315375,-0.32182543262242497,-0.7138670203357143,0.7578644251480445,-0.1457942069529826,-1.6998451399153895
1773064878474157312,2.5518343448638916,-0.6636908054351807,-0.5996530055999756,0.7839898467063904,-0.11506889015436172,-0.6817591190338135,-0.7224705815315247,-0.20350410044193268,0.030483484268188477,-0.11726641654968262,0.5937671106963993,0.187368782726542,-0.3219590971192451,-0.7132152763657269,0.7501645283635894,-0.15794475755230042,-1.6907791110332573
1773064878484195328,2.5618722438812256,-0.6035110950469971,-0.5867566466331482,0.7953926920890808,-0.12479446083307266,-0.676230788230896,-0.7260428667068481,-0.16179612278938293,0.024085402488708496,-0.09385764598846436,0.5961860123672831,0.18206363309050455,-0.32222878694870216,-0.7124490555741563,0.7426341034701495,-0.17021974263875306,-1.6816008695057338
1773064878494233344,2.5719103813171387,-0.5690496563911438,-0.5969019532203674,0.8380547165870667,-0.13456439971923828,-0.6709733605384827,-0.7291688323020935,-0.15565775334835052,0.0024095773696899414,-0.095980703830719,0.5986725118159361,0.17693825454960724,-0.32265840803758394,-0.7114601622208842,0.7355207124584083,-0.18249171096333708,-1.6720715878363923
1773064878504271360,2.5819482803344727,-0.6081365942955017,-0.6212627291679382,0.8446931838989258,-0.14467555284500122,-0.6655104160308838,-0.7322327494621277,-0.14676731824874878,-0.002794027328491211,-0.07208847999572754,0.6012137875476757,0.17164987604770732,-0.32314073052045633,-0.7103931016568913,0.7281774838850033,-0.19506886840240456,-1.6623565797884945
1773064878514309376,2.5919864177703857,-0.7026901841163635,-0.6170916557312012,0.8376342058181763,-0.15484648942947388,-0.6594038009643555,-0.7356691956520081,-0.14186064898967743,-0.006352365016937256,-0.04722875356674194,0.6037614031517485,0.1660847162855952,-0.3233902814191693,-0.7094411170715769,0.720025453298507,-0.2074555681519913,-1.6530686495547897
1773064878524347392,2.6020243167877197,-0.7762070298194885,-0.6120119094848633,0.855958878993988,-0.16495062410831451,-0.6525670289993286,-0.7395590543746948,-0.14857171475887299,-0.04457652568817139,-0.018299221992492676,0.6063751603419721,0.1602816276099778,-0.32331142956680514,-0.7085822058018661,0.7109673234003339,-0.21944729780168848,-1.6441835591505252
1773064878534385152,2.6120622158050537,-0.8788012266159058,-0.5927445292472839,0.9079839587211609,-0.1751851588487625,-0.6449152231216431,-0.7439048886299133,-0.1421976536512375,-0.08511090278625488,0.00397568941116333,0.6091832608039854,0.1541895855108393,-0.3229135175835845,-0.7077062339544978,0.7009123827358031,-0.23128008789851928,-1.6352764929068953
1773064878544423424,2.622100353240967,-0.9409583806991577,-0.5856046080589294,0.9512549638748169,-0.18558505177497864,-0.6363868713378906,-0.7487121820449829,-0.12148281931877136,-0.0819968581199646,-0.0008300542831420898,0.6122267110721952,0.14779201379691922,-0.3221823018002779,-0.7067775882830662,0.6898051561107876,-0.24297518222206307,-1.6262509013591007
1773064878554461184,2.632138252258301,-0.9351502060890198,-0.5889565944671631,0.9824658036231995,-0.1961640566587448,-0.6273938417434692,-0.7535891532897949,-0.1012755036354065,-0.06216609477996826,-0.020351886749267578,0.6154038159995925,0.14122989327321606,-0.3213402128965723,-0.7057426741594656,0.6782018718314593,-0.2546550081351844,-1.6170914190050012
1773064878564499456,2.642176389694214,-0.8742368221282959,-0.6188896894454956,1.0088468790054321,-0.20696143805980682,-0.618508517742157,-0.7580330967903137,-0.08168908953666687,-0.04683572053909302,-0.05356663465499878,0.6185854063024493,0.13468968907597176,-0.32069010287967625,-0.7045342737061264,0.666843150095874,-0.26652846335723995,-1.6077359096602621
1773064878574537216,2.652214288711548,-0.845426619052887,-0.646127462387085,1.014488935470581,-0.2180211991071701,-0.6098223924636841,-0.7619602680206299,-0.0689355731010437,-0.04184997081756592,-0.07914996147155762,0.6217021016740435,0.12816348649459575,-0.32030296242579726,-0.7031833069509409,0.6558364946916132,-0.27868578864726706,-1.598287780851375
1773064878584575488,2.662252426147461,-0.8998962640762329,-0.6683281064033508,1.0265687704086304,-0.22925794124603271,-0.6008511781692505,-0.7657797336578369,-0.06395494937896729,-0.04584681987762451,-0.07026457786560059,0.6247930446128475,0.12148424938449527,-0.31992454671166104,-0.7018001007055096,0.6445655167204555,-0.2908864672783164,-1.5890164038787735
1773064878594613248,2.672290325164795,-0.9287660717964172,-0.6969001889228821,1.0280689001083374,-0.2406623214483261,-0.5913473963737488,-0.769668698310852,-0.06719900667667389,-0.04192286729812622,-0.06440722942352295,0.627869537741206,0.11455243179619971,-0.31944232595354294,-0.700438576522482,0.6327286930564339,-0.3030515953444711,-1.58006327660967
1773064878604651264,2.682328224182129,-0.9493666887283325,-0.7183200120925903,1.054505467414856,-0.25227484107017517,-0.5815108418464661,-0.7734355330467224,-0.07865777611732483,-0.05560457706451416,-0.04135328531265259,0.6309047765542597,0.10743226334711879,-0.31896795183645665,-0.6990542617652887,0.6205846169993116,-0.3152937164140894,-1.5713336144417251
1773064878614689280,2.692366361618042,-0.9594882726669312,-0.7286869287490845,1.0748631954193115,-0.26409634947776794,-0.5713322758674622,-0.7770665884017944,-0.08899205923080444,-0.07228338718414307,-0.033892273902893066,0.6339705663700768,0.1001539262492206,-0.31849003359774597,-0.6975775932205017,0.6081282787394187,-0.327615888755219,-1.5626212239619823
1773064878624728320,2.7024052143096924,-1.0042409896850586,-0.747857391834259,1.0866292715072632,-0.27602797746658325,-0.5607751607894897,-0.7806021571159363,-0.08684128522872925,-0.07028251886367798,-0.014823198318481445,0.6370311239055969,0.09272180089935132,-0.31796474512167616,-0.6960548258893591,0.5953216949535788,-0.33988634911125115,-1.5541032471310394
1773064878634766336,2.7124433517456055,-1.0319825410842896,-0.7883731126785278,1.1028152704238892,-0.28814834356307983,-0.5496411323547363,-0.7841333746910095,-0.09025436639785767,-0.05361509323120117,-0.0019689202308654785,0.6400891320662048,0.08502483386139038,-0.3173390710931715,-0.6945160571005995,0.5819345690843551,-0.3521559551521352,-1.5458518834539097
1773064878644804352,2.7224812507629395,-1.0068353414535522,-0.8464516401290894,1.1104316711425781,-0.3006351590156555,-0.538333535194397,-0.7872835993766785,-0.08437460660934448,-0.030727744102478027,-0.009393036365509033,0.6430602494716483,0.07713926770296298,-0.3168717802010454,-0.6929034787408769,0.568458373443109,-0.3647746770843536,-1.5377209311423947
1773064878654842368,2.7325193881988525,-1.0000793933868408,-0.893485426902771,1.1118990182876587,-0.3135211169719696,-0.5269664525985718,-0.7899435758590698,-0.062333375215530396,-0.04430735111236572,-0.036701321601867676,0.6459060351958456,0.06908630117399371,-0.31663117745299274,-0.6912142239132717,0.5550272560484114,-0.37782291800814183,-1.5297204938504518
1773064878664880384,2.7425572872161865,-1.0428012609481812,-0.9695293307304382,1.120179295539856,-0.3268028199672699,-0.5152894258499146,-0.7922605276107788,-0.043299078941345215,-0.05828845500946045,-0.03949606418609619,0.6486291896894326,0.060761905024279146,-0.31650866093833696,-0.6895001015095356,0.5413452960173094,-0.3912305848409694,-1.5220086992259017
1773064878674918400,2.7525954246520996,-1.075840711593628,-1.002526044845581,1.0983493328094482,-0.34046077728271484,-0.503023087978363,-0.7943892478942871,-0.027123451232910156,-0.06548887491226196,-0.01412820816040039,0.651172838056765,0.05202960657086495,-0.3163831658993906,-0.6878725203197141,0.527093087973091,-0.4049005600763308,-1.5149416066044101
1773064878684956416,2.7626333236694336,-1.0617328882217407,-1.074192762374878,1.0952770709991455,-0.3542436361312866,-0.4906603693962097,-0.7960928082466125,-0.02228221297264099,-0.0749066174030304,-0.0009804964065551758,0.6535362206970381,0.04318553610723993,-0.31636781481400184,-0.6862483040056849,0.512847468382986,-0.41866963544505453,-1.5083278653244114
1773064878694994176,2.7726712226867676,-1.04499089717865,-1.1234502792358398,1.1128439903259277,-0.368435263633728,-0.47826087474823,-0.7971963286399841,-0.02687421441078186,-0.07685384154319763,-0.02168184518814087,0.655782237905328,0.034186063050243784,-0.3165962098757923,-0.6845054407884157,0.49867336150619723,-0.43292315062295933,-1.5017754615892642
1773064878705032448,2.7827093601226807,-1.078456997871399,-1.1313740015029907,1.1378690004348755,-0.38280147314071655,-0.46552029252052307,-0.7979685664176941,-0.00530579686164856,-0.06058746576309204,-0.008839845657348633,0.6580072640080641,0.02502625830416795,-0.31684285973561693,-0.6826497045955963,0.4842223925260303,-0.44729236669825895,-1.4953311160431288
1773064878715070208,2.7927472591400146,-1.0762438774108887,-1.1549270153045654,1.14927077293396,-0.39722347259521484,-0.4523749351501465,-0.7984800934791565,0.0056982338428497314,-0.03599783778190613,0.011874258518218994,0.660226287998914,0.015726095982271492,-0.31703731146698005,-0.680691775881168,0.46942655445010306,-0.4616251833177413,-1.4890496518072922
1773064878725108480,2.8027853965759277,-1.0291632413864136,-1.1770298480987549,1.1279587745666504,-0.41164013743400574,-0.4393094778060913,-0.7984732985496521,0.01430124044418335,-0.01940023899078369,0.0184592604637146,0.6623270325518296,0.006454844418107818,-0.3173668112287559,-0.6786453592982218,0.4548298442540346,-0.4759974502772506,-1.4829683446694015
1773064878735146240,2.8128232955932617,-1.0001909732818604,-1.188063144683838,1.105491042137146,-0.4259583652019501,-0.42650485038757324,-0.797905445098877,0.021310508251190186,-0.029015779495239258,-0.0017924308776855469,0.6642582162214057,-0.002709173509877596,-0.3178678026000283,-0.6765454647504406,0.4406250080983797,-0.490356112116209,-1.4771724205214058
1773064878745184512,2.822861433029175,-0.9716787934303284,-1.2040133476257324,1.0628961324691772,-0.44010886549949646,-0.41390398144721985,-0.7968611121177673,0.03491172194480896,-0.05182477831840515,-0.02094888687133789,0.6659953462309656,-0.011783122742867752,-0.31848169237477003,-0.6744484958289132,0.4267384870741098,-0.5046096977340322,-1.4718115867833697
1773064878755222272,2.832899332046509,-0.9743595719337463,-1.1775259971618652,0.989984929561615,-0.4538368880748749,-0.4015151262283325,-0.7954983711242676,0.05073019862174988,-0.08792579174041748,-0.03509855270385742,0.6674779647296128,-0.02071365468225407,-0.3190952355084554,-0.6724746992275143,0.41317058478354146,-0.5184506570514203,-1.4672130255040639
1773064878765260288,2.8429372310638428,-0.9803479313850403,-1.1675277948379517,0.9101854562759399,-0.46696949005126953,-0.38938450813293457,-0.7939264178276062,0.04875659942626953,-0.12761378288269043,-0.05228018760681152,0.6686731578049044,-0.02944701436146553,-0.31963988295589846,-0.6707006624602175,0.3999632644160616,-0.5316809578016627,-1.4635562194137317
1773064878775298304,2.852975368499756,-1.0767011642456055,-1.120682954788208,0.9119710922241211,-0.47955989837646484,-0.37690943479537964,-0.7924402356147766,0.046805381774902344,-0.13816618919372559,-0.06597340106964111,0.6697167373459583,-0.03818963396810496,-0.31987721739820246,-0.6691034760079465,0.3864573876189427,-0.5442112203300388,-1.4607941189704192
1773064878785336320,2.86301326751709,-1.0730009078979492,-1.0729382038116455,0.9660710096359253,-0.49172234535217285,-0.36374738812446594,-0.7911365032196045,0.05979183316230774,-0.10416337847709656,-0.07652401924133301,0.6708594366462199,-0.04700169641897422,-0.31972266512843645,-0.6674697951482036,0.37228771216269185,-0.5561067804181231,-1.458320910053368
1773064878795375360,2.8730523586273193,-1.0157238245010376,-1.046613097190857,1.0259627103805542,-0.5037140846252441,-0.35050034523010254,-0.7895705103874207,0.07677316665649414,-0.06571364402770996,-0.09023600816726685,0.6722189999609565,-0.05566420309001936,-0.3195563182066072,-0.6655124285973254,0.3581052729063793,-0.5678643536244836,-1.4552352895600282
1773064878805413120,2.8830902576446533,-1.0025361776351929,-1.005127191543579,1.0870420932769775,-0.5154869556427002,-0.3371018171310425,-0.7878042459487915,0.09390193223953247,-0.03544148802757263,-0.08951503038406372,0.6737940119767463,-0.06419088499390721,-0.3193390248118355,-0.6632523007948414,0.34383683004131366,-0.5794158078025261,-1.4516023123838615
1773064878815451392,2.8931283950805664,-0.9591078162193298,-1.0026607513427734,1.1363641023635864,-0.5270674228668213,-0.32353654503822327,-0.7858269810676575,0.09443497657775879,-0.0022538602352142334,-0.08078068494796753,0.6755489274774547,-0.07261494889017596,-0.3190824113637889,-0.6607171712061832,0.32946468861438316,-0.590801390442431,-1.4475104145079012
1773064878825489408,2.9031662940979004,-0.9640147089958191,-0.993639349937439,1.183390736579895,-0.538617730140686,-0.3097792863845825,-0.7835354804992676,0.09193193912506104,-0.0019425153732299805,-0.10376310348510742,0.6774335884207894,-0.08102419225657294,-0.3188531842349533,-0.657914567519288,0.31496089594584026,-0.6022328162502639,-1.4430131113984097
1773064878835527424,2.9132044315338135,-0.9902048707008362,-0.9728597402572632,1.1872549057006836,-0.5499470829963684,-0.2955895662307739,-0.7811434268951416,0.09236651659011841,-0.032688021659851074,-0.1276395320892334,0.6793508065374848,-0.08950349705920572,-0.31846102118215724,-0.6550222590355007,0.3000726061521103,-0.6134244132967067,-1.4386545865488831
1773064878845565440,2.9232423305511475,-1.033705234527588,-0.9734392762184143,1.1969830989837646,-0.5610154867172241,-0.28104153275489807,-0.7786380648612976,0.0955767035484314,-0.07346588373184204,-0.10078692436218262,0.6812309912679082,-0.09804573164735567,-0.3179119295214329,-0.6521068806590288,0.28487920972503994,-0.6243579959162721,-1.4346168281050264
1773064878855603200,2.9332802295684814,-1.1383761167526245,-0.9507244825363159,1.2220842838287354,-0.5718697905540466,-0.26568207144737244,-0.7761300802230835,0.1148996353149414,-0.09186184406280518,-0.09207969903945923,0.6830833760594852,-0.10684777053970831,-0.317046526696903,-0.6492011676624029,0.26891135971959956,-0.6350137717509705,-1.4310951144872404
1773064878865641472,2.9433183670043945,-1.1637730598449707,-0.98187655210495,1.235461711883545,-0.582516074180603,-0.24957288801670074,-0.7735556960105896,0.14255940914154053,-0.07658372819423676,-0.07739639282226562,0.6849091290752649,-0.1158878225931638,-0.31589895922798894,-0.6462796705944475,0.25223916844541494,-0.645441932958474,-1.4280240348998652
1773064878875679232,2.9533562660217285,-1.0702288150787354,-1.0164875984191895,1.2700746059417725,-0.5932945013046265,-0.23342512547969818,-0.7703988552093506,0.15790021419525146,-0.05934527516365051,-0.09938263893127441,0.6867019825877557,-0.12499042287048674,-0.31492533005404877,-0.6431484299227788,0.23559863075877996,-0.6562499041837904,-1.424783773242673
1773064878885717504,2.9633944034576416,-0.9857136607170105,-1.0545507669448853,1.2908493280410767,-0.6041833758354187,-0.2179034799337387,-0.7664728164672852,0.1778680682182312,-0.06252256035804749,-0.15010738372802734,0.6885371456906796,-0.13384394525680304,-0.3144032508059409,-0.6396507155561475,0.21966580682379375,-0.6675441502607893,-1.4207773299464248
1773064878895755264,2.9734323024749756,-1.0729503631591797,-1.0313565731048584,1.314496636390686,-0.6149581074714661,-0.20205548405647278,-0.7622336745262146,0.19584494829177856,-0.09156940877437592,-0.11655056476593018,0.6903518163240701,-0.1427966383800747,-0.31383482521222705,-0.6360277663549029,0.20345624579688998,-0.678864041491433,-1.4168713169285834
1773064878905793536,2.9834704399108887,-1.1254700422286987,-1.0521435737609863,1.324959397315979,-0.6254453659057617,-0.18537601828575134,-0.7579273581504822,0.1887083649635315,-0.08265987038612366,-0.07347828149795532,0.6921066513137921,-0.15202148622827477,-0.3129309852665469,-0.6324176799600416,0.18645449250280927,-0.6899219791414806,-1.413560503682544
1773064878915831296,2.9935083389282227,-1.1437723636627197,-1.0810612440109253,1.3186525106430054,-0.6358936429023743,-0.16842812299728394,-0.7531741857528687,0.17086678743362427,-0.06594687700271606,-0.07479822635650635,0.6937207818458946,-0.16141129930983011,-0.31202452321797325,-0.6287596704025441,0.16923479705181652,-0.7011668114269238,-1.410618401785874
1773064878925869312,3.0035462379455566,-1.1609814167022705,-1.1010853052139282,1.3194831609725952,-0.6462160348892212,-0.1512475311756134,-0.7480167150497437,0.1661134958267212,-0.0751165896654129,-0.07662928104400635,0.6952025952456089,-0.17092341135745517,-0.31108974454010796,-0.625061311611222,0.15183019915564172,-0.7125119353833407,-1.4080477044422994
1773064878935907328,3.0135843753814697,-1.217028260231018,-1.127434492111206,1.3318140506744385,-0.6564589142799377,-0.13371659815311432,-0.7424160242080688,0.18181902170181274,-0.09527206420898438,-0.08934056758880615,0.6965626606970242,-0.1806188628160152,-0.31011095666016797,-0.6212958550028861,0.13411831161992935,-0.7240280083916266,-1.4058379769888616
1773064878945945344,3.0236222743988037,-1.2982845306396484,-1.1352250576019287,1.3318358659744263,-0.66651850938797,-0.11551882326602936,-0.7364839315414429,0.20226985216140747,-0.12042783945798874,-0.10015547275543213,0.6977786468515148,-0.19060964531220753,-0.30891100524159726,-0.6175330377019568,0.1157773027284325,-0.7355711050992124,-1.404276364563477
1773064878955983104,3.0336601734161377,-1.380810260772705,-1.1527546644210815,1.3016599416732788,-0.6763456463813782,-0.09677767008543015,-0.7301990389823914,0.20150744915008545,-0.13234829902648926,-0.09124261140823364,0.6987671235636275,-0.20087657627207986,-0.30748835664901963,-0.6138599368351445,0.09692938048820283,-0.7471291647311717,-1.4035878834134303
1773064878966021376,3.043698310852051,-1.48372220993042,-1.1502001285552979,1.2566983699798584,-0.6858536005020142,-0.0775957927107811,-0.7235909104347229,0.18181002140045166,-0.1206463873386383,-0.0855826735496521,0.6994454414264197,-0.21139683338897858,-0.3058037476520484,-0.6103863981675437,0.07767387376772432,-0.7586299561466442,-1.4040445232733114
1773064878976059136,3.0537362098693848,-1.5059351921081543,-1.1743700504302979,1.2442755699157715,-0.6950703263282776,-0.05809726193547249,-0.7165905237197876,0.1596851944923401,-0.09551297873258591,-0.0768970251083374,0.699852885432258,-0.2221135662706853,-0.3039248253930855,-0.6070430451814431,0.05812999480693129,-0.7701547441309741,-1.4054371339549807
1773064878986098176,3.0637753009796143,-1.5170427560806274,-1.1786071062088013,1.248466968536377,-0.7040769457817078,-0.038619089871644974,-0.7090728282928467,0.15062540769577026,-0.07315153628587723,-0.11087346076965332,0.7001295387855583,-0.23284869085756923,-0.3020679954898408,-0.603618374204965,0.03862869768770735,-0.7818629000760752,-1.4070918603455864
1773064878996136192,3.0738131999969482,-1.5845855474472046,-1.166808009147644,1.2465442419052124,-0.7127472758293152,-0.018745848909020424,-0.7011704444885254,0.15213936567306519,-0.06937365978956223,-0.1365065574645996,0.7002728385224,-0.24373913270578468,-0.3000100228202493,-0.6001693441449518,0.018746946705038434,-0.7935857332506363,-1.4092908896446321
1773064879006174208,3.0838510990142822,-1.5718889236450195,-1.1572906970977783,1.2339383363723755,-0.7209692001342773,0.0012086880160495639,-0.6929660439491272,0.13927364349365234,-0.06889665871858597,-0.11590242385864258,0.7002799152527232,-0.25462590375743827,-0.29779629525363016,-0.5967336234002454,-0.0012086882993787508,-0.8052007063828771,-1.4119801584404794
1773064879016212224,3.0938892364501953,-1.615537405014038,-1.1408700942993164,1.2523196935653687,-0.7288079261779785,0.021200701594352722,-0.6843898892402649,0.11532837152481079,-0.07759717851877213,-0.1261569857597351,0.700205931551519,-0.2654885335088116,-0.2955011114801167,-0.5932170411203973,-0.021202290343891234,-0.8168186949331568,-1.4149120920712746
1773064879026250240,3.1039271354675293,-1.7999509572982788,-1.068798303604126,1.2509417533874512,-0.7359663844108582,0.042075008153915405,-0.6757093667984009,0.10959309339523315,-0.07861979305744171,-0.12595689296722412,0.699971001690956,-0.27662538087552174,-0.29261531859226264,-0.5898264021910539,-0.042087432882653916,-0.8280570237164517,-1.4189126187233045
1773064879036288256,3.1139652729034424,-1.8041009902954102,-1.064328670501709,1.244850516319275,-0.7424354553222656,0.06356838345527649,-0.6668947339057922,0.08975601196289062,-0.043365731835365295,-0.04787266254425049,0.6995313578265224,-0.28795042637375734,-0.2892009235915376,-0.5866031053515585,-0.0636112765052459,-0.8389473482480431,-1.424011278602707
1773064879046326272,3.1240031719207764,-1.7960593700408936,-1.050870656967163,1.2341134548187256,-0.7485743761062622,0.08473731577396393,-0.6576139330863953,0.06459915637969971,-0.03641273081302643,-0.058313190937042236,0.699001337173423,-0.2991363676978723,-0.28585043410493066,-0.5832702779803934,-0.08483905494605401,-0.8499939934996168,-1.4291895086912947
1773064879056364288,3.1340413093566895,-1.8836843967437744,-1.0175131559371948,1.1904934644699097,-0.7541959285736084,0.10594381392002106,-0.6480466723442078,0.0608060359954834,-0.04460347443819046,-0.07601338624954224,0.6982492285237702,-0.3103402468061867,-0.28225094568938014,-0.5800615897236157,-0.10614300622648992,-0.8609536974846579,-1.4351852312041744
1773064879066402304,3.1440792083740234,-1.840631127357483,-1.0265886783599854,1.171474814414978,-0.7594444155693054,0.12698189914226532,-0.6380594372749329,0.050139546394348145,-0.03082101047039032,-0.008684277534484863,0.6972711377489005,-0.3215288782279105,-0.27854883325023877,-0.576925269052988,-0.12732564364697496,-0.8720391078529838,-1.4418454688998423
1773064879076440064,3.1541171073913574,-1.8583120107650757,-1.029355525970459,1.138136863708496,-0.7643839120864868,0.14754705131053925,-0.6276521682739258,0.047876954078674316,-0.055460259318351746,-0.04097270965576172,0.6961652410293048,-0.33255039518344504,-0.27492572368216434,-0.5737422520461416,-0.1480877109990232,-0.8833083623943006,-1.4487000621129977
1773064879086478336,3.1641552448272705,-1.915969729423523,-1.0092971324920654,1.0876226425170898,-0.7689645290374756,0.16785521805286407,-0.6168616414070129,0.04070836305618286,-0.08902834355831146,-0.048528432846069336,0.6947724702364176,-0.3435576051094493,-0.2711777386972826,-0.5707207345882346,-0.16865361083647915,-0.8947167461921938,-1.4564361550898375
1773064879096516096,3.1741931438446045,-2.1189959049224854,-0.9877971410751343,1.0711232423782349,-0.773163378238678,0.1885567605495453,-0.6055284142494202,0.035675644874572754,-0.11285792291164398,-0.02684152126312256,0.6929677926055969,-0.3548843506844835,-0.26700726968731125,-0.5679435052200568,-0.18969233826609275,-0.9063941006936073,-1.4657273366555355
1773064879106554368,3.1842312812805176,-2.1635901927948,-0.997168779373169,1.0540673732757568,-0.7769864201545715,0.20980574190616608,-0.5935264229774475,0.02401101589202881,-0.10885357856750488,0.016271114349365234,0.6907787641327239,-0.3665933318102119,-0.2623854583941277,-0.565321016582709,-0.21137628290549845,-0.9184694113535409,-1.4765185433810253
1773064879116592128,3.1942691802978516,-2.1252670288085938,-1.02469003200531,1.0137213468551636,-0.7806810140609741,0.23049943149089813,-0.5808675289154053,-0.0037274956703186035,-0.08941666781902313,0.04275113344192505,0.6883911203952074,-0.37821485216370715,-0.25791426707024084,-0.5626289279264085,-0.2325909089492701,-0.9311126198286949,-1.4876600761885546
1773064879126630144,3.2043070793151855,-2.18100905418396,-1.0240932703018188,0.9728729724884033,-0.7841785550117493,0.25072428584098816,-0.5676277875900269,-0.021592259407043457,-0.08243513107299805,0.07565397024154663,0.6857269823150772,-0.3898011262010185,-0.2534584414938512,-0.5599932070603109,-0.2534283698543329,-0.9442422042069046,-1.4995364323068319
1773064879136668160,3.2143452167510986,-2.177161931991577,-1.0403436422348022,0.9308638572692871,-0.7874924540519714,0.27056053280830383,-0.5537622570991516,-0.021559059619903564,-0.06561973690986633,0.11894774436950684,0.6827496351598115,-0.4014135178464901,-0.24897002351060618,-0.5574352428841959,-0.2739752347644962,-0.9579280407304746,-1.5123168573638692
1773064879146706176,3.2243831157684326,-2.0430920124053955,-1.0347270965576172,0.8574039936065674,-0.7906574606895447,0.28927505016326904,-0.5396116375923157,-0.007865488529205322,-0.07476702332496643,0.10996997356414795,0.6796468604101377,-0.4126499903847642,-0.24477368610046227,-0.5548747670095319,-0.29346942921230335,-0.9719225484495272,-1.5251621698014863
1773064879156744192,3.2344212532043457,-1.9201245307922363,-1.0403887033462524,0.8012169003486633,-0.7937572598457336,0.306377649307251,-0.525435209274292,-0.010762393474578857,-0.10737255215644836,0.08837771415710449,0.6765310501046907,-0.4232612039911255,-0.2411065196283978,-0.5522891504701354,-0.3113853554769309,-0.9860595654651392,-1.5375377930746004
1773064879166782208,3.2444591522216797,-2.0028746128082275,-1.0059220790863037,0.8026922941207886,-0.7965847849845886,0.3228617310523987,-0.5110899209976196,-0.0227358341217041,-0.12965497374534607,0.0664336085319519,0.6733242550959071,-0.4336472845052348,-0.2374975080744285,-0.5497083966628943,-0.32875158304031915,-1.0003478702461168,-1.5501477000351758
1773064879176821248,3.254498243331909,-2.249319553375244,-0.9714913964271545,0.8242761492729187,-0.7988649606704712,0.34013497829437256,-0.496107816696167,-0.02854287624359131,-0.11320629715919495,0.137984037399292,0.6697189026767868,-0.44449247377325923,-0.23317917693219825,-0.5472938231483295,-0.34706042897685785,-1.0150671383793866,-1.5646372410589053
1773064879186859008,3.264536142349243,-2.303572654724121,-0.9518188834190369,0.778148889541626,-0.8007267713546753,0.35784202814102173,-0.48040175437927246,-0.05382645130157471,-0.07222804427146912,0.25908827781677246,0.6656406017611095,-0.4557293869020249,-0.22827582130275617,-0.5450904464939172,-0.3659558655123483,-1.0304083402290127,-1.5811048415110336
1773064879196897280,3.2745742797851562,-2.270054578781128,-0.9421262145042419,0.7181873917579651,-0.8025199174880981,0.37468498945236206,-0.4642983376979828,-0.08543479442596436,-0.09477776288986206,0.21771633625030518,0.6613067195941141,-0.4667972893659459,-0.22349746113723598,-0.542975711150671,-0.38405698222198736,-1.046297802470893,-1.5982436643806006
1773064879206935040,3.2846121788024902,-2.2196033000946045,-0.968264102935791,0.6871809959411621,-0.8041675090789795,0.39064455032348633,-0.448008269071579,-0.09010428190231323,-0.1349378228187561,0.12638351321220398,0.656818595637036,-0.4776023653114865,-0.21884206186523114,-0.5409190371302816,-0.4013316797601294,-1.0625121879340371,-1.6157794268900596
1773064879216973056,3.294650077819824,-2.0631461143493652,-0.9440500736236572,0.7157929539680481,-0.8056500554084778,0.40571340918540955,-0.43165311217308044,-0.056318819522857666,-0.14474239945411682,0.12786591053009033,0.6524552728312997,-0.48801065345511463,-0.214520502478353,-0.5386357785179112,-0.417759233931894,-1.078934238369805,-1.6327240753444132
1773064879227011328,3.3046882152557373,-1.95221745967865,-0.9085807800292969,0.7552540898323059,-0.8065333366394043,0.4201650619506836,-0.4158909022808075,-0.03614848852157593,-0.13593962788581848,0.1397678554058075,0.6485195300444127,-0.49780755498795387,-0.2103382643062634,-0.5360669573853164,-0.4336272033247693,-1.094705283036691,-1.6484107047935002
1773064879237049088,3.3147261142730713,-1.9231003522872925,-0.8731869459152222,0.7393282651901245,-0.8069443106651306,0.4341870844364166,-0.4004027545452118,-0.06056356430053711,-0.07185184955596924,0.2116515040397644,0.6447109044969734,-0.5072645933021958,-0.20610982971932099,-0.5334315045031158,-0.44913565681657047,-1.1101963597050564,-1.6638824865989834
1773064879247087360,3.3247642517089844,-1.7444519996643066,-0.8879653811454773,0.6750392913818359,-0.8072620034217834,0.4471672773361206,-0.3851875364780426,-0.07600826025009155,0.029379934072494507,0.2875770330429077,0.640982316134064,-0.5162557017851737,-0.202203578909201,-0.5307875368663005,-0.46359581809502737,-1.1255927708616333,-1.678906270034684
1773064879257125120,3.3348021507263184,-1.6015843152999878,-0.8612536787986755,0.6266366839408875,-0.8076143860816956,0.45872363448143005,-0.37058258056640625,-0.06796538829803467,0.05301034450531006,0.23950961232185364,0.6374646350609123,-0.524559623942289,-0.1988615360786212,-0.5281382623480407,-0.4765582663216988,-1.1405982505453545,-1.6928504631054926
1773064879267163392,3.3448402881622314,-1.5758947134017944,-0.7799034714698792,0.6610074639320374,-0.8076251745223999,0.4696376919746399,-0.35662591457366943,-0.0650402307510376,-0.004565060138702393,0.25529229640960693,0.6341633313496843,-0.5323749895443662,-0.1956116516223845,-0.5254996236142007,-0.4888803565569147,-1.154971911278092,-1.7061640234206272
1773064879277201152,3.3548781871795654,-1.6704683303833008,-0.6972513198852539,0.6655238270759583,-0.8070428371429443,0.4807339012622833,-0.3428947925567627,-0.051950693130493164,-0.06854826211929321,0.2897331714630127,0.6308358085841925,-0.5401169309153161,-0.19190179708172495,-0.522966204534546,-0.5014914697900251,-1.1690289675939876,-1.7201073240784635
1773064879287239168,3.3649160861968994,-1.6990400552749634,-0.6439849138259888,0.6189128756523132,-0.8061718940734863,0.4916364848613739,-0.3292118310928345,-0.04209470748901367,-0.0820905864238739,0.345157265663147,0.6272660466463018,-0.5478223757704724,-0.18784231009343533,-0.5207140938142183,-0.5139680349585063,-1.1831001960136422,-1.7351840440397275
