time,seconds_elapsed,rotationRateX,rotationRateY,rotationRateZ,gravityX,gravityY,gravityZ,accelerationX,accelerationY,accelerationZ,quaternionW,quaternionX,quaternionY,quaternionZ,pitch,roll,yaw
1772660700537583360,0.09900331497192383,-0.03223045915365219,0.03735940903425217,-0.006350950337946415,-0.025690674781799316,0.22418706119060516,-0.9742074608802795,0.030344609171152115,-0.01599612832069397,0.008768618106842041,-0.32268693877520704,0.048871732730434575,-0.10250769400783907,0.9396685674983963,-0.22610877861375867,-0.02636473508629857,-2.4830112231778516
1772660700547621376,0.10904121398925781,-0.027033831924200058,0.04016238451004028,-0.004796196706593037,-0.02533864416182041,0.22446230053901672,-0.9741532802581787,0.02628468908369541,-0.01778198778629303,0.01796126365661621,-0.3226358218398137,0.04874473615867899,-0.10270007684792042,0.9396716380236835,-0.22639121595066486,-0.02600507834238382,-2.483073347428343
1772660700557658112,0.11907815933227539,-0.018936490640044212,0.04147452488541603,-0.012089530006051064,-0.024948906153440475,0.22467371821403503,-0.9741145968437195,0.011902647092938423,-0.004794567823410034,0.019601047039031982,-0.32256651600840214,0.04858700866072119,-0.10286883090542064,0.9396852025911671,-0.22660818338011526,-0.025606280789012087,-2.4831717131056728
1772660700567695104,0.12911510467529297,-0.010407893918454647,0.04465540498495102,-0.017557797953486443,-0.02456144243478775,0.22480648756027222,-0.9740938544273376,0.0046792421489953995,0.002564728260040283,0.012774884700775146,-0.32246732450477295,0.04841383990303744,-0.10300090512848983,0.9397136856989785,-0.22674443136398065,-0.02520931695843532,-2.483335717695387
1772660700577733376,0.13915324211120605,-0.005164929199963808,0.04526234045624733,-0.018780188634991646,-0.02415577694773674,0.22486612200737,-0.9740902185440063,-0.00346263125538826,0.005633145570755005,0.011642098426818848,-0.32235102967354745,0.04821779196148163,-0.10310160699654969,0.9397526461001999,-0.22680564108072856,-0.024793214129841035,-2.483536022947283
1772660700587770112,0.14919018745422363,0.00396851496770978,0.048586100339889526,-0.015477736480534077,-0.023750245571136475,0.2248450666666031,-0.9741050601005554,-0.004234367981553078,0.004921779036521912,0.00942915678024292,-0.3222423877920598,0.048009063475711995,-0.10316302682606246,0.9397938556333628,-0.22678402988368782,-0.024376776682555293,-2.483722114536381
1772660700597807104,0.1592271327972412,-4.6200351789593697e-05,0.039682354778051376,-0.010494163259863853,-0.02334451675415039,0.22481536865234375,-0.9741216897964478,-0.0009932536631822586,0.004325851798057556,0.00842350721359253,-0.322164730393117,0.04780219290875732,-0.10321871203653459,0.9398248068050084,-0.2267535550645516,-0.023960095580414807,-2.4838422519826038
1772660700607845376,0.1692652702331543,-0.011688075959682465,0.03490930050611496,-0.021730704233050346,-0.02300831489264965,0.22487135231494904,-0.9741168022155762,0.005933733657002449,0.0016148537397384644,0.004588603973388672,-0.32207356170531154,0.04764134577699404,-0.10330494705723009,0.9398548547055058,-0.22681100043090374,-0.02361527791304655,-2.4839970240118245
1772660700617882368,0.17930221557617188,-0.04546148329973221,0.03799270838499069,-0.029892494902014732,-0.0227202195674181,0.2251414656639099,-0.974061131477356,0.006957901641726494,-0.007520616054534912,0.004029452800750732,-0.32192496970800594,0.0475330650912762,-0.10348929273729049,0.9398909455736153,-0.22708822075693594,-0.023321021557911777,-2.484273286924005
1772660700627920128,0.18934011459350586,-0.0471540130674839,0.03284881263971329,-0.02711721509695053,-0.022435270249843597,0.22560277581214905,-0.9739609956741333,-0.0010632574558258057,-0.01815955340862274,0.006477534770965576,-0.3217537814825468,0.047455834132492374,-0.10376627188271162,0.9399229055311763,-0.22756172287009296,-0.0230310075596737,-2.4845925901141763
1772660700637957376,0.19937729835510254,-0.01772475056350231,0.045544371008872986,-0.024303052574396133,-0.022103551775217056,0.225915789604187,-0.9738960266113281,-0.008398758247494698,-0.015512362122535706,0.0082436203956604,-0.3216108000379513,0.04733445010950206,-0.10397802836614266,0.9399545777550827,-0.22788302646514078,-0.02269211229809682,-2.484850557325455
1772660700647994368,0.20941424369812012,-0.010017297230660915,0.05253516882658005,-0.019000433385372162,-0.02168075181543827,0.22604043781757355,-0.9738765954971313,-0.00956924632191658,-0.005932420492172241,0.002166450023651123,-0.32148549907796437,0.047139958124127815,-0.1041129965967748,0.9399922358489425,-0.22801099120508403,-0.02225864230043555,-2.485065556468433
1772660700658032128,0.2194521427154541,-0.015557738021016121,0.05855630710721016,-0.013077029958367348,-0.021179303526878357,0.22616802155971527,-0.9738579988479614,-0.007553001865744591,0.0016914606094360352,-0.013614475727081299,-0.32138090738790925,0.04691073217104956,-0.10426106506781824,0.9400230016634953,-0.2281419662450956,-0.021744406731651882,-2.485227324279081
1772660700668069120,0.22948908805847168,-0.01726100593805313,0.06299632787704468,-0.001790020614862442,-0.020597010850906372,0.22635042667388916,-0.973828136920929,-0.009218661114573479,0.0010970830917358398,-0.014147937297821045,-0.321309540597856,0.04665580885759552,-0.10444694534716692,0.9400395397640742,-0.22832922629944877,-0.021147406528019833,-2.4853077517061153
1772660700678106368,0.23952627182006836,0.0023667567875236273,0.06782570481300354,0.009366760030388832,-0.019924936816096306,0.22640788555145264,-0.9738287925720215,-0.014086894690990448,-0.00012002885341644287,-0.014437198638916016,-0.3212958827665934,0.04634354801704671,-0.1045843644584424,0.9400444300279693,-0.22838820852920552,-0.020457556642587506,-2.485258520291743
1772660700688144128,0.24956417083740234,0.008146259933710098,0.079522043466568,0.01981167681515217,-0.019163107499480247,0.22636635601520538,-0.9738537073135376,-0.0167866013944149,0.0007454603910446167,-0.016029715538024902,-0.3213176850638109,0.04597588326218208,-0.10468697619371353,0.9400435129518646,-0.22834557524293778,-0.019675065086797335,-2.4851260959332455
1772660700698181120,0.2596011161804199,0.002654289361089468,0.08139530569314957,0.03396158665418625,-0.01831827685236931,0.22630739212036133,-0.9738836884498596,-0.018043410032987595,-0.003071308135986328,-0.02021116018295288,-0.32139968779492517,0.045572454011088184,-0.10479176604855868,0.9400235282204235,-0.22828504626166896,-0.018807293780222684,-2.484856868626786
1772660700708219392,0.269639253616333,-0.0005028881132602692,0.0836922898888588,0.03263852745294571,-0.017451025545597076,0.22630073130130768,-0.9739011526107788,-0.019673604518175125,-0.006055369973182678,-0.01885092258453369,-0.3215199633633306,0.04517142425451607,-0.10492362853247834,0.9399870531555513,-0.22827820666272702,-0.017916765160145048,-2.484501846787917
1772660700718256128,0.2796761989593506,-0.008972005918622017,0.08211596310138702,0.0443311370909214,-0.016566826030611992,0.226339191198349,-0.9739076495170593,-0.018360542133450508,-0.011892169713973999,-0.011077702045440674,-0.3216585175395311,0.044771988891513154,-0.10507922703031485,0.9399412915145321,-0.22831768886353587,-0.017009033327117427,-2.4841042796074246
1772660700728293120,0.28971314430236816,-0.033681925386190414,0.0828026533126831,0.047386180609464645,-0.015647217631340027,0.22656825184822083,-0.9738696217536926,-0.018151002004742622,-0.016286879777908325,-0.006782233715057373,-0.3218362839370061,0.04439211048107908,-0.10533063183303246,0.93987033047126,-0.22855286156339324,-0.01606567310456177,-2.4836131837161313
1772660700738331392,0.29975128173828125,-0.03712565824389458,0.07681214064359665,0.009280340746045113,-0.014807249419391155,0.22693084180355072,-0.9737982749938965,-0.01619860902428627,-0.013582468032836914,-0.00740283727645874,-0.3219308363810351,0.04406335404447194,-0.10563744112023173,0.9398189328841883,-0.22892514229345054,-0.015204491633258215,-2.4833035305825306
1772660700748368384,0.30978822708129883,-0.010314550250768661,0.08136028796434402,-0.034099094569683075,-0.014070427976548672,0.22716772556304932,-0.9737539887428284,-0.012769779190421104,-0.008432984352111816,-0.002839028835296631,-0.3218238827573075,0.043739999317437044,-0.1058764019330511,0.9398438385137284,-0.2291683763838848,-0.014448668800624174,-2.4834384383101713
1772660700758405120,0.3198251724243164,0.012147082015872002,0.09684470295906067,-0.03736785799264908,-0.01330074854195118,0.22711750864982605,-0.9737765192985535,-0.02116885408759117,-0.0001277625560760498,-0.003945648670196533,-0.3215884657278455,0.04333831348088779,-0.10598833047714123,0.9399304072994239,-0.22911682071838393,-0.013658083409219266,-2.4838519395585186
1772660700768443392,0.3298633098602295,0.023466939106583595,0.09785457700490952,-0.04005791246891022,-0.012447926215827465,0.22692462801933289,-0.9738327860832214,-0.03631916269659996,0.005817681550979614,-0.0064681172370910645,-0.3213617818433326,0.04287406780222545,-0.10604447312128662,0.940022864809135,-0.22891876930624322,-0.012781710503704063,-2.4842418292591932
1772660700778480384,0.33990025520324707,0.029491541907191277,0.09867855906486511,-0.022230979055166245,-0.011563072912395,0.22666442394256592,-0.9739042520523071,-0.037387121468782425,0.004063710570335388,-0.0033143162727355957,-0.32115709504975126,0.04238577684280512,-0.10607218424827547,0.9401118468932601,-0.2286515949548489,-0.011872346993638707,-2.484583557796622
1772660700788518144,0.34993815422058105,0.03404230624437332,0.08150982856750488,-0.0019993451423943043,-0.010698213241994381,0.22635498642921448,-0.9739861488342285,-0.022825350984930992,0.0071350038051605225,0.007753849029541016,-0.32106732511263425,0.04191177921678906,-0.1060676289587578,0.9401642524107217,-0.2283339098278627,-0.010983506729753676,-2.4846848207766428
1772660700798555136,0.35997509956359863,0.04359107092022896,0.06301657110452652,-0.02842748910188675,-0.010037994012236595,0.2259780317544937,-0.9740806818008423,-0.004961393773555756,0.008549541234970093,0.009984612464904785,-0.3209686654908749,0.04152303614947025,-0.10599763719047997,0.9402230891455177,-0.22794692955067003,-0.010304730669423372,-2.484831206679413
1772660700808592384,0.3700122833251953,0.032325632870197296,0.06724540889263153,-0.06403155624866486,-0.009498813189566135,0.22559447586536407,-0.974174976348877,0.006538613699376583,-0.0031060874462127686,0.008385241031646729,-0.3207172354110178,0.04117369793364353,-0.1059114336216559,0.940334019052482,-0.22755320070002164,-0.009750314287683788,-2.4853170084658336
1772660700818630144,0.3800501823425293,0.01664573885500431,0.07522743195295334,-0.06509256362915039,-0.008965584449470043,0.22535784542560577,-0.9742348194122314,-0.005545523948967457,-0.014832332730293274,0.011481523513793945,-0.32035332962851104,0.040839130143231164,-0.10589977247696247,0.9404739257248399,-0.2273103211541283,-0.009202434060971905,-2.486037472513233
1772660700828667136,0.3900871276855469,0.01002946961671114,0.077028788626194,-0.0587553009390831,-0.008373000659048557,0.22520892322063446,-0.9742745161056519,-0.02377726510167122,-0.01311175525188446,0.013504862785339355,-0.32002631893249534,0.040495070172192775,-0.1059381417625344,0.9405958288442554,-0.22715746456061944,-0.008593876580469504,-2.486669600352057
1772660700838704384,0.40012431144714355,-0.011168759316205978,0.06840360909700394,-0.04538729786872864,-0.0077683343552052975,0.22519220411777496,-0.9742833971977234,-0.010130226612091064,-0.004641667008399963,0.01610773801803589,-0.31973941038825315,0.04017177336449686,-0.106040247426752,0.9406956741083015,-0.2271403010026022,-0.007973213893236322,-2.4872101371565756
1772660700848742144,0.41016221046447754,-0.03454150632023811,0.05171078443527222,-0.02269916422665119,-0.007266826927661896,0.2254185527563095,-0.974234938621521,0.005206889007240534,-0.005478367209434509,0.017966628074645996,-0.31954837272096065,0.03994883433652421,-0.10623856864323103,0.9407477275676989,-0.22737262624448365,-0.0074588704548663445,-2.4875501994035707
1772660700858779136,0.4201991558074951,-0.06567145884037018,0.034913696348667145,-0.011758898384869099,-0.006890300195664167,0.22590218484401703,-0.9741256237030029,0.017800334841012955,-0.008494958281517029,0.02167201042175293,-0.3194363928668235,0.03983711611755354,-0.10653728377587315,0.9407567462818488,-0.22786906349977396,-0.007073199945816578,-2.4877272645679187
1772660700868817408,0.4302372932434082,-0.10405679792165756,0.01938680000603199,0.001235862961038947,-0.006614680867642164,0.22673481702804565,-0.9739340543746948,0.02057647705078125,-0.013920485973358154,0.020152926445007324,-0.3193871921004119,0.039838599794169025,-0.10698528487304457,0.9407225731354327,-0.22872387888491913,-0.006791608649043994,-2.487769683943464
1772660700878854400,0.4402742385864258,-0.12826919555664062,0.0016674583312124014,0.0006406465545296669,-0.006516516208648682,0.22791194915771484,-0.9736599326133728,0.01477152667939663,-0.020590782165527344,0.015545308589935303,-0.31937036276701175,0.03998566901768238,-0.10756939761200894,0.9406554023503131,-0.22993264859856585,-0.006692705022178386,-2.487750992135172
1772660700888891136,0.45031118392944336,-0.11998933553695679,0.0024160731118172407,0.005064955912530422,-0.006504029501229525,0.22914910316467285,-0.9733695983886719,0.009510009549558163,-0.01985955238342285,0.013545989990234375,-0.31934699991855847,0.040182882137917125,-0.10816900662075143,0.940586153148309,-0.23120343806830077,-0.006681873714829892,-2.4877537433961456
1772660700898929408,0.46034932136535645,-0.09151241928339005,0.009891565889120102,0.028500240296125412,-0.006415527313947678,0.23018521070480347,-0.973125696182251,0.0038825650699436665,-0.012839019298553467,0.0041468143463134766,-0.3193994254994772,0.04031920108154216,-0.10868080245552333,0.9405034961947751,-0.23226799793804104,-0.006592606223269616,-2.4875934414025553
1772660700908966400,0.470386266708374,-0.0534246489405632,0.013235031627118587,0.0031034047715365887,-0.006269483827054501,0.23089410364627838,-0.9729586839675903,0.002241161186248064,-0.006238952279090881,-0.004504084587097168,-0.3194714924924744,0.04037597198711162,-0.10904328201364076,0.9404346231444759,-0.23299651305379174,-0.006443641656715436,-2.4873964328184837
1772660700919003136,0.4804232120513916,-0.029081758111715317,0.027639005333185196,-0.03829303756356239,-0.006123773753643036,0.23128587007522583,-0.9728665351867676,-0.0019023492932319641,-0.002434566617012024,-0.0051302313804626465,-0.319364072997839,0.04035928592949865,-0.10926046288598748,0.9404466046669182,-0.233399187340492,-0.00629448408790194,-2.4875928237753353
1772660700929041152,0.4904611110687256,-0.01753699779510498,0.05026349052786827,-0.04143756255507469,-0.005843335762619972,0.23151518404483795,-0.9728137254714966,-0.01965409889817238,-0.0006802231073379517,-0.005976557731628418,-0.3191320241288292,0.0402367611181133,-0.10942638060577013,0.9405113446786693,-0.23363489293559733,-0.006006561606293354,-2.4880441881325948
1772660700939078400,0.5004982948303223,-0.031147083267569542,0.05060597136616707,-0.05413391813635826,-0.005473362281918526,0.23172785341739655,-0.9727652668952942,-0.023350486531853676,-0.005775704979896545,-0.0041939616203308105,-0.3188722610618272,0.04006546143130141,-0.10959985973006868,0.9405866028558827,-0.2338535030792508,-0.0056265420057436755,-2.488544321245722
1772660700949115392,0.5105352401733398,-0.06769967824220657,0.054372482001781464,-0.022618602961301804,-0.005045014899224043,0.2321883589029312,-0.9726577401161194,-0.012166891247034073,-0.018015995621681213,0.0038772225379943848,-0.31863091806022753,0.039909568129914134,-0.1099015265692712,0.9406398885507182,-0.23432693152169579,-0.005186787972961696,-2.4889887356067586
1772660700959153152,0.5205731391906738,-0.08234147727489471,0.035256046801805496,0.07221442461013794,-0.004578266758471727,0.23293663561344147,-0.9724811315536499,-0.0022118864580988884,-0.026134267449378967,0.014091849327087402,-0.3186884035716387,0.03981807090405283,-0.11033562970974169,0.9405734193516114,-0.2350962983141806,-0.004707785903498747,-2.48878153481589
1772660700969190400,0.5306103229522705,-0.09578493237495422,0.04837584123015404,0.05605996400117874,-0.003954438492655754,0.23379859328269958,-0.9722769856452942,0.030077485367655754,-0.02293740212917328,0.017107367515563965,-0.31900246106356395,0.039700879904818465,-0.11083923844548198,0.9404126330329733,-0.23598273513181678,-0.0040671706571911385,-2.48800467082
1772660700979228160,0.5406482219696045,-0.07853377610445023,0.03946943208575249,0.022245008498430252,-0.0034572267904877663,0.2346569150686264,-0.9720721244812012,0.024743231013417244,-0.021369561553001404,0.008449077606201172,-0.3191135225347113,0.039619799063950877,-0.1113293283417654,0.9403204567468142,-0.23686561545100082,-0.003556538917925145,-2.487674234789879
1772660700989265152,0.5506851673126221,-0.06654142588376999,0.056329503655433655,0.06317206472158432,-0.0028964884113520384,0.23533882200717926,-0.9719090461730957,-0.011797728016972542,-0.021807342767715454,0.0039373040199279785,-0.31927342828351496,0.039484975758038825,-0.11174256340490003,0.9402228258104234,-0.23756716943942935,-0.0029801962638963623,-2.487238522610848
1772660700999302144,0.5607221126556396,-0.06683410704135895,0.0601535364985466,0.08503022789955139,-0.0021637119352817535,0.23601704835891724,-0.9717465043067932,-0.0007201973348855972,-0.009164631366729736,-0.004861772060394287,-0.31958600363111483,0.03928587685581348,-0.1121756071160333,0.9400734548162336,-0.23826505732465708,-0.0022266181633793618,-2.4864565233499683
1772660701009340160,0.5707602500915527,-0.0434715710580349,0.06252441555261612,0.08652439713478088,-0.0013445368967950344,0.23655085265636444,-0.9716181755065918,0.001985404407605529,0.004461720585823059,-0.007248401641845703,-0.3199391275180775,0.0390266366617786,-0.11255146188349092,0.9399191959478104,-0.23881441435614206,-0.0013838110904847505,-2.485582544365569
1772660701019377152,0.5807971954345703,-0.0359092615544796,0.0683348998427391,0.08704237639904022,-0.00047533924225717783,0.23691454529762268,-0.9715303778648376,-0.008695192635059357,-0.0008763372898101807,-0.011532366275787354,-0.3203070054731149,0.03871717986249737,-0.11285296264187486,0.9397705170946016,-0.23918874139213672,-0.0004892684855718747,-2.484677259242426
1772660701029414400,0.590834379196167,-0.02339399978518486,0.06469383090734482,0.1134132668375969,0.0003814960946328938,0.2372027039527893,-0.9714601039886475,-0.014831569977104664,-0.010792791843414307,-0.009130716323852539,-0.3207332620931512,0.03840825458807655,-0.11311390189411186,0.939606422712365,-0.2394853614521078,0.00039270379954210467,-2.4836518177260203
1772660701039452672,0.6008725166320801,-0.008322639390826225,0.06945609301328659,0.14120176434516907,0.0013574464246630669,0.23733320832252502,-0.9714273810386658,-0.01512086670845747,-0.009321123361587524,-0.0005879998207092285,-0.3212922184387656,0.03803239852917533,-0.11331309603082583,0.9394067739963263,-0.23961969790485374,0.001397372114368767,-2.482335365807855
1772660701049489408,0.6109094619750977,0.013099873438477516,0.0775090903043747,0.16264832019805908,0.0024436740204691887,0.23729749023914337,-0.9714339375495911,-0.012972237542271614,-0.005211308598518372,0.0019972920417785645,-0.32196246184509325,0.037589813425565284,-0.11344614449746081,0.9391789891219514,-0.23958292848015736,0.0025155275036558822,-2.48077475082846
1772660701059527424,0.6209473609924316,0.022421468049287796,0.08819049596786499,0.18713848292827606,0.003665370400995016,0.23709601163864136,-0.9714792966842651,-0.023959558457136154,-0.003941714763641357,-0.0010854005813598633,-0.32274577215842015,0.03706872772273329,-0.11351763790690608,0.9389222298909643,-0.239375539306161,0.0037729604551395225,-2.4789634954181703
1772660701069564672,0.6309845447540283,0.025556275621056557,0.09017349034547806,0.2260483354330063,0.005016798619180918,0.23684406280517578,-0.9715347290039062,-0.03898286074399948,-0.013287544250488281,-0.00829315185546875,-0.3236734138233389,0.036495053030132556,-0.11358145650774573,0.9386175813802313,-0.23911619546709612,0.005163741451632829,-2.4768302490625858
1772660701079601408,0.6410214900970459,0.034992121160030365,0.09170453995466232,0.27155375480651855,0.006498771253973246,0.23654112219810486,-0.9715997576713562,-0.06025548279285431,-0.02683958411216736,-0.006915867328643799,-0.324789051781977,0.03587365801775952,-0.11363629707446368,0.9382494419039306,-0.2388044023006785,0.006688633090742589,-2.474281844434583
1772660701089639424,0.6510593891143799,0.06249689310789108,0.11471531540155411,0.33256015181541443,0.008178637363016605,0.23604321479797363,-0.9717081189155579,-0.08686820417642593,-0.03554274141788483,0.0012949705123901367,-0.3261538838521247,0.03515552478813279,-0.11362225434628871,0.9378048266665395,-0.238291983257113,0.008416564536924204,-2.471185900489332
1772660701099676672,0.6610965728759766,0.12542153894901276,0.13470207154750824,0.4053371548652649,0.010269605554640293,0.23512858152389526,-0.9719099998474121,-0.12059064954519272,-0.029562190175056458,0.010346949100494385,-0.3278257300629985,0.03420833072060764,-0.1134670897940083,0.9372754570829638,-0.23735085364540442,0.010566022676536342,-2.467402682195885
1772660701109713664,0.6711335182189941,0.2336551547050476,0.1803329437971115,0.489351361989975,0.012842745520174503,0.2333345115184784,-0.9723117351531982,-0.16427096724510193,-0.018704384565353394,0.010779142379760742,-0.3298768973428964,0.03292702265222867,-0.11295997382078839,0.936662675512896,-0.23550544756294936,0.013207696849778166,-2.4627931321573686
1772660701119751424,0.6811714172363281,0.3843226730823517,0.25675100088119507,0.5713534951210022,0.016179094091057777,0.2302788496017456,-0.9729901552200317,-0.21548940241336823,-0.010201334953308105,-0.006227374076843262,-0.33228457063392464,0.03110740350384476,-0.1119698198561642,0.9359925062409248,-0.23236421922267245,0.016626686835623225,-2.4573939735868264
1772660701129788416,0.6912083625793457,0.5694867372512817,0.3558216691017151,0.6771915555000305,0.02056986093521118,0.22551608085632324,-0.9740222692489624,-0.2779398560523987,-0.004431486129760742,-0.016593575477600098,-0.33511349041510546,0.02853834620661884,-0.11033780036529267,0.9352593293155078,-0.22747273382194322,0.021115333102449105,-2.4510618235253814
1772660701139826432,0.7012465000152588,0.7753552198410034,0.4786655604839325,0.7787970304489136,0.026255689561367035,0.21876980364322662,-0.9754232168197632,-0.33161458373069763,0.0039779990911483765,-0.030115723609924316,-0.33839314414116634,0.02505564587577401,-0.10798433465660355,0.9344526175081914,-0.2205535584656774,0.02691073073201264,-2.443733269458684
1772660701149863424,0.7112834453582764,1.0095239877700806,0.6065865159034729,0.897789478302002,0.03336339816451073,0.2097930908203125,-0.9771764278411865,-0.3718491196632385,0.014617919921875,-0.04531502723693848,-0.34213253587966413,0.020549666915579134,-0.10483083429353217,0.933559657997212,-0.2113633405720516,0.03412939847332107,-2.435408546521247
1772660701159900416,0.721320390701294,1.222213625907898,0.7280352115631104,1.0278218984603882,0.041887566447257996,0.19844916462898254,-0.979215681552887,-0.3978140652179718,0.016760796308517456,-0.04954713582992554,-0.3463823585284512,0.014994596265185442,-0.10083312004464123,0.9325380501799698,-0.1997753660512423,0.04275058505931062,-2.426014909697418
1772660701169938688,0.731358528137207,1.4290333986282349,0.831600546836853,1.1562384366989136,0.0516621470451355,0.18490588665008545,-0.9813973903656006,-0.4077717661857605,0.01751720905303955,-0.046526193618774414,-0.35121874461179575,0.00849338614890418,-0.09606854916882313,0.9313131532083648,-0.18597608974529944,0.052592869045436995,-2.4154273153695898
1772660701179975424,0.7413954734802246,1.632710337638855,0.9532934427261353,1.264101505279541,0.0625728964805603,0.16905337572097778,-0.9836186170578003,-0.4112820029258728,0.017805755138397217,-0.03897964954376221,-0.3565071928459912,0.0010497378374032791,-0.09049634442649748,0.9298989034913432,-0.169869147190925,0.0635293907135343,-2.4039828300572696
1772660701190012416,0.7514324188232422,1.8088998794555664,1.070367455482483,1.3771270513534546,0.07468307018280029,0.15111134946346283,-0.9856915473937988,-0.4285496473312378,-0.0024602264165878296,-0.04288816452026367,-0.36224416963218253,-0.007344759965605419,-0.08426320262930448,0.9282375801655669,-0.15169243624221,0.0756226969631433,-2.3916981832936592
1772660701200050688,0.7614705562591553,1.992444634437561,1.192867636680603,1.484037160873413,0.0879044383764267,0.13115212321281433,-0.9874573349952698,-0.4651322364807129,-0.03183266520500183,-0.026962220668792725,-0.36835618375354234,-0.01666234064158445,-0.07741907652669865,0.9263057436987695,-0.13153104714476335,0.08878695378461242,-2.378763534532574
1772660701210087424,0.7715075016021729,2.18916654586792,1.3276708126068115,1.544370412826538,0.10220205038785934,0.10893872380256653,-0.9887806177139282,-0.48962271213531494,-0.05350354313850403,0.0005756616592407227,-0.37470724933363103,-0.02696431866674903,-0.06987575242048803,0.9241129319803288,-0.10915535480118672,0.10299595700265138,-2.365521463207369
1772660701220125440,0.7815454006195068,2.3583576679229736,1.4449913501739502,1.6204662322998047,0.11749713867902756,0.084593765437603,-0.9894636273384094,-0.5187880396842957,-0.042143814265728,0.025565922260284424,-0.3811513869000942,-0.038226018046665436,-0.061700452232086325,0.921659081764239,-0.08469498464638105,0.11819482521733041,-2.3523148093151574
1772660701230162432,0.7915823459625244,2.570213794708252,1.5246638059616089,1.717112421989441,0.13351164758205414,0.05803041160106659,-0.9893468022346497,-0.5036441087722778,-0.0012219436466693878,0.08860522508621216,-0.3878686444082492,-0.05035073493408193,-0.0528336822833618,0.9188206342712382,-0.05806303162742289,0.13413892145220355,-2.338804310041615
1772660701240199680,0.8016195297241211,2.6985201835632324,1.6126154661178589,1.744757056236267,0.1499178111553192,0.02941938303411007,-0.9882606863975525,-0.4522707164287567,0.03709367662668228,0.12484210729598999,-0.3946864478977808,-0.06319881984320787,-0.0433078924714308,0.9156162353878903,-0.029423628904427623,0.1505508014567274,-2.3253872424594273
1772660701250237440,0.8116574287414551,2.8292160034179688,1.5921804904937744,1.7959872484207153,0.16601525247097015,-0.0007444056682288647,-0.9861229062080383,-0.40434229373931885,0.026913223788142204,0.16306382417678833,-0.4014647342297024,-0.0763889378949833,-0.03321562327968976,0.9120786793596981,0.0007444057388508885,0.16678750149865368,-2.312365361807499
1772660701260274432,0.8216943740844727,2.994532585144043,1.5801533460617065,1.8659378290176392,0.18137378990650177,-0.032785799354314804,-0.9828675389289856,-0.36707326769828796,-0.0322624146938324,0.22507035732269287,-0.40834376749955703,-0.08981828515562196,-0.02233597848395718,0.9081239841408141,0.03279167482609342,0.18248243962052207,-2.2994569064984844
1772660701270311680,0.8317315578460693,3.0742971897125244,1.5420148372650146,1.8707305192947388,0.1958359032869339,-0.0662238746881485,-0.9783980250358582,-0.3166244626045227,-0.059951052069664,0.23534077405929565,-0.41519604531432946,-0.10336023685885377,-0.010846516170400396,0.9037761795453866,0.06627237832087092,0.19754915727748928,-2.2868733774734054
1772660701280349440,0.8417694568634033,3.1145284175872803,1.524765968322754,1.8362395763397217,0.20927482843399048,-0.10031663626432419,-0.9726976156234741,-0.2756200432777405,-0.03429640084505081,0.22953355312347412,-0.4217422121459098,-0.11683421081337128,0.0009835883533126776,0.8991564515084317,0.1004856580857638,0.21191848551721512,-2.275136985625066
1772660701290386432,0.8518064022064209,3.112102508544922,1.4616527557373047,1.846988558769226,0.22166302800178528,-0.1345829963684082,-0.9657913446426392,-0.24445965886116028,-0.013488277792930603,0.27151644229888916,-0.42809247429470737,-0.1301409094962227,0.012948866173132805,0.8942217061624023,0.13499262419714333,0.22560714434829737,-2.263930473727688
1772660701300423424,0.8618433475494385,3.0681192874908447,1.3583109378814697,1.8354295492172241,0.23243968188762665,-0.1687159389257431,-0.9578657150268555,-0.19801585376262665,-0.028625980019569397,0.29726696014404297,-0.4343090296148581,-0.14296798201562694,0.02504596102825564,0.8889929592498363,0.16952678545422212,0.23806252168504047,-2.2530394093323385
1772660701310461440,0.8718814849853516,2.9575045108795166,1.217991590499878,1.8118212223052979,0.24144507944583893,-0.20190243422985077,-0.9491783976554871,-0.12293007969856262,-0.05261415243148804,0.30417418479919434,-0.44033820660165224,-0.15505937991499874,0.03697810643629785,0.883567417793115,0.20329997518531706,0.24908990132888217,-2.242455012130849
1772660701320498432,0.8819184303283691,2.8646297454833984,1.054974913597107,1.8116310834884644,0.24826127290725708,-0.23395708203315735,-0.9400162100791931,-0.061966732144355774,-0.07477398216724396,0.2827591300010681,-0.4461945452734938,-0.16616802449016138,0.04878623543815904,0.8780196394017619,0.23614573683812662,0.2582075819418206,-2.232046375772696
1772660701330536704,0.8919565677642822,2.7753498554229736,0.9240332245826721,1.8098925352096558,0.25296279788017273,-0.26501062512397766,-0.9304725527763367,-0.0054042041301727295,-0.09579870104789734,0.26377028226852417,-0.45190116657334484,-0.17634781104867467,0.06054059540998763,0.8723655975087428,0.26821494485692243,0.2654491666169137,-2.2216983786632705
1772660701340573440,0.9019935131072998,2.7121169567108154,0.8268187642097473,1.7979745864868164,0.2560189664363861,-0.2950907051563263,-0.9205301403999329,0.02932038903236389,-0.1119832694530487,0.23892003297805786,-0.45748977781444344,-0.18581482591023418,0.07216490481015897,0.866584155104658,0.29955043709674123,0.2712656481473756,-2.2113036094048883
1772660701350610432,0.9120304584503174,2.6616852283477783,0.7298521399497986,1.790259838104248,0.25761839747428894,-0.324393630027771,-0.9101656675338745,0.029567301273345947,-0.12975367903709412,0.211175799369812,-0.46288280761070194,-0.19469049078074113,0.08374238735962952,0.8607102837930785,0.33037062170200676,0.27583065790173783,-2.2010164064177817
1772660701360648448,0.9220683574676514,2.5982556343078613,0.6310027837753296,1.760427474975586,0.2577469050884247,-0.3528831899166107,-0.8994665145874023,0.03538969159126282,-0.1457587480545044,0.18051815032958984,-0.468076910041021,-0.20294731331655996,0.0952845110781213,0.8547732383236475,0.360650759970419,0.27907704066553096,-2.190788611239817
1772660701370685696,0.932105541229248,2.511500120162964,0.501717209815979,1.7034093141555786,0.25645044445991516,-0.3803015947341919,-0.8885965347290039,0.05868932604789734,-0.1685723066329956,0.1560373306274414,-0.4730008543884529,-0.2105131015985503,0.10670499960563531,0.8488629950467428,0.39012238247490627,0.2809670891656415,-2.180723426014666
1772660701380722432,0.9421424865722656,2.333503246307373,0.3597518503665924,1.6258541345596313,0.25374481081962585,-0.40605592727661133,-0.8779135346412659,0.08115509152412415,-0.19968748092651367,0.11787325143814087,-0.4776320641403903,-0.21719775605115768,0.11776406657785571,0.8431040144493418,0.4181340213319248,0.28136398115778033,-2.1707975998700597
1772660701390760448,0.9521803855895996,2.171687602996826,0.17788097262382507,1.5284470319747925,0.24943967163562775,-0.4297904968261719,-0.8677902817726135,0.11475709080696106,-0.223148375749588,0.0908128023147583,-0.48188802367714806,-0.22275370040978448,0.12839639985592793,0.8376629554480984,0.444260737432229,0.27989655832266797,-2.1611194992803813
1772660701400797696,0.9622175693511963,1.9810203313827515,0.03279754891991615,1.4076969623565674,0.24384905397891998,-0.45145168900489807,-0.8583292365074158,0.15043805539608002,-0.22957858443260193,0.06938880681991577,-0.48569371058716765,-0.22724837361536246,0.13854085602857952,0.8326261968490569,0.46839160221153153,0.276804115961948,-2.1518912778149617
1772660701410835456,0.9722554683685303,1.7881829738616943,-0.0906803160905838,1.2848137617111206,0.2373543679714203,-0.4708299934864044,-0.8496952652931213,0.1839255392551422,-0.22185799479484558,0.03598982095718384,-0.4890143684756748,-0.2307355462568833,0.14803200573773093,0.8280777022638407,0.49023134766437015,0.2723971162300447,-2.143257706556642
1772660701420872448,0.9822924137115479,1.5987458229064941,-0.18808144330978394,1.1544405221939087,0.23025445640087128,-0.4880882799625397,-0.8418745398521423,0.19802922010421753,-0.21218329668045044,0.007493436336517334,-0.4918466141222727,-0.23334973833882877,0.15687775675143348,0.8240293019724981,0.5098980799667807,0.26697309580681394,-2.135314586573611
1772660701430909440,0.9923293590545654,1.3662900924682617,-0.26987510919570923,1.0109262466430664,0.2229614555835724,-0.5030391216278076,-0.8350089192390442,0.1981658637523651,-0.22697186470031738,-0.02720421552658081,-0.49415021677069954,-0.23516522374118282,0.164902586568614,0.820560837778447,0.5271115974740408,0.2609292974638093,-2.1282862601405483
1772660701440947456,1.0023674964904785,1.1397587060928345,-0.36989864706993103,0.8706072568893433,0.21547472476959229,-0.5155752897262573,-0.8293086290359497,0.17147289216518402,-0.2610360383987427,-0.03670394420623779,-0.49610285619556677,-0.23613250931853852,0.1720090906933569,0.8176407425963985,0.5416789378595843,0.25420368697818074,-2.121793551685829
1772660701450984448,1.012404441833496,0.929496169090271,-0.4686884582042694,0.7334641814231873,0.2077980637550354,-0.5258581042289734,-0.8247989416122437,0.1443137377500534,-0.3058374524116516,-0.03131067752838135,-0.49767749823591767,-0.23625933295152432,0.1782752421682193,0.8153015854909933,0.5537236286568604,0.2468016830228026,-2.1159587417080545
1772660701461021440,1.0224413871765137,0.7219219207763672,-0.5333454608917236,0.6003340482711792,0.2001161277294159,-0.5340454578399658,-0.821431040763855,0.1397428959608078,-0.3237273693084717,-0.04383385181427002,-0.4988408748151213,-0.235644055927532,0.18372903062857268,0.8135559095844209,0.5633783095066969,0.23896396405137119,-2.1109666623542096
1772660701471059456,1.0324795246124268,0.4960196912288666,-0.559127688407898,0.4826924800872803,0.19267669320106506,-0.540138840675354,-0.819222629070282,0.14803679287433624,-0.3020089864730835,-0.05704385042190552,-0.499672172340613,-0.2343948352706032,0.1882756897610135,0.8123663275856492,0.5706020464269245,0.2309963141411127,-2.106749691024546
1772660701481096448,1.0425164699554443,0.2746947705745697,-0.5684535503387451,0.36946314573287964,0.18569545447826385,-0.5441054105758667,-0.8182093501091003,0.15185946226119995,-0.2546616792678833,-0.05337268114089966,-0.5002759692101119,-0.23260719477484842,0.19180514512832822,0.8116826678999174,0.5753225018312816,0.2231729965738964,-2.1031720571404846
1772660701491134464,1.0525543689727783,0.07005969434976578,-0.5505542159080505,0.24781954288482666,0.1793970912694931,-0.5460761785507202,-0.8183015584945679,0.1442876011133194,-0.21573406457901,-0.051266252994537354,-0.5006653067130896,-0.2304221230912725,0.19430607801119484,0.8114709307251169,0.5776732239287101,0.2158166996926518,-2.1003199096131633
1772660701501171712,1.062591552734375,-0.12376995384693146,-0.5318217873573303,0.12542305886745453,0.17393802106380463,-0.5461593270301819,-0.8194239139556885,0.13132929801940918,-0.20251315832138062,-0.06393790245056152,-0.5007699017787055,-0.22792636990011847,0.19579992224928794,0.811752136948804,0.5777724810618866,0.20916404043154235,-2.098456944850262
1772660701511208448,1.0726284980773926,-0.24935397505760193,-0.5198966264724731,0.016316546127200127,0.16921037435531616,-0.5447036623954773,-0.8213804364204407,0.12122538685798645,-0.2007339596748352,-0.08160418272018433,-0.5005936778985968,-0.22518762191056407,0.19646961896225448,0.8124631231957978,0.5760356879471947,0.2031650929383842,-2.097560947884036
1772660701521246464,1.0826663970947266,-0.349803626537323,-0.4715040922164917,-0.08227527886629105,0.1652633100748062,-0.5421942472457886,-0.8238406777381897,0.12137304246425629,-0.19025814533233643,-0.1100887656211853,-0.5001543344199411,-0.22239928799281833,0.1965152092336101,0.813489978294281,0.5730463219916797,0.1979734437064115,-2.0975975619454093
1772660701531283456,1.0927033424377441,-0.4398396611213684,-0.38648292422294617,-0.1640913188457489,0.1623583287000656,-0.5387168526649475,-0.8266946077346802,0.1233929842710495,-0.15206378698349,-0.12395846843719482,-0.49952326559560456,-0.21973219148617862,0.19588377572687213,0.814753937688454,0.5689133028567224,0.19392640327663796,-2.0984689615972942
1772660701541320448,1.1027405261993408,-0.5049833059310913,-0.2999935746192932,-0.22752301394939423,0.16051645576953888,-0.5344758033752441,-0.8298012018203735,0.12335804104804993,-0.10169357061386108,-0.11619788408279419,-0.49873589479819835,-0.21727710827354654,0.1946536510503587,0.8161881081569436,0.5638873773811199,0.1910796455039972,-2.1000782306950136
1772660701551358464,1.1127784252166748,-0.572581946849823,-0.21966785192489624,-0.27290916442871094,0.1596817821264267,-0.5295929312705994,-0.8330864310264587,0.1195540726184845,-0.07627254724502563,-0.11320263147354126,-0.4978902158056071,-0.21507574494864964,0.19287094359533816,0.8177093303712504,0.5581206340879339,0.1893780078275114,-2.102153152078258
1772660701561395456,1.1228153705596924,-0.643107533454895,-0.124222032725811,-0.30865198373794556,0.15974339842796326,-0.5240395069122314,-0.8365790843963623,0.11917199194431305,-0.06412571668624878,-0.09693831205368042,-0.4970218363117651,-0.21307957071619113,0.19054537416864983,0.8193038481224232,0.5515869871607757,0.1886770939477563,-2.1045614823036303
1772660701571433472,1.1328535079956055,-0.690983772277832,-0.012827594764530659,-0.3343021869659424,0.1608007401227951,-0.517912745475769,-0.840184211730957,0.1197625994682312,-0.04667770862579346,-0.07750988006591797,-0.49620351288613745,-0.21138706705850488,0.18767894753785283,0.8208984855905659,0.5444091383626806,0.18910073726982696,-2.107131867710162
1772660701581470464,1.142890453338623,-0.7268555164337158,0.10472646355628967,-0.3491588830947876,0.16294239461421967,-0.5113947987556458,-0.8437565565109253,0.11804820597171783,-0.025348424911499023,-0.08515274524688721,-0.49545075348621276,-0.21010431558246528,0.1843309276554607,0.8224395440499733,0.5368070692451425,0.19076708837939466,-2.109820613485758
1772660701591507456,1.1529273986816406,-0.7610678672790527,0.2333572804927826,-0.3563980460166931,0.16612523794174194,-0.5045446753501892,-0.8472526669502258,0.11620812118053436,-0.009737551212310791,-0.08666151762008667,-0.4948130872692463,-0.20924228318620677,0.1805306829127567,0.8238849257501155,0.5288544914138071,0.1936188791946358,-2.112471337739653
1772660701601545472,1.1629655361175537,-0.7906518578529358,0.352982759475708,-0.3547396957874298,0.17039839923381805,-0.4973350167274475,-0.8506599068641663,0.11304886639118195,0.0010581612586975098,-0.08304065465927124,-0.4942801565317665,-0.2088130685343917,0.17625874540669648,0.8252376281438485,0.52052423461559,0.19769668735553192,-2.1150981989442643
1772660701611582464,1.1730024814605713,-0.8179787397384644,0.48507899045944214,-0.3388350307941437,0.17564848065376282,-0.48988232016563416,-0.8539103865623474,0.10331270098686218,0.005156368017196655,-0.07971388101577759,-0.49385174058503195,-0.2088012377524743,0.17160084551262195,0.8264779261961885,0.5119547738790348,0.2028692721996481,-2.1176436364544675
1772660701621619456,1.1830394268035889,-0.8305962681770325,0.62516850233078,-0.31985095143318176,0.1819784939289093,-0.4822230637073517,-0.8569391369819641,0.0922677218914032,0.00961264967918396,-0.08118641376495361,-0.4936255661523253,-0.2092852837179689,0.1665235449181414,0.8275284422906461,0.5031905592124739,0.20925020045915876,-2.119870050521305
1772660701631657728,1.193077564239502,-0.8470833897590637,0.7764317393302917,-0.2899678945541382,0.18941284716129303,-0.4744888246059418,-0.8596412539482117,0.07775329053401947,0.015779107809066772,-0.08487778902053833,-0.4936319086403301,-0.21032077860159576,0.1610730824527207,0.8283405835373829,0.4943832462517841,0.2168740202975798,-2.1216820320545238
1772660701641694464,1.2031145095825195,-0.8414369821548462,0.8945293426513672,-0.2600563168525696,0.1978817880153656,-0.4666830897331238,-0.8620033264160156,0.0590151846408844,0.01259678602218628,-0.07992172241210938,-0.4939036250227577,-0.21187875614952179,0.155260222905882,0.8288914001934298,0.48553670140949495,0.22565078902271138,-2.1229590505029385
1772660701651732480,1.2131524085998535,-0.7908020615577698,1.0048798322677612,-0.24392928183078766,0.20722506940364838,-0.45917537808418274,-0.8638378381729126,0.038319364190101624,-0.0014111995697021484,-0.0711139440536499,-0.4943084311212912,-0.213970287520835,0.1493244834923805,0.8292033685321101,0.47706669241154703,0.23543988223239493,-2.123963097166236
1772660701661769472,1.223189353942871,-0.7663995623588562,1.1302611827850342,-0.2103888988494873,0.2174251228570938,-0.4520074129104614,-0.8651101589202881,0.015179857611656189,-0.019122958183288574,-0.055498361587524414,-0.4948672593137424,-0.21660073644157266,0.14327957719423662,0.8292535688680894,0.4690145022818353,0.24622675826267634,-2.1246278458428844
1772660701671806464,1.2332265377044678,-0.6908707022666931,1.2488352060317993,-0.18247205018997192,0.22856317460536957,-0.4452720582485199,-0.8657318949699402,-0.002565249800682068,-0.014124304056167603,-0.023901283740997314,-0.4955313630779363,-0.2198254219509518,0.13715265126021836,0.8290443517652367,0.46147806309491257,0.25812186631289885,-2.1250776794634203
1772660701681844480,1.2432644367218018,-0.6104776263237,1.3653908967971802,-0.16194067895412445,0.2406088411808014,-0.43927037715911865,-0.8655338883399963,-0.015434890985488892,-0.0024105310440063477,-0.003621995449066162,-0.4962447721488361,-0.2237128828106835,0.13109385477873406,0.8285578205196777,0.4547863321936211,0.27114286183861974,-2.125441351785307
1772660701691881472,1.2533013820648193,-0.5397580862045288,1.4650156497955322,-0.14914098381996155,0.25349465012550354,-0.4339732229709625,-0.8645274639129639,-0.02940407395362854,-0.007204145193099976,0.007441282272338867,-0.4971673803601853,-0.22824819366004162,0.12505615028187486,0.8277006071053435,0.44889826478936823,0.28522285038624706,-2.125318774155562
1772660701701918720,1.263338565826416,-0.4672625660896301,1.5529950857162476,-0.12797418236732483,0.2671079635620117,-0.42930179834365845,-0.8627591133117676,-0.04835796356201172,-0.020527303218841553,0.024303913116455078,-0.4978899630295725,-0.23329460012694941,0.1191388558599562,0.8267315981331945,0.44371956457430956,0.30023829651660183,-2.125676908967306
1772660701711956480,1.27337646484375,-0.40373334288597107,1.6471033096313477,-0.12122932821512222,0.28142234683036804,-0.4252718687057495,-0.8602007627487183,-0.06218406558036804,-0.033483654260635376,0.03401362895965576,-0.4988281445549581,-0.23891028735030478,0.11323204142349749,0.8253913952221904,0.4392622360164676,0.3161833078995375,-2.125510080381005
1772660701721993472,1.2834134101867676,-0.3712228238582611,1.7139077186584473,-0.10115575045347214,0.29633426666259766,-0.42166033387184143,-0.8569647669792175,-0.07595157623291016,-0.04943951964378357,0.038513779640197754,-0.4997749348854568,-0.2449515467450052,0.10731434123049333,0.823837030167276,0.43527562674769515,0.3329239730001552,-2.1252896905694993
1772660701732031488,1.2934515476226807,-0.3401027321815491,1.7564496994018555,-0.07541085034608841,0.31154441833496094,-0.41839349269866943,-0.8531628847122192,-0.08637046813964844,-0.06682074069976807,0.04070866107940674,-0.500764559165025,-0.2512629725343863,0.10141727284755195,0.8220804784378973,0.431675846848322,0.350119604973982,-2.124882230698264
1772660701742068480,1.3034884929656982,-0.2738472819328308,1.7853686809539795,-0.06850367039442062,0.32690462470054626,-0.4155668616294861,-0.848785936832428,-0.09370455145835876,-0.07756668329238892,0.04383903741836548,-0.5015696104520435,-0.25778073305032145,0.09568767703695244,0.820256598642331,0.42856593770547197,0.36763406935514253,-2.124833727306305
1772660701752105472,1.3135254383087158,-0.2003059685230255,1.824931263923645,-0.07049304991960526,0.3424481153488159,-0.4133756756782532,-0.8437119126319885,-0.1028241217136383,-0.07043474912643433,0.0373917818069458,-0.502447233181204,-0.2646185423624969,0.09011690905018697,0.8181703835505063,0.4261582120607246,0.38556740677259893,-2.124553319708081
1772660701762143488,1.3235633373260498,-0.11389465630054474,1.8363338708877563,-0.0755876749753952,0.35817840695381165,-0.41182512044906616,-0.8379189968109131,-0.11382415890693665,-0.04879191517829895,0.032499074935913086,-0.5031663877717731,-0.27176071652857137,0.08477389503875711,0.8159552566041843,0.42445601209355527,0.4039540230510218,-2.124621709074702
1772660701772180480,1.3336005210876465,-0.028497105464339256,1.8426616191864014,-0.09240341186523438,0.373926043510437,-0.4109598696231842,-0.8314392566680908,-0.1209200918674469,-0.025059998035430908,0.034411728382110596,-0.5036943417854081,-0.2791464280947036,0.07973474814121372,0.8136409382436204,0.42350669442264816,0.4226322238575031,-2.1251240512704963
1772660701782217472,1.343637466430664,0.07152563333511353,1.8309135437011719,-0.12675446271896362,0.3895939290523529,-0.4107367992401123,-0.8243250846862793,-0.1257999837398529,-0.006118059158325195,0.0418086051940918,-0.5039455993604783,-0.28671702443423225,0.07503871076863788,0.8112960703073464,0.42326201458735085,0.44150608297587285,-2.1262781889746645
1772660701792255488,1.353675365447998,0.14278578758239746,1.7965278625488281,-0.1787406951189041,0.4051673412322998,-0.41104480624198914,-0.8166282176971436,-0.1256721019744873,0.004321783781051636,0.057060956954956055,-0.5038283480696292,-0.2944322103435639,0.07067928023302178,0.8089939896981017,0.42359987962194134,0.46056014915613075,-2.12831974860156
1772660701802292480,1.3637125492095947,0.18453404307365417,1.7515356540679932,-0.21570377051830292,0.42042264342308044,-0.41160449385643005,-0.8085953593254089,-0.12270841002464294,0.009413331747055054,0.07386946678161621,-0.5033899960566909,-0.30210559581153523,0.06659216396229789,0.8067813321677149,0.42421391317112744,0.4794735872489605,-2.1310873223800537
1772660701812329472,1.3737494945526123,0.20127275586128235,1.7003774642944336,-0.2421451061964035,0.4353006184101105,-0.41218429803848267,-0.8003858327865601,-0.11305025219917297,0.026274263858795166,0.08484017848968506,-0.5027369394870876,-0.3096454813128102,0.0626638202359028,0.804641885828022,0.4248502095077718,0.49811965068127795,-2.1342897182701805
1772660701822367488,1.3837873935699463,0.21535955369472504,1.6313592195510864,-0.27831214666366577,0.4496767818927765,-0.41271713376045227,-0.7921208143234253,-0.09999111294746399,0.05196884274482727,0.09310042858123779,-0.5018732487570058,-0.3169691532601887,0.058908058332607614,0.8026104855456593,0.4254350916031813,0.5163210927986536,-2.1379005025911435
1772660701832404480,1.3938243389129639,0.17688192427158356,1.5612143278121948,-0.31827476620674133,0.4635477662086487,-0.4129277467727661,-0.7839732766151428,-0.09433087706565857,0.064523845911026,0.0959087610244751,-0.5008128964524472,-0.32398325721201415,0.055210518050043636,0.8007328152498117,0.4256663205453012,0.5339831026455549,-2.1418388309118286
1772660701842442496,1.403862476348877,0.135343536734581,1.4786525964736938,-0.3435457646846771,0.47679010033607483,-0.4125883877277374,-0.7761713862419128,-0.09435907006263733,0.06969287991523743,0.10046643018722534,-0.49964013873464985,-0.33055045194854543,0.05148496235609294,0.7990278070839762,0.4252937487936673,0.5508566911809064,-2.1458347874388433
1772660701852479488,1.4138994216918945,0.09799066185951233,1.3825139999389648,-0.3660835325717926,0.4893423020839691,-0.4117605686187744,-0.7687634825706482,-0.090401291847229,0.0765860378742218,0.10439586639404297,-0.49838518038042934,-0.3366544593404516,0.04777061667879315,0.7974922520222801,0.42438518134349623,0.5668488136709275,-2.149813289147875
1772660701862516480,1.423936367034912,0.05483892932534218,1.3124587535858154,-0.3789937496185303,0.5012181401252747,-0.4105026423931122,-0.7617532014846802,-0.08064013719558716,0.08825230598449707,0.09613430500030518,-0.4970768584642674,-0.34231594183948455,0.044081839613025905,0.7961099912455577,0.42300523214857205,0.5819644435263528,-2.153712211701727
1772660701872554496,1.4339745044708252,0.02676175720989704,1.237295389175415,-0.3831360638141632,0.5124933123588562,-0.40886685252189636,-0.7551016211509705,-0.07035470008850098,0.10890957713127136,0.09479284286499023,-0.4957511492627865,-0.34758667817318,0.04040644148700879,0.7948469460646482,0.4212120509366263,0.5962924802152557,-2.1574564854809872
1772660701882591488,1.4440114498138428,-0.002013699384406209,1.1668928861618042,-0.38411128520965576,0.5231437683105469,-0.4069705903530121,-0.7487961053848267,-0.060512542724609375,0.13054236769676208,0.09185945987701416,-0.494429239307,-0.3524882718750228,0.03679638552485551,0.7936862102267089,0.41913511509630696,0.6098169768579215,-2.161018237852864
1772660701892628480,1.4540483951568604,-0.05721312761306763,1.1080830097198486,-0.3746831715106964,0.533194363117218,-0.4047602415084839,-0.7428814768791199,-0.04489791393280029,0.1435755491256714,0.09154486656188965,-0.4931675048591085,-0.3570113177354756,0.033198963254125524,0.7926074922587538,0.41671663425330024,0.6225318277956587,-2.1642459994188963
1772660701902666496,1.4640865325927734,-0.11694730073213577,1.050645112991333,-0.3485538363456726,0.5427005290985107,-0.4021477699279785,-0.7373963594436646,-0.028937101364135742,0.15152212977409363,0.09632885456085205,-0.49205121858725903,-0.361151291872327,0.029522256191519592,0.7915705340088394,0.4138614490392106,0.634460323269005,-2.1669052835973823
1772660701912703488,1.474123477935791,-0.17232702672481537,0.9920752048492432,-0.3310816287994385,0.5515892505645752,-0.3992052376270294,-0.7323827147483826,-0.01354914903640747,0.14702323079109192,0.09123897552490234,-0.49111036315053935,-0.3648870963874859,0.025807674190237898,0.7905707247095547,0.41064986904875606,0.6455098963574428,-2.16893453580206
1772660701922741504,1.484161376953125,-0.21311333775520325,0.9393326044082642,-0.3088815212249756,0.5599206686019897,-0.3960252106189728,-0.72777259349823,0.001816391944885254,0.13456586003303528,0.07349097728729248,-0.49030704169344014,-0.3682737721198929,0.022093650716042388,0.7896109397111777,0.4071840929881951,0.6557781287354966,-2.1704596189684175
1772660701932778496,1.4941985607147217,-0.23977477848529816,0.8905720710754395,-0.2912825644016266,0.5677638053894043,-0.3926750123500824,-0.7234988212585449,0.010254383087158203,0.1207939088344574,0.05580472946166992,-0.48964069770740903,-0.37136569272897824,0.018387588120119428,0.7886706368302273,0.40353843863358235,0.665371117317271,-2.171506431374579
1772660701942815488,1.5042355060577393,-0.23754064738750458,0.8488086462020874,-0.27598056197166443,0.5751583576202393,-0.389310359954834,-0.7194653749465942,0.013693571090698242,0.11092901229858398,0.03254520893096924,-0.489037201704052,-0.3742310890500577,0.014778824541941592,0.7877660882573659,0.3998827690268091,0.6743900132114498,-2.1723132449237377
1772660701952853504,1.5142734050750732,-0.24065405130386353,0.8415091633796692,-0.26795247197151184,0.5822878479957581,-0.38602498173713684,-0.7154898047447205,0.011538445949554443,0.10186055302619934,0.004430174827575684,-0.4884588697030351,-0.3769989517194224,0.011265003454870826,0.7868626875446514,0.39631867400458204,0.6831178248246896,-2.173012519604673
1772660701962890496,1.5243103504180908,-0.2543405592441559,0.8615073561668396,-0.25256338715553284,0.5893812775611877,-0.382720410823822,-0.7114455103874207,0.0008438825607299805,0.10147044062614441,-0.01621556282043457,-0.48794643654236897,-0.3797602228813623,0.00770784679588492,0.7858950167368111,0.39273910824382946,0.6918362558042966,-2.1734803611141307
1772660701972927488,1.5343475341796875,-0.2631371021270752,0.879398763179779,-0.2284519225358963,0.5964999198913574,-0.37945058941841125,-0.7072518467903137,-0.011477947235107422,0.10433462262153625,-0.017159223556518555,-0.4875257834785935,-0.38256675036034005,0.004095370553698224,0.7848213646303452,0.3892023905037898,0.7006530103374404,-2.173666761275142
1772660701982965504,1.5443854331970215,-0.2845126986503601,0.885907769203186,-0.22101211547851562,0.6036102175712585,-0.3761630952358246,-0.702962338924408,-0.017535388469696045,0.0877109169960022,-0.02581268548965454,-0.4871804567895086,-0.3853811741446811,0.00042283991159099366,0.7836685533108071,0.3856517368121688,0.709503946841204,-2.1735956424392877
1772660701993002496,1.554422378540039,-0.3227807879447937,0.8880031108856201,-0.22174954414367676,0.6106456518173218,-0.3726992905139923,-0.6987181901931763,-0.016804158687591553,0.05896329879760742,-0.02697455883026123,-0.4868982240759615,-0.38811039415958193,-0.003349076371160011,0.7824891702589364,0.38191619657311265,0.7182357289092456,-2.1732487659891064
1772660702003039488,1.5644595623016357,-0.3801482021808624,0.9159681797027588,-0.2154993712902069,0.6177467107772827,-0.36888840794563293,-0.6944857239723206,-0.009424567222595215,0.038459330797195435,-0.026736199855804443,-0.4867095063667793,-0.39077232167486287,-0.007357914391139626,0.7812533246361647,0.3778128095520087,0.7269849411951527,-2.172490852670141
1772660702013077504,1.5744974613189697,-0.41607439517974854,0.9646410942077637,-0.21580497920513153,0.6250663995742798,-0.3647761046886444,-0.6900944709777832,-0.0011192560195922852,0.02949470281600952,-0.029235363006591797,-0.4866046596253272,-0.39346834990692986,-0.011636547155470562,0.7799122665746205,0.37339231498308606,0.7359934096545577,-2.1713495398138516
1772660702023114496,1.5845344066619873,-0.45154157280921936,1.0109158754348755,-0.23042786121368408,0.6326733231544495,-0.3603965640068054,-0.6854478120803833,-0.0004559159278869629,0.017180651426315308,-0.0348280668258667,-0.48651723798063806,-0.39625087185897667,-0.016165679055654966,0.7784759592036297,0.36869300302724284,0.7453818537484931,-2.1699927504659584
1772660702033152512,1.5945725440979004,-0.47837087512016296,1.0412111282348633,-0.24099101126194,0.6405623555183411,-0.35568299889564514,-0.6805654764175415,-0.00599515438079834,-0.0003808140754699707,-0.03165370225906372,-0.486438974335592,-0.3990957630788555,-0.02097190489390326,0.7769554429051492,0.3636447501758672,0.7551278693209015,-2.168407534182353
1772660702043189504,1.604609489440918,-0.4891239106655121,1.0721203088760376,-0.25179362297058105,0.6486325860023499,-0.3507896661758423,-0.6754423379898071,-0.009884417057037354,-0.013513922691345215,-0.02638566493988037,-0.48631979979024437,-0.40200294060560743,-0.025932008166679232,0.7753800100820393,0.3584142127096299,0.7651530218451228,-2.1667640954572454
1772660702053226496,1.6146464347839355,-0.470274418592453,1.102911114692688,-0.2610377073287964,0.6568618416786194,-0.3458419442176819,-0.670019268989563,-0.0007033944129943848,-0.017546087503433228,-0.02124965190887451,-0.4861507803861305,-0.405006616501029,-0.030983842902499097,0.7737357809038292,0.3531359576226852,0.7754824352404068,-2.1651189403775026
1772660702063264512,1.6246845722198486,-0.4264630079269409,1.1350373029708862,-0.2710256278514862,0.6652579307556152,-0.34106820821762085,-0.6641568541526794,0.010706424713134766,-0.01301199197769165,-0.010479986667633057,-0.4858453449873955,-0.4081986290880982,-0.03599244696668794,0.7720315198590045,0.34805300049558646,0.7862264191683456,-2.1637653148235314
1772660702073301504,1.6347215175628662,-0.3855842351913452,1.1602991819381714,-0.27927207946777344,0.6738061308860779,-0.33652788400650024,-0.6578254699707031,0.01938539743423462,-0.009068429470062256,-0.006450653076171875,-0.4853970758253967,-0.4115972401354278,-0.04092658141736149,0.7702612633510441,0.34322726884648413,0.7973983937343734,-2.162738818805129
1772660702083338496,1.6447584629058838,-0.3867940902709961,1.18205988407135,-0.28718113899230957,0.6824641823768616,-0.33206191658973694,-0.6511356830596924,0.029785573482513428,-0.00825488567352295,0.0018284320831298828,-0.4848390649580179,-0.41512567348008744,-0.045856825178568664,0.7684393357387566,0.3384886824770227,0.8088855238399695,-2.1619001167524456
1772660702093376512,1.6547963619232178,-0.3991837203502655,1.1845251321792603,-0.291256844997406,0.6911033391952515,-0.3275223672389984,-0.644286572933197,0.04264599084854126,-0.0209730863571167,0.012923717498779297,-0.4842578257000719,-0.418654534111384,-0.0508437476443629,0.766575240468902,0.3336800957400172,0.8204423166519939,-2.1609802958240856
1772660702103413504,1.6648335456848145,-0.43332812190055847,1.1882717609405518,-0.30144503712654114,0.6997053027153015,-0.3227929472923279,-0.6373516321182251,0.05404829978942871,-0.041373252868652344,0.029441535472869873,-0.48366687802744857,-0.42213169841483145,-0.05593765320255458,0.7646842645710848,0.32867892697811213,0.8319994360910447,-2.159901082494708
1772660702113451520,1.6748714447021484,-0.4582350254058838,1.198832392692566,-0.31086239218711853,0.7082821726799011,-0.3177996575832367,-0.6303489804267883,0.05859404802322388,-0.050150781869888306,0.04076462984085083,-0.48308943192524195,-0.4255366092870782,-0.06118903933066448,0.7627576560923416,0.32340793603531515,0.8435510815302791,-2.158567998900399
1772660702123488512,1.684908390045166,-0.46053704619407654,1.205122947692871,-0.3294094502925873,0.7168520092964172,-0.31261199712753296,-0.6232150197029114,0.057623088359832764,-0.04091888666152954,0.04956090450286865,-0.48248137913463207,-0.42890907944083384,-0.06655431946433012,0.7608017559706742,0.317941613382233,0.8551596011130695,-2.1571113004521343
1772660702133525248,1.6949453353881836,-0.42679208517074585,1.2080968618392944,-0.3611246347427368,0.7254151105880737,-0.30737096071243286,-0.6158701181411743,0.054141104221343994,-0.02910056710243225,0.04490154981613159,-0.4817100048870319,-0.4323136581735351,-0.07190164713366079,0.7588745158829582,0.3124290220497251,0.8668889727777574,-2.155927388195032
1772660702143563520,1.7049834728240967,-0.40867114067077637,1.210675835609436,-0.39368736743927,0.7340003848075867,-0.3020377457141876,-0.6082899570465088,0.04959946870803833,-0.023798465728759766,0.03640580177307129,-0.4807289115392187,-0.43576374340145074,-0.07723326006107922,0.7569971944335849,0.30682950320614333,0.878779452900506,-2.1551171554710393
1772660702153600512,1.7150204181671143,-0.38110390305519104,1.202728271484375,-0.42507749795913696,0.7425501346588135,-0.2965981662273407,-0.6005404591560364,0.04295706748962402,-0.018007546663284302,0.04696691036224365,-0.4795652534849696,-0.4392219672260989,-0.08254591156570809,0.755173776557527,0.3011285597472602,0.8907402550711354,-2.154609894019762
1772660702163637504,1.7250573635101318,-0.3589586615562439,1.2086633443832397,-0.46274951100349426,0.7510780096054077,-0.2910524606704712,-0.5925962924957275,0.040135979652404785,-0.010644346475601196,0.05827927589416504,-0.47819274191081945,-0.4427050522770726,-0.08782990598647215,0.7534121630633921,0.29532672597265225,0.9028022673690578,-2.15447070482163
1772660702173675520,1.735095500946045,-0.3436383306980133,1.200163722038269,-0.4928199350833893,0.759564995765686,-0.28535687923431396,-0.5844933390617371,0.045183539390563965,-0.0017067193984985352,0.05978935956954956,-0.476626751303578,-0.4461894443843256,-0.093103759393679,0.751713800469811,0.2893787793277969,0.914924909691872,-2.154642424240235
1772660702183712512,1.7451324462890625,-0.346315860748291,1.1924418210983276,-0.5104769468307495,0.7679323554039001,-0.2795218229293823,-0.5763223171234131,0.052166521549224854,0.0035513639450073242,0.06670928001403809,-0.4749301598884659,-0.4496257533342488,-0.09836425739259035,0.7500683285846186,0.2832960553338102,0.9269844089926811,-2.154976145668402
1772660702193749504,1.75516939163208,-0.3762108087539673,1.178296685218811,-0.5247064828872681,0.7761719822883606,-0.27343952655792236,-0.5681442618370056,0.061031997203826904,0.005037426948547363,0.07562106847763062,-0.47320208902699434,-0.4529588741051884,-0.10371178268924247,0.7484330058126674,0.27696702874297086,0.9389265550409823,-2.155163919831025
1772660702203787520,1.7652075290679932,-0.39839762449264526,1.1675266027450562,-0.5470975637435913,0.7842631936073303,-0.2670772671699524,-0.5600008368492126,0.06333202123641968,0.0030544698238372803,0.08690214157104492,-0.47145087718981477,-0.4561627714531434,-0.1091563010542353,0.7468162519843873,0.27035885988363506,0.9507048728295837,-2.1551705870350917
1772660702213824512,1.7752444744110107,-0.4328709542751312,1.1445660591125488,-0.56367427110672,0.7921813130378723,-0.26035723090171814,-0.551962673664093,0.059503257274627686,-0.007053017616271973,0.08876693248748779,-0.46966996004656697,-0.4591939560480536,-0.11471514605260237,0.7452458768597816,0.2633921794808928,0.9622461015087604,-2.1549837541578842
1772660702223862528,1.7852823734283447,-0.462735116481781,1.118471622467041,-0.5724091529846191,0.7998719811439514,-0.25333717465400696,-0.5440819263458252,0.047692716121673584,-0.013951033353805542,0.0887138843536377,-0.46791850304457516,-0.4620272007930154,-0.12037406630184597,0.7437024100213961,0.25612842772564837,0.9734752518546843,-2.154481632614019
1772660702233899520,1.7953195571899414,-0.45896774530410767,1.1008923053741455,-0.5823324918746948,0.8073252439498901,-0.24617290496826172,-0.5363067984580994,0.04030048847198486,-0.007061973214149475,0.09256595373153687,-0.4661507594705668,-0.46471725248660356,-0.12603364465630282,0.7421974092265692,0.2487296595241497,0.9844334297787835,-2.1538573165735913
1772660702243936512,1.805356502532959,-0.44432464241981506,1.0867578983306885,-0.5908697843551636,0.8145874738693237,-0.23898884654045105,-0.5285183787345886,0.03493046760559082,0.010717332363128662,0.09474152326583862,-0.4643235616202445,-0.4673463673153506,-0.13163650582961353,0.7407178425351578,0.24132438432040237,0.9952529983301127,-2.153270005071159
1772660702253974528,1.815394401550293,-0.38966548442840576,1.0682874917984009,-0.6031075716018677,0.8216814994812012,-0.23188361525535583,-0.520643413066864,0.03169679641723633,0.03031499683856964,0.09084910154342651,-0.46237304741553836,-0.4699775511295814,-0.13711087862623605,0.7392786405211987,0.23401363383941792,1.0060140257517594,-2.1529324165917485
1772660702264011264,1.8254313468933105,-0.2927336096763611,1.03885018825531,-0.6199107766151428,0.8285470604896545,-0.22503888607025146,-0.51270592212677,0.03835052251815796,0.04199443757534027,0.07863914966583252,-0.46017881047957987,-0.4726593644255019,-0.14226791587766088,0.7379624451008516,0.22698294983912706,1.0166669968233095,-2.1532814755655463
1772660702274048512,1.8354685306549072,-0.19729077816009521,1.0097806453704834,-0.6343560218811035,0.8351620435714722,-0.21855418384075165,-0.5047162771224976,0.04916107654571533,0.03917187452316284,0.06028878688812256,-0.45770029358905207,-0.4754228312686095,-0.1470204058839373,0.7367961848215179,0.22033259601651756,1.027196629659074,-2.1544952876835404
1772660702284086528,1.8455064296722412,-0.12534788250923157,1.0027347803115845,-0.6390381455421448,0.8415876626968384,-0.21239496767520905,-0.4966071546077728,0.05906236171722412,0.042534127831459045,0.04926520586013794,-0.4549630508007225,-0.4782957781863837,-0.151425146390682,0.7357392391613365,0.21402519833130013,1.0377001310723128,-2.1564811404129194
1772660702294123520,1.8555433750152588,-0.12475195527076721,0.9776661992073059,-0.632071852684021,0.8478257060050964,-0.20639196038246155,-0.4884609282016754,0.06490939855575562,0.04507598280906677,0.05118978023529053,-0.45214114966101354,-0.4811844814719947,-0.1556632026111926,0.7347101029702345,0.20788607750470264,1.0481104772550627,-2.1586977635585596
1772660702304160512,1.8655805587768555,-0.17306649684906006,0.9464041590690613,-0.6210159659385681,0.8537890911102295,-0.20032420754432678,-0.4805355966091156,0.06593441963195801,0.03603282570838928,0.06656467914581299,-0.44943406957262694,-0.48390254040415653,-0.15990788458558408,0.7336735432656933,0.2016888248258664,1.0581584531024932,-2.160542854313804
1772660702314198528,1.8756184577941895,-0.2557554244995117,0.9053464531898499,-0.6230149269104004,0.8594537973403931,-0.19397400319576263,-0.4729835093021393,0.06591546535491943,0.00969359278678894,0.0742408037185669,-0.44690293722887947,-0.486334372586717,-0.16427759548498191,0.7326456197028461,0.1952114749897539,1.0676995215834022,-2.1617627075795367
1772660702324235520,1.885655403137207,-0.3309415280818939,0.8608919382095337,-0.6177786588668823,0.8648046255111694,-0.18718786537647247,-0.4659118354320526,0.059725403785705566,-0.016669586300849915,0.06353753805160522,-0.44460444055954856,-0.48839342896429244,-0.16886664277964825,0.7316303304983932,0.18829861909242512,1.076632842137861,-2.162138654305831
1772660702334273536,1.8956935405731201,-0.34124472737312317,0.8312366604804993,-0.623443067073822,0.8698686957359314,-0.180228590965271,-0.4591798782348633,0.047321856021881104,-0.020760178565979004,0.04548358917236328,-0.4424396513979079,-0.4902085718813098,-0.1735097237941517,0.7306415727769341,0.1812188360817133,1.0851000563296458,-2.1620602509133358
1772660702344310528,1.9057304859161377,-0.32045501470565796,0.8124174475669861,-0.6399003267288208,0.874740481376648,-0.17318640649318695,-0.4525877833366394,0.03349316120147705,-0.013840585947036743,0.028317153453826904,-0.4402249540690939,-0.4919216030155062,-0.17809897023331123,0.7297232602612508,0.17406405112301362,1.0933284675281651,-2.162033151416982
1772660702354347520,1.9157674312591553,-0.3167642652988434,0.8004826307296753,-0.639841616153717,0.8794782757759094,-0.16609643399715424,-0.4460155665874481,0.0158311128616333,-0.0022842586040496826,0.01005670428276062,-0.43793923746547053,-0.4935940659313912,-0.1826393105272859,0.7288463166108208,0.1668697922721915,1.101455806229295,-2.162104270713781
1772660702364385536,1.9258055686950684,-0.30276909470558167,0.7939118146896362,-0.6361994743347168,0.884068489074707,-0.1590631753206253,-0.4394563138484955,0.01734447479248047,0.016744449734687805,-0.0033537745475769043,-0.4356435265326721,-0.4952367858417939,-0.18711593247305974,0.7279717457134607,0.15974167486418117,1.1094842205184512,-2.162170769472484
1772660702374422528,1.935842514038086,-0.3050421178340912,0.7836014032363892,-0.6477554440498352,0.8885269165039062,-0.1520412266254425,-0.4329013228416443,0.0337601900100708,0.024386152625083923,-0.02983677387237549,-0.43329540695116925,-0.4968561137499409,-0.1915289601942065,0.7271216779756589,0.15263318258500458,1.1174310531072829,-2.1623201518529993
1772660702384459520,1.9458794593811035,-0.3405202031135559,0.7795488834381104,-0.6443636417388916,0.892863392829895,-0.1448703408241272,-0.42638900876045227,0.03558814525604248,0.017520487308502197,-0.05603289604187012,-0.4309800601183527,-0.49838115297328606,-0.19601459839736532,0.726257998762412,0.14538192743959893,1.125267554318324,-2.1622287576596393
1772660702394497280,1.9559173583984375,-0.3756118714809418,0.7785912156105042,-0.6435407400131226,0.8970927596092224,-0.13757380843162537,-0.4198785722255707,0.020433485507965088,0.012940019369125366,-0.05932372808456421,-0.4287598924289741,-0.49981374148734087,-0.20061640909049253,0.7253304077031981,0.13801151305070897,1.133039033461217,-2.161726230194118
1772660702404534528,1.9659545421600342,-0.42026591300964355,0.7826735377311707,-0.6607266664505005,0.901221752166748,-0.13005280494689941,-0.4133831262588501,0.0003285408020019531,0.0006430298089981079,-0.0571368932723999,-0.4265838085668608,-0.5011380863494689,-0.2053510693411887,0.7243740795765008,0.13042223511081855,1.140737777243435,-2.160891602493545
1772660702414571520,1.9759914875030518,-0.4935334622859955,0.7624186277389526,-0.6503994464874268,0.9052425026893616,-0.1222134530544281,-0.4069395661354065,-0.03607141971588135,-0.02601040154695511,-0.060421884059906006,-0.4245439080395398,-0.5022890326306794,-0.2103234388284759,0.7233479214667075,0.12251974895709379,1.1483279132963968,-2.1594177572672586
1772660702424609536,1.9860293865203857,-0.5438408255577087,0.7793872356414795,-0.6265659928321838,0.9091281294822693,-0.1142890453338623,-0.4005296528339386,-0.07091712951660156,-0.03662034869194031,-0.0520002543926239,-0.42271696488792754,-0.5032994173929636,-0.21546431867710722,0.7222016093786636,0.11453932981568592,1.1558165550767472,-2.1572335860869125
1772660702434646528,1.9960665702819824,-0.5750099420547485,0.7957872152328491,-0.6082596778869629,0.9129490256309509,-0.10640362650156021,-0.3939571976661682,-0.0837712287902832,-0.02242632955312729,-0.05231660604476929,-0.42104451709283275,-0.5042821525240734,-0.22072814212490505,0.7209022776086946,0.10660543877271206,1.1634148558936106,-2.154514118621762
1772660702444684544,2.0061044692993164,-0.5721109509468079,0.8125109076499939,-0.5849159359931946,0.9167138934135437,-0.09868130832910538,-0.3871661126613617,-0.0822870135307312,0.004717692732810974,-0.07047545909881592,-0.41944531625837944,-0.5053085945720517,-0.22600920599906876,0.7194780713016696,0.09884217697880801,1.1711797934322485,-2.1515435929581277
1772660702454721536,2.016141414642334,-0.5728359222412109,0.8345537781715393,-0.5651817321777344,0.9204391241073608,-0.09119781106710434,-0.3800984025001526,-0.06670987606048584,0.019405193626880646,-0.09287828207015991,-0.41787712289503015,-0.506429959344274,-0.23125634515900897,0.7179331135855039,0.0913247043658523,1.1791734116388868,-2.1484670288372003
1772660702464758272,2.0261783599853516,-0.5579943656921387,0.84734708070755,-0.5448700785636902,0.9241020679473877,-0.08391015231609344,-0.3728196918964386,-0.045272111892700195,0.02153220772743225,-0.10410904884338379,-0.4163328543378324,-0.5076144490847136,-0.2364692934995329,0.7162938388372424,0.08400892960865212,1.1873280041328746,-2.1452961505343495
1772660702474796544,2.0362164974212646,-0.5514193177223206,0.8781531453132629,-0.5396630764007568,0.9277344942092896,-0.07683821022510529,-0.3652461767196655,-0.03001415729522705,0.0156962051987648,-0.10821878910064697,-0.41477048526037835,-0.5089098989836363,-0.24163533067136997,0.7145548676825834,0.07691401984181243,1.1957354688043507,-2.1421301053819692
1772660702484833536,2.0462534427642822,-0.5307518839836121,0.9139623045921326,-0.5472533702850342,0.9313789010047913,-0.06980112940073013,-0.3572971522808075,-0.01603466272354126,0.006522923707962036,-0.12166094779968262,-0.4131183171600283,-0.5103203235819047,-0.2468290589658212,0.7127285113268564,0.06985793653800026,1.2044884050860523,-2.1390132166558233
1772660702494870528,2.0562903881073,-0.4838411509990692,0.9435814023017883,-0.5448682308197021,0.935025155544281,-0.06288696080446243,-0.3489600419998169,-0.014111518859863281,-0.0037786737084388733,-0.14650806784629822,-0.41131297924321286,-0.5118942433048057,-0.2519608232861388,0.7108456859265688,0.0629284885552497,1.2135965319024231,-2.136174375835183
1772660702504908544,2.066328525543213,-0.48520228266716003,1.011082410812378,-0.55586838722229,0.9387313723564148,-0.05605063587427139,-0.3400614261627197,-0.015315234661102295,-0.014734897762537003,-0.17489218711853027,-0.4093431286341989,-0.5136809685730532,-0.2571014311125511,0.7088504211842339,0.05608002449784632,1.2232446688664438,-2.1335447863408246
1772660702514945536,2.0763654708862305,-0.4935533106327057,1.0494440793991089,-0.5591537952423096,0.9425011873245239,-0.049131132662296295,-0.3305717408657074,-0.012813687324523926,-0.023760110139846802,-0.1878761649131775,-0.407280927654449,-0.5156163740131647,-0.2624002456069646,0.7066881652898491,0.04915092148084969,1.2334634960786135,-2.1307869569114506
1772660702524982528,2.086402416229248,-0.5379732251167297,1.0837149620056152,-0.5593852400779724,0.9462394714355469,-0.042162831872701645,-0.32070714235305786,-0.00527578592300415,-0.038312021642923355,-0.18271082639694214,-0.40521661907289236,-0.5176003874757172,-0.2678362719035368,0.7043813065471791,0.04217533397826022,1.2440189736512681,-2.1277426184457986
1772660702535020544,2.096440553665161,-0.6274318695068359,1.1107269525527954,-0.5593590140342712,0.949939489364624,-0.03497796878218651,-0.31046992540359497,0.027340173721313477,-0.05596441030502319,-0.19046086072921753,-0.4032536010288192,-0.5195380653228354,-0.27357858612307845,0.7018700355451744,0.03498510376928705,1.2549090198772552,-2.1239863682898115
1772660702545057536,2.1064774990081787,-0.7376976609230042,1.1313034296035767,-0.5344038605690002,0.9535407423973083,-0.027671923860907555,-0.29999077320098877,0.06798940896987915,-0.0710677057504654,-0.20357978343963623,-0.4015496464450179,-0.5213425000774485,-0.2796544482260502,0.6991089762512791,0.027675455937866748,1.265992890389409,-2.119172608820748
1772660702555095552,2.1165153980255127,-0.8877850770950317,1.1534866094589233,-0.49818259477615356,0.9570369720458984,-0.020308781415224075,-0.2892542779445648,0.09911549091339111,-0.09509345889091492,-0.23380181193351746,-0.40024519673948666,-0.5229662069312203,-0.2861454426656152,0.6960108110735476,0.020310177800360894,1.2772863130926904,-2.112919287155365
1772660702565132288,2.1265523433685303,-1.0484815835952759,1.1706472635269165,-0.45356452465057373,0.9604275226593018,-0.012989608570933342,-0.2782272398471832,0.09455001354217529,-0.1173815056681633,-0.2681137025356293,-0.39944350459224914,-0.5243873509830766,-0.29309432416167863,0.692501696565744,0.012989974326614948,1.2888239178559162,-2.1049633423849894
1772660702575169536,2.136589527130127,-1.1701545715332031,1.197742223739624,-0.3883306682109833,0.9637065529823303,-0.005878783762454987,-0.2668992280960083,0.05954784154891968,-0.12220350652933121,-0.2951277494430542,-0.39915552095044216,-0.5256322121076747,-0.30043496378290535,0.6885670197889984,0.005878817461937654,1.3006174584014516,-2.095360857727106
1772660702585207552,2.146627426147461,-1.236521601676941,1.2386187314987183,-0.33357474207878113,0.9669007062911987,0.0008086569723673165,-0.25515198707580566,0.00447392463684082,-0.10440061241388321,-0.3073785603046417,-0.39923329972874216,-0.526846445031857,-0.30798836448001066,0.6842432945216693,-0.0008086570595687723,1.3127913806982163,-2.0846216491056437
1772660702595244288,2.1566643714904785,-1.2615939378738403,1.300044298171997,-0.2757755219936371,0.9700556397438049,0.006905709393322468,-0.24278496205806732,-0.04218381643295288,-0.07248798757791519,-0.31684640049934387,-0.39951775303963427,-0.5281968168315635,-0.31561945324430823,0.6795425882115541,-0.0069057643373424136,1.3255546872274748,-2.07322038348155
1772660702605281536,2.166701555252075,-1.275512933731079,1.368813157081604,-0.1940753012895584,0.9731994271278381,0.012205340899527073,-0.2296387255191803,-0.07929378747940063,-0.033338747918605804,-0.3255217671394348,-0.3999443147959384,-0.5298135419453085,-0.3232309502890039,0.6744359849403266,-0.012205643696147121,1.3390722745732817,-2.06141046968873
1772660702615319552,2.176739454269409,-1.2640740871429443,1.4322688579559326,-0.11416982114315033,0.9763041734695435,0.016525203362107277,-0.21577106416225433,-0.10801804065704346,0.009216347709298134,-0.328708291053772,-0.40051861701997526,-0.5317306111992245,-0.3307219722653663,0.6689323029183418,-0.016525955232880755,1.3532847266858212,-2.049330590828218
1772660702625356544,2.1867763996124268,-1.2541275024414062,1.4756677150726318,-0.061925265938043594,0.979326069355011,0.02000286616384983,-0.20129647850990295,-0.1321428418159485,0.03117510862648487,-0.30303698778152466,-0.40116002004961115,-0.5339061087740989,-0.3380769502319494,0.6631129925628497,-0.020004199915602747,1.368073875425926,-2.0371576174816908
1772660702635394560,2.19681453704834,-1.2759817838668823,1.5227596759796143,-0.004187798127532005,0.9822334051132202,0.022795014083385468,-0.18627384305000305,-0.14551770687103271,0.02819986455142498,-0.26892638206481934,-0.4018762658142658,-0.536262482042532,-0.3453775211513487,0.6569873754345138,-0.022796989309775507,1.3833788223134302,-2.024762746471619
1772660702645431552,2.2068514823913574,-1.3003654479980469,1.5720795392990112,0.0542621985077858,0.9850083589553833,0.024823468178510666,-0.1707112342119217,-0.1496812105178833,0.026095107197761536,-0.2377055287361145,-0.40273559834168143,-0.5387816767868686,-0.352645268383125,0.6505072260731349,-0.024826018791300766,1.3991914622124668,-2.011993477159431
1772660702655468544,2.216888427734375,-1.3483176231384277,1.5866305828094482,0.10365637391805649,0.9876040816307068,0.026192421093583107,-0.15476423501968384,-0.14460188150405884,0.02655722387135029,-0.21416275203227997,-0.4037626492044754,-0.5413672309127627,-0.3599158254982309,0.6437062814485439,-0.02619541641922069,1.4153537418857123,-1.9987555432572368
1772660702665506560,2.226926565170288,-1.4100762605667114,1.5976203680038452,0.14050281047821045,0.9899819493293762,0.026995500549674034,-0.1385885775089264,-0.14441627264022827,0.022046275436878204,-0.1785348504781723,-0.40500585952466794,-0.5439129624241374,-0.3672388840202133,0.6366038496041655,-0.026998780812899723,1.431709195858846,-1.9848876605753003
1772660702675543552,2.2369635105133057,-1.4824554920196533,1.6030488014221191,0.17992384731769562,0.9921181797981262,0.027285102754831314,-0.12229924649000168,-0.14540797472000122,0.021085262298583984,-0.14640802145004272,-0.4064962030992743,-0.5463458184869037,-0.3746419959988762,0.6292141689065884,-0.027288489367523917,1.4481442463919798,-1.9702914292510332
1772660702685580544,2.2470004558563232,-1.5379397869110107,1.6100414991378784,0.21788614988327026,0.9940117597579956,0.027017466723918915,-0.10588007420301437,-0.14496701955795288,0.03261389583349228,-0.12371890991926193,-0.40822281589096204,-0.5486803778068332,-0.38211229247532286,0.6215256275647321,-0.0270207550079871,1.4646785251499528,-1.9550047478104307
1772660702695618304,2.2570383548736572,-1.620650291442871,1.6109988689422607,0.2567443251609802,0.9956523776054382,0.02618725597858429,-0.08939037472009659,-0.14511221647262573,0.04931320995092392,-0.11759507656097412,-0.4101937133705498,-0.5508904396236275,-0.3896466789518229,0.6135441047741654,-0.026190249458990508,1.48125568599317,-1.9390178141907028
1772660702705655552,2.267075538635254,-1.6976268291473389,1.5764321088790894,0.2780051529407501,0.9970223903656006,0.02485831081867218,-0.0729973316192627,-0.14617693424224854,0.05644049867987633,-0.0994727686047554,-0.4124649991299448,-0.5528723883595481,-0.39728259112314973,0.6052861876591218,-0.024860872492842873,1.4977113925715153,-1.9221667414981722
1772660702715692544,2.2771124839782715,-1.7662220001220703,1.5315829515457153,0.2933932840824127,0.9981045722961426,0.023129791021347046,-0.05702904239296913,-0.14701509475708008,0.04356636106967926,-0.06623142957687378,-0.41500735568349645,-0.5545395424519766,-0.4049337894711136,0.5968948277541591,-0.02313185362027611,1.5137210398494063,-1.904646173180522
1772660702725730304,2.2871503829956055,-1.8470971584320068,1.4763458967208862,0.32905885577201843,0.9989171624183655,0.020921507850289345,-0.04155594855546951,-0.14798027276992798,0.024702267721295357,-0.041558682918548584,-0.4178755213673882,-0.5558724512820853,-0.41258677014397344,0.5883519821104434,-0.020923033784625084,1.5292193026754244,-1.8863810754214159
1772660702735767552,2.297187566757202,-1.9064706563949585,1.3952711820602417,0.3848687410354614,0.9994797110557556,0.017988039180636406,-0.026777785271406174,-0.14179831743240356,0.02708640694618225,-0.010560456663370132,-0.42116830858489673,-0.5568709782695167,-0.42012595800725056,0.5796605110697287,-0.017989009233590744,1.5440110089649217,-1.8673963862680494
1772660702745805568,2.307225465774536,-1.9513630867004395,1.3163764476776123,0.4215628504753113,0.9998145699501038,0.014339584857225418,-0.012864508666098118,-0.1297125220298767,0.03441222384572029,0.024705348536372185,-0.42484178860211214,-0.5575425867466843,-0.42745059330242985,0.5709131909258971,-0.014340076292171927,1.5579301425626364,-1.8479502456993082
1772660702755842560,2.3172624111175537,-1.9763193130493164,1.2200933694839478,0.45651909708976746,0.999949038028717,0.010079732164740562,9.27185028558597e-05,-0.11939501762390137,0.03334680199623108,0.05259585380554199,-0.4288444883176016,-0.5578802039194288,-0.43452967369993384,0.5621795970677694,-0.010079903257512967,1.5708890500210055,-1.8281946203818222
1772660702765879296,2.3272993564605713,-2.0029988288879395,1.128093957901001,0.49564918875694275,0.9999143481254578,0.00519668310880661,0.012010974809527397,-0.11871933937072754,0.02509200945496559,0.07500994205474854,-0.43316746656600474,-0.5579008797697176,-0.4413072579145174,0.5534983799300119,-0.005196706634632083,1.5828077528942974,-1.808252426786327
1772660702775917568,2.3373374938964844,-2.0314650535583496,1.032928228378296,0.5308029651641846,0.9997380971908569,-0.0003343435237184167,0.022888612002134323,-0.11572003364562988,0.01676802895963192,0.08738672733306885,-0.4378347683552188,-0.5576119370144832,-0.4477870410601178,0.5448454268092522,0.0003343435438072894,1.5936869369015971,-1.7880771694211348
1772660702785954560,2.347374439239502,-2.0448286533355713,0.9326700568199158,0.5741815567016602,0.999444842338562,-0.006446962244808674,0.03268367424607277,-0.11533546447753906,0.007423518691211939,0.10038816928863525,-0.44281335366034535,-0.557022378601627,-0.4539470313413179,0.5362596285537509,0.006447006904915388,1.6034865067753774,-1.7677682738605751
1772660702795991296,2.3574113845825195,-2.030031204223633,0.8413172364234924,0.6116026639938354,0.9990565776824951,-0.013152411207556725,0.041384052485227585,-0.11609166860580444,-0.008362467400729656,0.11060868948698044,-0.4480628353622899,-0.5561887061806251,-0.45972399274949277,0.5277759846223723,0.013152790746306672,1.612195792052196,-1.7475167007512988
1772660702806029568,2.3674495220184326,-2.030949831008911,0.7591592669487,0.6384337544441223,0.9985895752906799,-0.020341847091913223,0.049039773643016815,-0.11222189664840698,-0.02181815169751644,0.11386298388242722,-0.45350862218946286,-0.5551494273448536,-0.4651118144497307,0.5194323617376135,0.020343250444823838,1.6198659421023942,-1.727470543849412
1772660702816066560,2.37748646736145,-2.051715612411499,0.6614826917648315,0.6720941066741943,0.9980584979057312,-0.027959467843174934,0.05565433204174042,-0.11109566688537598,-0.022516580298542976,0.12130188941955566,-0.4592164696950918,-0.5538389005515106,-0.47020169918770144,0.5111683167835521,0.027963111219897183,1.626501230077893,-1.7073345389841004
1772660702826103552,2.3875234127044678,-2.0526554584503174,0.5659050345420837,0.6973826885223389,0.9974788427352905,-0.03604712337255478,0.06112772971391678,-0.09928548336029053,-0.02482018619775772,0.1441030502319336,-0.46521105756323483,-0.5522658843957142,-0.4749381627987776,0.5030057663215451,0.03605493434783877,1.6320020185204878,-1.6871590175478808
1772660702836141568,2.397561550140381,-2.0553407669067383,0.47376736998558044,0.7198419570922852,0.9968637824058533,-0.044446077197790146,0.06547851860523224,-0.07993245124816895,-0.040621694177389145,0.15073847770690918,-0.4714328033388126,-0.5504289173409931,-0.4793404490147573,0.4949868296164957,0.04446072330403364,1.6363866273636953,-1.6670075177911283
1772660702846178560,2.4075984954833984,-2.0665223598480225,0.398751437664032,0.7534390091896057,0.9962090849876404,-0.05319546163082123,0.06882891058921814,-0.07105356454849243,-0.05874297022819519,0.15591776371002197,-0.47787885786391643,-0.5483678197414666,-0.4834327127539774,0.48704949037963285,0.053220582390058994,1.639777529407992,-1.6468260544199755
1772660702856216320,2.4176363945007324,-2.0730948448181152,0.34144365787506104,0.7904831171035767,0.9955024123191833,-0.062369007617235184,0.0713089108467102,-0.059452056884765625,-0.06653720885515213,0.15856468677520752,-0.4845388611094961,-0.5461422465502572,-0.48721976851463417,0.4791321167515874,0.06240951200758678,1.6423052694877307,-1.6266117911865112
1772660702866253312,2.42767333984375,-2.060682535171509,0.3010488450527191,0.8176822066307068,0.994729220867157,-0.07190532237291336,0.07309793680906296,-0.04738736152648926,-0.07160356640815735,0.15932393074035645,-0.4913324744797888,-0.5438121517289439,-0.4907314039367795,0.471214820083143,0.07196742741604709,1.644149735706215,-1.60644626636245
1772660702876290560,2.4377105236053467,-2.0132343769073486,0.2631813585758209,0.8205816149711609,0.9938888549804688,-0.08159692585468292,0.0743415355682373,-0.0405656099319458,-0.08212985098361969,0.1562187671661377,-0.49811168473572837,-0.5414362538600052,-0.49398132488413543,0.46337229460027374,0.08168774773255612,1.6454559355370197,-1.5865838276554194
1772660702886328576,2.4477484226226807,-1.954726219177246,0.23837214708328247,0.8098674416542053,0.9929949641227722,-0.09121514856815338,0.07510316371917725,-0.03590285778045654,-0.10092347115278244,0.14924679696559906,-0.504753559416807,-0.5390435037806918,-0.49697452758173327,0.4557105820332353,0.09134211604092039,1.6462855746156757,-1.5672616507701986
1772660702896365312,2.4577853679656982,-1.8814780712127686,0.21238741278648376,0.799129843711853,0.992052435874939,-0.10068172961473465,0.07546719908714294,-0.035570502281188965,-0.12641483545303345,0.14970672130584717,-0.5112031055800818,-0.5366679136642691,-0.4997210732829938,0.4482609434079508,0.1008526079904048,1.6467218787021116,-1.5485822804120575
1772660702906402560,2.467822551727295,-1.7862030267715454,0.2004583179950714,0.7886556386947632,0.9910585880279541,-0.10996165126562119,0.07557333260774612,-0.0254824161529541,-0.1443871259689331,0.14892923831939697,-0.5173879241611802,-0.5343819560194701,-0.5022176722605222,0.4410476922149547,0.1101844671209185,1.6469041965581506,-1.5307168972382372
1772660702916440576,2.477860450744629,-1.672807216644287,0.2168295681476593,0.7711629271507263,0.990005612373352,-0.11902382969856262,0.07564574480056763,-0.00979626178741455,-0.15741965174674988,0.14629340171813965,-0.5232072806939118,-0.532287707579676,-0.5044726656518419,0.43408672681224914,0.11930666708089455,1.6470575569390908,-1.513884242954189
1772660702926477312,2.4878973960876465,-1.5689996480941772,0.239826500415802,0.7588149309158325,0.9888885617256165,-0.12783919274806976,0.0758720263838768,0.009188830852508545,-0.17092792689800262,0.13865125179290771,-0.5286100784052877,-0.5304320700442411,-0.5065351261497695,0.42735860217841193,0.12818998499023973,1.6473708559816425,-1.4981237273065378
1772660702936514304,2.497934341430664,-1.46006441116333,0.271205872297287,0.7404994368553162,0.9877005815505981,-0.13642814755439758,0.07638826966285706,0.027985572814941406,-0.1878974437713623,0.12617218494415283,-0.5335733693150109,-0.5288555600506453,-0.5084347863120018,0.4208389696617604,0.13685494199020967,1.6479821798933307,-1.483457035098412
1772660702946552576,2.507972478866577,-1.3625576496124268,0.3137328326702118,0.7224040627479553,0.986443817615509,-0.14475283026695251,0.0772990733385086,0.04578268527984619,-0.2138744741678238,0.11253559589385986,-0.5380953075420156,-0.5275428140584169,-0.5102431925689896,0.4144923400261663,0.14526317286102838,1.648997873473066,-1.4697730355866165
1772660702956589568,2.5180094242095947,-1.250518798828125,0.3668949604034424,0.6944023966789246,0.9851203560829163,-0.15278100967407227,0.078715018928051,0.06088501214981079,-0.23969034850597382,0.11308789998292923,-0.542137382539879,-0.5265231420217404,-0.5119871987017298,0.40832539371926985,0.1533817084696922,1.6505308879168317,-1.457132709182202
1772660702966627584,2.528047561645508,-1.1205328702926636,0.42320510745048523,0.6597487926483154,0.9837433099746704,-0.16041140258312225,0.08073069900274277,0.07961124181747437,-0.25514650344848633,0.12149406224489212,-0.5456298007052418,-0.5258305963970191,-0.513680381089771,0.4023964053101841,0.16110744577292826,1.652677642552856,-1.4456958539499625
1772660702976664576,2.5380845069885254,-1.011198878288269,0.48226749897003174,0.6140397787094116,0.9823212027549744,-0.16757610440254211,0.08344819396734238,0.10001534223556519,-0.2622640132904053,0.13594269752502441,-0.5485507250668482,-0.5254555888400513,-0.5153838584406989,0.396696535030356,0.16837049188687828,1.6555428685808016,-1.4354181147274088
1772660702986701568,2.548121452331543,-0.8999528288841248,0.5391600728034973,0.5583908557891846,0.9808775186538696,-0.17417974770069122,0.08683684468269348,0.1250031590461731,-0.2636559009552002,0.1623086929321289,-0.5509124613805608,-0.5253461159115022,-0.5171362296314987,0.3912505807326074,0.17507271676817138,1.6590958742015998,-1.4262220351088666
1772660702996739328,2.558159351348877,-0.7724258899688721,0.5986987948417664,0.49041396379470825,0.979436457157135,-0.18010470271110535,0.09092129021883011,0.147882878780365,-0.26429229974746704,0.1935940980911255,-0.5526841187105306,-0.5254876004180121,-0.5189638000688676,0.3861084309435491,0.1810928964154306,1.6633612470435166,-1.4181516795549092
1772660703006776576,2.5681965351104736,-0.6115227341651917,0.6513558626174927,0.40685009956359863,0.9780243635177612,-0.1851881593465805,0.09578040987253189,0.16629338264465332,-0.2597734332084656,0.21310319006443024,-0.5537565422009757,-0.525939165321975,-0.5208437376221741,0.38139688021902324,0.18626332461732306,1.6684175716663707,-1.4115319180048735
1772660703016813568,2.578233480453491,-0.43317610025405884,0.7073598504066467,0.3074812889099121,0.976681649684906,-0.18921180069446564,0.1014479473233223,0.17653179168701172,-0.2536744773387909,0.2331925481557846,-0.5540394305570764,-0.5267166558939812,-0.5227748462331795,0.37724824316575023,0.19035939233527302,1.6742952072874562,-1.4066001728399073
1772660703026852096,2.5882720947265625,-0.24978576600551605,0.7659645676612854,0.20867693424224854,0.975414514541626,-0.1920950710773468,0.10800988972187042,0.18584036827087402,-0.2385232299566269,0.255271315574646,-0.5534916835504049,-0.5278341203292111,-0.5247819434097954,0.3736871364427776,0.19329652903514288,1.6810793406237696,-1.4034150055845827
1772660703036889088,2.59830904006958,-0.08244694024324417,0.8220438361167908,0.10354092717170715,0.9742226004600525,-0.19380801916122437,0.11544986069202423,0.19545507431030273,-0.21933895349502563,0.2758464813232422,-0.5521272979227361,-0.5292710696533666,-0.5268748106550047,0.37071613963002825,0.1950422859930702,1.6887508257968706,-1.4019247727883544
1772660703046926080,2.6083459854125977,0.05849980190396309,0.8590724468231201,-0.004027342423796654,0.9731174111366272,-0.19430947303771973,0.12363868206739426,0.2084011435508728,-0.20173241198062897,0.2980990409851074,-0.5500256118176492,-0.5309275672541686,-0.5290890831986503,0.3683104182116788,0.1955534611321767,1.6971734308087567,-1.4018627202272436
1772660703056964096,2.6183841228485107,0.19571158289909363,0.8710333704948425,-0.11768080294132233,0.9721238613128662,-0.1935565024614334,0.13232968747615814,0.2164900302886963,-0.1845257580280304,0.32853150367736816,-0.5472751067151688,-0.5327090738685013,-0.5313999301212697,0.3665039280343852,0.19478591915095814,1.7060890747788322,-1.403061927562744
1772660703067001088,2.6284210681915283,0.3535526394844055,0.8625677227973938,-0.2387142777442932,0.9712752103805542,-0.19144776463508606,0.1413222849369049,0.22777557373046875,-0.17052115499973297,0.3604172170162201,-0.5438955821277811,-0.534578438968428,-0.5337481006070346,0.3653988961858207,0.19263698818349892,1.7152841734478632,-1.4055846155617366
1772660703077039104,2.6384589672088623,0.5070645809173584,0.8527368903160095,-0.35987797379493713,0.9705864191055298,-0.18790613114833832,0.15050943195819855,0.23476624488830566,-0.151647686958313,0.3751711845397949,-0.5398825294689115,-0.5365261946136802,-0.5360917453094814,0.36506447261651476,0.1890298731693929,1.724641582142692,-1.4095020161813285
1772660703087076096,2.648496150970459,0.655787467956543,0.8120797276496887,-0.469791978597641,0.9700576663017273,-0.18297143280506134,0.1597171574831009,0.2303512692451477,-0.12814001739025116,0.382168173789978,-0.5353091784939449,-0.5385044655053517,-0.5383971763653944,0.36549350102295547,0.18400805880156731,1.7339793555007816,-1.4146833321597747
1772660703097113088,2.6585330963134766,0.8024419546127319,0.7698346972465515,-0.5712683796882629,0.969676673412323,-0.17675578594207764,0.16877467930316925,0.22104310989379883,-0.10545556247234344,0.3942441940307617,-0.5302353333552428,-0.5405213486614657,-0.5405774768289129,0.36669235310240145,0.1776893518995737,1.743122529438283,-1.421144063444165
1772660703107151104,2.6685709953308105,0.922951877117157,0.7088584303855896,-0.6734203100204468,0.9694536924362183,-0.16925181448459625,0.1775207817554474,0.2146894931793213,-0.07752864062786102,0.394989013671875,-0.5247259823701664,-0.5425051568525069,-0.5426311303812723,0.3686494029201438,0.17007048572016448,1.7519041225187113,-1.4287040373445863
1772660703117188096,2.6786081790924072,1.0240648984909058,0.6271471977233887,-0.7512140870094299,0.9694059491157532,-0.16055645048618317,0.1856708824634552,0.20501720905303955,-0.05369222164154053,0.3860607147216797,-0.5189171202624209,-0.5443618631705135,-0.5445232790046,0.3713348438403142,0.16125438828041874,1.7600351023777097,-1.4371080420560247
1772660703127225088,2.688645124435425,1.0658721923828125,0.5543190240859985,-0.8184698224067688,0.9695062637329102,-0.1509263962507248,0.19307750463485718,0.19481563568115234,-0.0437147319316864,0.38637495040893555,-0.5129554489055816,-0.5460401947226338,-0.5462406594163663,0.37461711108002893,0.15150533149249032,1.76737477850147,-1.4460433946730595
1772660703137263104,2.698683023452759,1.0706654787063599,0.4596579074859619,-0.8616970777511597,0.9697378873825073,-0.14061957597732544,0.19958657026290894,0.18509310483932495,-0.036702826619148254,0.3753189146518707,-0.5070366469753309,-0.5474215103116572,-0.5478348087723899,0.3783129037027751,0.1410871846837319,1.7737769005996005,-1.454971160451923
1772660703147300096,2.7087199687957764,1.0543421506881714,0.3696103096008301,-0.8852590918540955,0.9700822830200195,-0.1299455165863037,0.20507176220417023,0.1712293028831482,-0.02679276466369629,0.3619905710220337,-0.5012993762648782,-0.5484978914337514,-0.5492594480258262,0.3823127490599675,0.13031403632232397,1.7791254145853768,-1.463711509083433
1772660703157337088,2.718757152557373,1.0122668743133545,0.2780035734176636,-0.8992645144462585,0.9705139398574829,-0.11912129819393158,0.20955389738082886,0.1588348150253296,-0.016147874295711517,0.3321179151535034,-0.4958352680447547,-0.5492510553172876,-0.5505453879012071,0.38648474471758876,0.11940483490693832,1.7834521844651474,-1.4720280664721777
1772660703167375104,2.728795051574707,0.9858863949775696,0.19137945771217346,-0.8916090130805969,0.9710363149642944,-0.10827486217021942,0.2129911631345749,0.13675183057785034,-0.008836343884468079,0.2987581491470337,-0.49068221526225736,-0.5497052469165932,-0.5516518124193547,0.3908138304138032,0.10848754387721894,1.7867210038567334,-1.4799607971640514
1772660703177412096,2.7388319969177246,0.98455411195755,0.10924424976110458,-0.8812816739082336,0.9716349840164185,-0.09749648720026016,0.2154528945684433,0.11169332265853882,-0.009482890367507935,0.263291597366333,-0.4858055287687519,-0.5499441698997042,-0.5525285997923302,0.3953056448137539,0.09765161199888553,1.7890081975194887,-1.4877157185752736
1772660703187450112,2.7488701343536377,0.9966187477111816,0.043247390538454056,-0.8707118630409241,0.9722862243652344,-0.08678991347551346,0.2170882523059845,0.08334743976593018,-0.013887614011764526,0.21873334050178528,-0.48111384992824824,-0.5500651900720653,-0.5531477296128817,0.399981802373947,0.08689923919947398,1.7904693096649364,-1.4955560335218459
1772660703197487104,2.7589070796966553,0.9856363534927368,-0.015917260199785233,-0.8462684154510498,0.9729562401771545,-0.07624249905347824,0.21804389357566833,0.056981444358825684,-0.017324388027191162,0.17398487031459808,-0.4766072531723744,-0.5500858321333691,-0.5535589636363965,0.40475118646222036,0.07631655944047169,1.7912582859267596,-1.5033851054885452
1772660703207524096,2.768944025039673,0.9789177179336548,-0.06996850669384003,-0.8171502351760864,0.9736427664756775,-0.06596007943153381,0.21833281219005585,0.02945476770401001,-0.025546878576278687,0.13696813583374023,-0.4723116155644138,-0.5500266719057377,-0.5537482007441068,0.40957956042192206,0.06600800572947181,1.791390365044671,-1.5112008670685626
1772660703217562112,2.778982162475586,0.9760148525238037,-0.11502120643854141,-0.7940906882286072,0.9743425250053406,-0.05594020336866379,0.21800771355628967,0.0014417767524719238,-0.03968663513660431,0.10502086579799652,-0.46820617218268856,-0.5499030311108596,-0.553724220820912,0.4144624390858014,0.05596942108670781,1.7909192938347078,-1.5190371203458333
1772660703227599104,2.7890191078186035,0.9839848875999451,-0.1524181216955185,-0.7619940042495728,0.9750306010246277,-0.046199649572372437,0.2172114998102188,-0.02558302879333496,-0.04489532858133316,0.06597638130187988,-0.4642537656414843,-0.5497488365937853,-0.5535178114654079,0.4193598436806834,0.046216099929354694,1.7899910508459513,-1.5269083146841167
1772660703237636096,2.799056053161621,0.9981422424316406,-0.1712711751461029,-0.7402223944664001,0.9756905436515808,-0.03668975830078125,0.21605969965457916,-0.047147512435913086,-0.038673389703035355,0.029286369681358337,-0.4603733889888008,-0.5496233301802922,-0.5531220864510009,0.42429525336492646,0.03669799531244195,1.7887224600978453,-1.534989104905277
1772660703247674112,2.809094190597534,0.9902342557907104,-0.18859103322029114,-0.7146928310394287,0.9763098359107971,-0.02741280570626259,0.21463358402252197,-0.0679541826248169,-0.04245717078447342,-0.014178887009620667,-0.45656567975609325,-0.5495126515293595,-0.552587219971957,0.429221317860748,0.027416239422566845,1.7871956071543693,-1.5431726205216227
1772660703257711104,2.8191311359405518,0.953004777431488,-0.1954297572374344,-0.6914567351341248,0.9768795371055603,-0.01845705695450306,0.2129926234483719,-0.09530293941497803,-0.05293881893157959,-0.04888439178466797,-0.4528932991262917,-0.5493780468173896,-0.5519783302523199,0.43404078388075706,0.018458105985643136,1.7854703081569288,-1.5512070191068525
1772660703267748096,2.8291680812835693,0.8994792699813843,-0.19959788024425507,-0.666111171245575,0.9773929119110107,-0.009820458479225636,0.21120329201221466,-0.11699551343917847,-0.07056284695863724,-0.07903170585632324,-0.4493909749593667,-0.5491688570169752,-0.5513757452134158,0.43868686788231104,0.009820616613128027,1.7836125889850252,-1.5588606717338604
1772660703277786112,2.8392059803009033,0.817202091217041,-0.19985513389110565,-0.6397088170051575,0.9778492450714111,-0.001602726522833109,0.20930451154708862,-0.13533520698547363,-0.09625190496444702,-0.10684168338775635,-0.44612827211826683,-0.5488555626305062,-0.5508264965064604,0.44307712521473397,0.0016027271554847277,1.7816602612017243,-1.565915836344922
1772660703287823104,2.8492431640625,0.7359203100204468,-0.19463853538036346,-0.6077162623405457,0.9782471656799316,0.0061473664827644825,0.20735220611095428,-0.15164798498153687,-0.11269950866699219,-0.13346907496452332,-0.44313849233029223,-0.5484264281480848,-0.5503676561575381,0.4471602592233264,-0.006147405262759674,1.7796678629832743,-1.572244043514411
1772660703297861120,2.859281063079834,0.6504256129264832,-0.17277131974697113,-0.5721012949943542,0.9785683751106262,0.013352992944419384,0.20548851788043976,-0.1608651876449585,-0.11435090005397797,-0.15948332846164703,-0.4404120074495578,-0.5479295751795568,-0.5500158549123928,0.45088020377179505,-0.013353390033302664,1.7777779136143024,-1.5778365679641566
1772660703307898112,2.8693180084228516,0.5463111996650696,-0.13925011456012726,-0.527062714099884,0.9787939786911011,0.019988415762782097,0.20386989414691925,-0.1678960919380188,-0.10137879848480225,-0.18688678741455078,-0.43793765748569796,-0.5473864779458661,-0.5498208705589013,0.4541758468621555,-0.01998974649231938,1.7761471468473773,-1.582614274687689
1772660703317935104,2.8793551921844482,0.44780004024505615,-0.11056893318891525,-0.4718010723590851,0.9789291620254517,0.02589184045791626,0.2025522142648697,-0.17416536808013916,-0.08482129871845245,-0.2059396654367447,-0.4357766523202911,-0.5468186042578528,-0.5497867959685475,0.4569711438899687,-0.02589473431918189,1.7748291466430535,-1.5864686465307196
1772660703327973120,2.8893930912017822,0.3765285015106201,-0.07693028450012207,-0.4159945249557495,0.9789897203445435,0.031070750206708908,0.20152892172336578,-0.17953592538833618,-0.0760841965675354,-0.2168792486190796,-0.43388382264673786,-0.5462869315173667,-0.5498500227698861,0.4593260472208513,-0.03107575224208697,1.773814318263908,-1.5896261877352182
1772660703338010112,2.8994300365448,0.30998221039772034,-0.03445525839924812,-0.3571445047855377,0.9789679050445557,0.03555561602115631,0.2008916735649109,-0.18419873714447021,-0.06802630424499512,-0.2262975126504898,-0.43219936565616823,-0.5458440696972159,-0.5500000770353931,0.4612567864056105,-0.03556311061518522,1.7731941494490033,-1.5922186535830858
1772660703348047104,2.9094669818878174,0.2520081400871277,0.010031248442828655,-0.28279972076416016,0.9788655638694763,0.03927573934197426,0.20069724321365356,-0.18571382761001587,-0.051513269543647766,-0.22944489121437073,-0.4307120380108059,-0.5455436171652317,-0.5502097618271179,0.4627509195198438,-0.03928584478488114,1.7730241404573661,-1.5943291608666272
1772660703358085120,2.9195051193237305,0.19185927510261536,0.05731154605746269,-0.20691147446632385,0.9786895513534546,0.042102232575416565,0.20098361372947693,-0.18146347999572754,-0.03055134415626526,-0.22721347212791443,-0.4294353589669136,-0.5454432638876797,-0.5504393270457513,0.4637817959339213,-0.0421146799726653,1.7733403129564504,-1.5960251853326646
1772660703368122112,2.929542064666748,0.14301876723766327,0.08447019755840302,-0.1323956996202469,0.9784505367279053,0.044040851294994354,0.20173031091690063,-0.1772419810295105,-0.012241542339324951,-0.22809740900993347,-0.4283739608561958,-0.5455396208472431,-0.5506829163453307,0.46436050004877416,-0.04405510178805229,1.7741205719693545,-1.5973134618027884
1772660703378159104,2.9395790100097656,0.11709080636501312,0.10681318491697311,-0.0617312490940094,0.9781986474990845,0.04519643634557724,0.20269417762756348,-0.18022489547729492,3.061071038246155e-05,-0.2163355052471161,-0.4275217588884183,-0.5458066596304023,-0.5508558585049351,0.46462688443987393,-0.04521183777162284,1.7751164725072988,-1.598394128548642
1772660703388197120,2.9496171474456787,0.10131237655878067,0.1257738173007965,-0.005470908246934414,0.9779398441314697,0.04570911079645157,0.20382504165172577,-0.18288052082061768,0.017584331333637238,-0.2039928138256073,-0.42682550617300546,-0.5462344385695236,-0.5509450570332983,0.4646585781160252,-0.0457250440121574,1.776277533682793,-1.5993894129150164
1772660703398234112,2.9596540927886963,0.09645739197731018,0.1304699182510376,0.04638256877660751,0.9776803851127625,0.04571755975484848,0.20506419241428375,-0.1828499436378479,0.043134357780218124,-0.19213995337486267,-0.42623940211490374,-0.5468051245171586,-0.5509412440952033,0.46452988001796874,-0.045733502012871165,1.777544894209977,-1.6003993015874556
1772660703408271104,2.969691038131714,0.09064743667840958,0.1267974078655243,0.08366682380437851,0.9774396419525146,0.045267608016729355,0.2063077688217163,-0.1815716028213501,0.06758637726306915,-0.18097814917564392,-0.4257705485594954,-0.5474945986336923,-0.5508207937937115,0.46429053321430336,-0.045283083266775236,1.7788126904350499,-1.601464632368398
1772660703418309120,2.979729175567627,0.058711033314466476,0.12073725461959839,0.12227346748113632,0.977226734161377,0.04439113289117813,0.20750217139720917,-0.1710134744644165,0.09144262224435806,-0.16938570141792297,-0.4254648653875516,-0.5482353376484485,-0.5506260984862142,0.4639272301289883,-0.04440572541767105,1.780026522047401,-1.6024136800648867
1772660703428346112,2.9897661209106445,0.010891047306358814,0.10592182725667953,0.1538921296596527,0.9770498275756836,0.043102845549583435,0.2086038440465927,-0.16014015674591064,0.10919515043497086,-0.1543894112110138,-0.4253801524718731,-0.548954649698207,-0.5504095906826386,0.4634109566043835,-0.04311620235206225,1.7811419524748822,-1.6030337123381115
1772660703438384128,2.9998040199279785,-0.04094249755144119,0.0933370590209961,0.18591955304145813,0.9769134521484375,0.0414007194340229,0.20958533883094788,-0.14814764261245728,0.1230127364397049,-0.14647497236728668,-0.4255432085747319,-0.5496237789062669,-0.5501875796846745,0.46273132071076883,-0.041412554073682245,1.7821311357940939,-1.603242981927343
1772660703448421120,3.009840965270996,-0.12102056294679642,0.08110702037811279,0.21992972493171692,0.9768085479736328,0.039258088916540146,0.21048419177532196,-0.13308918476104736,0.13103000819683075,-0.14050737023353577,-0.4259881560287233,-0.5502123706440515,-0.5500076735859301,0.4618353703756017,-0.03926817996874018,1.7830326772534189,-1.6028776839384118
1772660703458458112,3.0198781490325928,-0.21001292765140533,0.07373060286045074,0.25985848903656006,0.9767370820045471,0.03656887263059616,0.21129944920539856,-0.11179262399673462,0.13934969902038574,-0.13479185104370117,-0.4267874982095347,-0.5506923296648664,-0.5498978817512666,0.4606546900993642,-0.036577028681514995,1.7838452435537047,-1.6017515416125505
1772660703468496128,3.0299160480499268,-0.300613135099411,0.06068270653486252,0.29035648703575134,0.976689875125885,0.03331972658634186,0.21205303072929382,-0.08365410566329956,0.13985228538513184,-0.1258104145526886,-0.42794814542905063,-0.5510575787218421,-0.5498745832337172,0.4591663987242051,-0.033325894954979216,1.784592186481059,-1.5998129841637576
1772660703478533120,3.0399529933929443,-0.38543832302093506,0.05109013617038727,0.3201749622821808,0.9766653776168823,0.02958109602332115,0.21271991729736328,-0.054363131523132324,0.13657185435295105,-0.11681842803955078,-0.42944524242193666,-0.5512974438984609,-0.5499373479766666,0.45740230872371485,-0.029585412165670084,1.785249372656293,-1.5971023573968857
1772660703488570112,3.049990177154541,-0.44928866624832153,0.04263273626565933,0.345857709646225,0.9766520857810974,0.02543257549405098,0.21331629157066345,-0.028379380702972412,0.1322517693042755,-0.11446988582611084,-0.43122705914056153,-0.5514233410786239,-0.5500822179586086,0.45539547519702195,-0.025435317156863826,1.7858351182350418,-1.5937112242594818
1772660703498608128,3.060028076171875,-0.47332796454429626,0.03316359966993332,0.35884591937065125,0.976651132106781,0.020982496440410614,0.2138039916753769,-0.006756842136383057,0.13056780397891998,-0.10722139477729797,-0.4332095594388948,-0.551476473272396,-0.5502505724270176,0.4532410161663419,-0.020984037080311713,1.786311880710231,-1.5899091378831922
1772660703508645120,3.0700650215148926,-0.4839659631252289,0.03155265375971794,0.3588656187057495,0.9766513705253601,0.016430728137493134,0.21420183777809143,0.020785272121429443,0.13533316552639008,-0.09536632895469666,-0.43526242288340156,-0.5514984699185179,-0.55040926602421,0.4510496814505346,-0.016431467136016186,1.7867005389606934,-1.5859917159109922
1772660703518682112,3.08010196685791,-0.48525699973106384,0.029089896008372307,0.36211031675338745,0.9766413569450378,0.011849229224026203,0.2145497351884842,0.05355590581893921,0.13553538918495178,-0.08269855380058289,-0.4373425450294431,-0.5514960858041684,-0.5505696463156973,0.4488393392042198,-0.011849506295563448,1.7870425242139976,-1.5820067173683807
1772660703528720128,3.0901401042938232,-0.48331716656684875,0.0396442674100399,0.35395199060440063,0.9766035676002502,0.00727241113781929,0.21492546796798706,0.0991106629371643,0.12955312430858612,-0.05829402804374695,-0.43939285682785956,-0.5515108857054504,-0.5507254069608837,0.44662212075545077,-0.0072724752433569635,1.7874176185806747,-1.5780677337881865
1772660703538757120,3.100177049636841,-0.4808523952960968,0.04608272761106491,0.3332861065864563,0.9765334725379944,0.002845447976142168,0.21534699201583862,0.15122830867767334,0.10919981449842453,-0.04411280155181885,-0.44138995466217573,-0.5514878225694116,-0.5509398110607558,0.44441135678514265,-0.002845451719355747,1.7878443492240315,-1.5740768907922225
1772660703548794112,3.1102139949798584,-0.45607754588127136,0.06463111191987991,0.3014592230319977,0.9764197468757629,-0.0012792692286893725,0.21587663888931274,0.19043505191802979,0.08099120855331421,-0.03309156000614166,-0.443246066148214,-0.5514428203967997,-0.5512251191810454,0.4422607347432127,0.0012792696061941504,1.7883860642909644,-1.570163809528378
1772660703558832128,3.1202521324157715,-0.41373857855796814,0.09345011413097382,0.26214122772216797,0.9762397408485413,-0.004998117219656706,0.2166355699300766,0.22098010778427124,0.0527733713388443,-0.03678023815155029,-0.4448687600427547,-0.5514189383147408,-0.5515930905131576,0.4401976838236353,0.004998137800354878,1.7891659699574414,-1.5664699520003802
1772660703568869120,3.130289077758789,-0.33622807264328003,0.13294264674186707,0.1959693878889084,0.9759746789932251,-0.008053526282310486,0.21773438155651093,0.24184435606002808,0.03318475931882858,-0.04177001118659973,-0.4460870153175172,-0.5514728320028847,-0.5520370536109306,0.43833671134879,0.00805361312894313,1.79029615185483,-1.5633187277090639
1772660703578907136,3.140326976776123,-0.26825380325317383,0.18376962840557098,0.11975692212581635,0.9756088256835938,-0.010264620184898376,0.21927602589130402,0.255088746547699,0.010783428326249123,-0.0521007776260376,-0.4468183526924034,-0.5515960278025338,-0.5526118318153486,0.4367096475994944,0.01026480058545639,1.7918805542917058,-1.5607426158833155
1772660703588944128,3.1503641605377197,-0.24845267832279205,0.24455387890338898,0.04298491030931473,0.9751251339912415,-0.01164460089057684,0.22134891152381897,0.26590263843536377,-0.012845749966800213,-0.054616108536720276,-0.44710705330091316,-0.5517301047775302,-0.5534151692035262,0.4352250073409504,0.01164486374824614,1.7940092034680284,-1.5584490067721113
1772660703598981120,3.1604011058807373,-0.25193023681640625,0.30252981185913086,-0.043025873601436615,0.9745129346847534,-0.01220947690308094,0.22399918735027313,0.2779437303543091,-0.0445837527513504,-0.05191051959991455,-0.4470329275302255,-0.5517761775729592,-0.5545652746676555,0.43377649568460147,0.012209780423861638,1.7967294457474965,-1.5560326879178716
1772660703609019136,3.1704390048980713,-0.2666439414024353,0.3549269735813141,-0.14062565565109253,0.9737799763679504,-0.011912315152585506,0.22718042135238647,0.2824609875679016,-0.0863390639424324,-0.04409012198448181,-0.4466396898936696,-0.5516553822295591,-0.5561173876115023,0.4323458257307017,0.011912597144896333,1.799994257059076,-1.5532873397952192
1772660703619056128,3.180476188659668,-0.28334203362464905,0.4151751697063446,-0.2459355741739273,0.9729187488555908,-0.01064396183937788,0.23090237379074097,0.2661864757537842,-0.12554074823856354,-0.03778707981109619,-0.44589991953310165,-0.551334675129443,-0.5581050611239486,0.430954892059507,0.01064416279592824,1.803814768756537,-1.5501777847884288
1772660703629093120,3.1905131340026855,-0.2991825342178345,0.4681853652000427,-0.3509836792945862,0.9719129800796509,-0.008406512439250946,0.23518986999988556,0.23652195930480957,-0.14389145374298096,-0.02872326970100403,-0.44481916869949945,-0.5507981423876123,-0.5605500317884816,0.429582199331846,0.008406611670801705,1.80821881671204,-1.5466320381550647
1772660703639131136,3.2005510330200195,-0.3285035789012909,0.5158381462097168,-0.44633418321609497,0.9707684516906738,-0.005266960244625807,0.2399601936340332,0.20980405807495117,-0.1405918002128601,-0.014572620391845703,-0.44344032010156653,-0.5500334981025771,-0.5634210208481555,0.4282295855971818,0.005266984733271446,1.813124602345282,-1.5426270646440143
1772660703649168128,3.210587978363037,-0.35939863324165344,0.564619779586792,-0.5365666151046753,0.9694666862487793,-0.0013050246052443981,0.24521899223327637,0.18513524532318115,-0.12735706567764282,0.004506334662437439,-0.4417958822865604,-0.5490336886044703,-0.5667199544285616,0.426856878172531,0.0013050250036327955,1.8185421546194538,-1.5380800308837943
1772660703659205120,3.220625162124634,-0.40421628952026367,0.6071463227272034,-0.6258134841918945,0.9679996967315674,0.0033899873960763216,0.2509288489818573,0.16328704357147217,-0.11189524084329605,0.0225544273853302,-0.4399293021977027,-0.5477888623081612,-0.5704312277866539,0.4254384293282776,-0.0033899937779013705,1.8244374759295545,-1.5329280515830994
1772660703669243136,3.2306630611419678,-0.45271116495132446,0.6506562232971191,-0.7054670453071594,0.9663556218147278,0.008766294457018375,0.25705987215042114,0.14193588495254517,-0.10268411785364151,0.028950899839401245,-0.43787669537200796,-0.546273389820732,-0.5745566287207613,0.4239504373942986,-0.008766406981659695,1.8307851793126542,-1.5270778980944975
1772660703679280128,3.2407000064849854,-0.49070119857788086,0.6988739967346191,-0.774268388748169,0.9645048379898071,0.014707965776324272,0.2636546492576599,0.12413328886032104,-0.09379424899816513,0.031480759382247925,-0.4356475262327908,-0.5445218502185682,-0.5790710468043522,0.4223550484928287,-0.014708496386133566,1.8376348903591408,-1.5205454064744917
1772660703689318144,3.2507381439208984,-0.5043573379516602,0.7402259111404419,-0.8473239541053772,0.9624283313751221,0.02119414135813713,0.2707073390483856,0.11861103773117065,-0.08543365448713303,0.028959959745407104,-0.43319415144675255,-0.5425986126668862,-0.5839010284231425,0.4207007770522574,-0.021195728603631517,1.8449872344531024,-1.5135570214921397
1772660703699355136,3.260775089263916,-0.5065591931343079,0.7907880544662476,-0.9111629724502563,0.9600914120674133,0.028300674632191658,0.27825093269348145,0.12279433012008667,-0.0796007364988327,0.018120497465133667,-0.4304498540544538,-0.54052938875865,-0.5890275413945302,0.419031567588646,-0.02830445420398972,1.8528850542401147,-1.5062446171912771
1772660703709392128,3.2708120346069336,-0.49132323265075684,0.8264134526252747,-0.9569339156150818,0.9574949741363525,0.035879556089639664,0.28620973229408264,0.13134163618087769,-0.07173769921064377,0.010009169578552246,-0.42743632735217324,-0.5383772084728257,-0.5943524667823754,0.4173647252123539,-0.03588725719153129,1.861257539947135,-1.4987744098189864
1772660703719430144,3.2808501720428467,-0.44923150539398193,0.8609398603439331,-0.9953253865242004,0.9546478390693665,0.043867602944374084,0.2944874167442322,0.13514995574951172,-0.062208645045757294,0.0025095343589782715,-0.4241392173380133,-0.5362131290023959,-0.5997659474066558,0.4157668816198303,-0.04388168334181531,1.8700124255431996,-1.4914098580148745
1772660703729467136,3.2908871173858643,-0.4320056438446045,0.8924117684364319,-1.0376696586608887,0.9515269994735718,0.05227738618850708,0.3030901253223419,0.12871897220611572,-0.056656669825315475,-0.006184577941894531,-0.4205522420750318,-0.5340296775620332,-0.6052746146488567,0.4142352334163102,-0.05230122712191419,1.8791654520326373,-1.4841265543263158
1772660703739504128,3.300924062728882,-0.43590354919433594,0.9178928732872009,-1.04976487159729,0.9481444954872131,0.060911133885383606,0.31194838881492615,0.11847531795501709,-0.052778180688619614,-0.013425499200820923,-0.4167811258267851,-0.5318065007772168,-0.6108649983764094,0.41269753428841605,-0.060948861088453064,1.8886502672374064,-1.4767582507238493
1772660703749541888,3.310961961746216,-0.4314885437488556,0.9386450052261353,-1.0600335597991943,0.9445087313652039,0.06956133991479874,0.3210360109806061,0.12261450290679932,-0.04235491156578064,-0.009756743907928467,-0.41289746429209634,-0.5295707657832807,-0.616500453954546,0.4110931215673061,-0.0696175605914604,1.8984428092005572,-1.4692619227083523
1772660703759579136,3.3209991455078125,-0.4303561747074127,0.9478374123573303,-1.0668141841888428,0.9406260848045349,0.07822668552398682,0.33030831813812256,0.1405203938484192,-0.029993653297424316,-0.0070355236530303955,-0.4089075387286999,-0.5273198605639716,-0.6221638997135126,0.4094393938023511,-0.07830669137220445,1.9085023414171596,-1.461659749654528
1772660703769616128,3.33103609085083,-0.40048617124557495,0.9576628804206848,-1.0754406452178955,0.9365363121032715,0.0869075357913971,0.3396276831626892,0.14795172214508057,-0.014794491231441498,-0.007504910230636597,-0.4048269076107463,-0.5250637504755281,-0.6277912919660631,0.4078006612065215,-0.08701731358728106,1.9186890979906666,-1.4540775225742564
1772660703779654144,3.341073989868164,-0.3222973942756653,0.9556633234024048,-1.104862928390503,0.9322324991226196,0.09584192931652069,0.34893688559532166,0.14627397060394287,-0.001435801386833191,0.002579808235168457,-0.40053682349321534,-0.5228421313654111,-0.6333281547676136,0.40632725423704796,-0.09598926599280781,1.9289552868503286,-1.4468414559091451
1772660703789691136,3.3511111736297607,-0.22745849192142487,0.9312570095062256,-1.1758207082748413,0.9277304410934448,0.10551506280899048,0.35802584886550903,0.14163589477539062,-0.0045018866658210754,0.017752259969711304,-0.3959167950469881,-0.5205791040004958,-0.6387568520562343,0.40526147277172125,-0.10571184257923565,1.9391025067427332,-1.4401770523403084
1772660703799729152,3.3611490726470947,-0.1627189964056015,0.8720320463180542,-1.2440834045410156,0.9231004118919373,0.11603424698114395,0.36663582921028137,0.14718157052993774,-0.02280304580926895,0.049807071685791016,-0.3910607810326656,-0.5181375155588094,-0.6440896086971116,0.40466478796864963,-0.11629621699614756,1.9488681912639032,-1.433887271774824
1772660703809766144,3.3711860179901123,-0.059263717383146286,0.7708622813224792,-1.3196345567703247,0.9184764623641968,0.12744277715682983,0.37437915802001953,0.17977511882781982,-0.040482938289642334,0.10622701048851013,-0.3860903149820373,-0.5154249241182834,-0.6492508934452463,0.40465398488111753,-0.12779030628768254,1.9578448133208624,-1.4279659105345612
1772660703819802880,3.38122296333313,0.06930606067180634,0.6427841782569885,-1.4013686180114746,0.9139574766159058,0.13998518884181976,0.38090184330940247,0.2245161533355713,-0.04342757165431976,0.1700931191444397,-0.3809847469380906,-0.5124278392301533,-0.6541166815940767,0.40546249827447206,-0.14044645384148255,1.9656678273676147,-1.4227683615716278
1772660703829841152,3.391261100769043,0.12899282574653625,0.47240501642227173,-1.45798659324646,0.9097011685371399,0.1535043865442276,0.38585034012794495,0.26423388719558716,-0.041687965393066406,0.20674008131027222,-0.3759537527930254,-0.5090491608293819,-0.658630489491532,0.4071040449806851,-0.15411372423542344,1.971947351099304,-1.4181311414991742
1772660703839878144,3.4012980461120605,0.05450434982776642,0.3022041320800781,-1.4872347116470337,0.905825674533844,0.16733194887638092,0.3892036974430084,0.2938811779022217,-0.033405572175979614,0.2256186604499817,-0.3713987123095631,-0.5051360827530244,-0.6629022475053307,0.40922001152698717,-0.16812283756923924,1.976613599745834,-1.4131783240548563
1772660703849915136,3.411334991455078,-0.08493103832006454,0.16398073732852936,-1.512085199356079,0.902300238609314,0.18089930713176727,0.3913179934024811,0.29907000064849854,-0.02162805199623108,0.2222532033920288,-0.3675754621238061,-0.5005725293389617,-0.6671477653421367,0.41137487730043887,-0.1819007630410082,1.9800038493548604,-1.4069782298816889
1772660703859953152,3.421373128890991,-0.2151356041431427,0.07595353573560715,-1.5492929220199585,0.8989641666412354,0.19411686062812805,0.392659991979599,0.2592845559120178,-0.012506797909736633,0.1770879626274109,-0.36440537488017244,-0.4953928615641685,-0.67150272171045,0.41337472591934593,-0.19535710968076483,1.9826120064837722,-1.3992961135049475
1772660703869990144,3.431410074234009,-0.31851842999458313,0.03307398408651352,-1.584243655204773,0.8955955505371094,0.20718473196029663,0.39367878437042236,0.19664376974105835,-0.00964444875717163,0.11399635672569275,-0.3616265372906758,-0.48971278113514977,-0.6760331230164542,0.41519489451698877,-0.2086963650441169,1.9849446270331206,-1.3903347672498998
