time,seconds_elapsed,rotationRateX,rotationRateY,rotationRateZ,gravityX,gravityY,gravityZ,accelerationX,accelerationY,accelerationZ,quaternionW,quaternionX,quaternionY,quaternionZ,pitch,roll,yaw
1773064045358858496,0.02734375,0.1298915296792984,0.04329730197787285,-0.0516752153635025,-0.10928530246019363,-0.37789061665534973,0.9193776845932007,-0.004667326807975769,-0.0013055205345153809,0.02782684564590454,-0.03192280390415142,0.11906702243335719,0.972374359291415,0.19822227612215312,0.3875169079372932,-3.0232790394046987,-0.2669280264886481
1773064045368914688,0.0373997688293457,0.15466226637363434,0.03291308134794235,-0.08809904009103775,-0.10937172919511795,-0.37663349509239197,0.919883131980896,-0.016498014330863953,-0.043883442878723145,0.01644188165664673,-0.03212457340802701,0.11866811507224397,0.9725530483167985,0.19755108241364785,0.3861594814550772,-3.0232507921626004,-0.2659975081970706
1773064045378969600,0.047454833984375,0.1255943924188614,0.008495887741446495,-0.10286466777324677,-0.10920218378305435,-0.3754260241985321,0.9203969836235046,-0.010075792670249939,-0.02110421657562256,0.0031871795654296875,-0.032218684485565315,0.11814221780895945,0.9727491537338738,0.19688467497677692,0.3848563823410944,-3.0234979076108646,-0.26475516517762626
1773064045389025792,0.0575108528137207,0.08970989286899567,-0.018681013956665993,-0.07458434253931046,-0.10879357904195786,-0.37452319264411926,0.920813262462616,-0.0022904127836227417,-0.0001717209815979004,-0.01660764217376709,-0.03215878862598049,0.1176843242685762,0.9729116224375487,0.19636540286904416,0.38388248874059416,-3.0239884066114278,-0.2636321665853755
1773064045399080448,0.0675656795501709,0.030005022883415222,-0.031019173562526703,-0.03711419552564621,-0.10836100578308105,-0.3740001916885376,0.9210767149925232,-0.003928437829017639,0.0032573044300079346,-0.034205079078674316,-0.032023660418941814,0.11742377953845073,0.9730107919244305,0.19605172278411756,0.3833185114563672,-3.0244849377587584,-0.26294889717778136
1773064045409136640,0.0776216983795166,-0.07902731746435165,-0.05545815825462341,-0.016145141795277596,-0.1078481376171112,-0.37423819303512573,0.9210401773452759,-0.010270163416862488,-0.0019520819187164307,-0.023167014122009277,-0.03176272515004896,0.11735781458222636,0.9730093691112799,0.19614065909464437,0.3835751313334978,-3.0250296046917997,-0.2627250948599836
1773064045419191552,0.0876767635345459,-0.1842842400074005,-0.10038834810256958,-0.0023028298746794462,-0.10710769891738892,-0.3754332959651947,0.9206397533416748,-0.00936262309551239,-0.025598138570785522,-0.010300517082214355,-0.03130634302254822,0.11740297535100627,0.9729010286011253,0.19672309652050693,0.38486421749433974,-3.0257728119904956,-0.2627757966862459
1773064045429247744,0.0977327823638916,-0.21122898161411285,-0.12480976432561874,0.002205685479566455,-0.1060141772031784,-0.377221018075943,0.9200356602668762,-0.002918332815170288,-0.02855604887008667,-0.008261799812316895,-0.030613688243248102,0.11755323621337685,0.972727641402883,0.1975982106685782,0.3867937826205298,-3.0268702746821363,-0.2630232448448245
1773064045439302656,0.1077878475189209,-0.17807981371879578,-0.09906258434057236,0.0027963747270405293,-0.10497719794511795,-0.37905746698379517,0.9193994402885437,-0.0017580315470695496,-0.018693387508392334,0.0030554533004760742,-0.029943801483599743,0.11771533891221929,0.9725445050745275,0.19850359948197258,0.38877755442702855,-3.0279048173941487,-0.26331061786065163
1773064045449358336,0.1178436279296875,-0.03800961747765541,-0.06228504329919815,0.010199742391705513,-0.10430587083101273,-0.3801765739917755,0.9190133810043335,0.0016600117087364197,-0.009746432304382324,0.006782889366149902,-0.029509298231949792,0.11784363632573581,0.97242971697782,0.1990537421808463,0.38998720656319985,-3.028578603628963,-0.26353680766018606
1773064045459413504,0.1278986930847168,0.13847967982292175,-0.03575623035430908,0.02246413193643093,-0.10394413024187088,-0.3797273337841034,0.9192401170730591,0.001862838864326477,0.011517554521560669,-0.005330383777618408,-0.029329032073858164,0.11796220336554625,0.9724736356826508,0.19879549581648726,0.38950152369357044,-3.0289947804598283,-0.26365545838006094
1773064045469469440,0.1379547119140625,0.2637869715690613,-0.016759438440203667,0.040513552725315094,-0.10384903103113174,-0.377794474363327,0.9200469255447388,0.0002876371145248413,0.03564673662185669,-0.013980209827423096,-0.029366429489564187,0.11811996059909188,0.972661876218668,0.1977727414158559,0.387413089250475,-3.029194750267996,-0.2637672750431898
1773064045479524608,0.1480097770690918,0.3146935701370239,-0.004222075454890728,0.03856278583407402,-0.10398730635643005,-0.37505054473876953,0.9211533665657043,0.0030504241585731506,0.04062369465827942,-0.017436444759368896,-0.02956889631108012,0.11829205865815161,0.9729253201645778,0.19633885309284504,0.3844513063004341,-3.0291803989805066,-0.2638809461276137
1773064045489580544,0.1580657958984375,0.2890315651893616,-0.018837349489331245,0.025513358414173126,-0.10412659496068954,-0.37224456667900085,0.922275185585022,0.0006262287497520447,0.027579069137573242,-0.025546729564666748,-0.029784559889620747,0.11842121667509946,0.973197826198885,0.1948724056345643,0.38142620239869834,-3.0291668621870667,-0.2639014513815603
1773064045499635712,0.1681208610534668,0.2531944811344147,-0.038265906274318695,-0.02037503756582737,-0.10391799360513687,-0.36990687251091003,0.9232385158538818,-0.005228117108345032,0.0006289780139923096,-0.022268354892730713,-0.02981549541287624,0.11845088417920048,0.973441656773347,0.19362753502148158,0.37890878219257546,-3.029506296498351,-0.2636892417281106
1773064045509691392,0.1781766414642334,0.33205634355545044,-0.035238783806562424,-0.13251946866512299,-0.10338329523801804,-0.3676943778991699,0.9241822361946106,-0.009440205991268158,-0.037548571825027466,0.0014922618865966797,-0.029753394916472106,0.11807739423317198,0.9737293466407819,0.19241526461396768,0.37652849090375656,-3.0301911738124376,-0.26259317137924076
1773064045519746560,0.1882317066192627,0.5603651404380798,0.009407514706254005,-0.28254279494285583,-0.10239236801862717,-0.36397460103034973,0.9257637858390808,-0.00707419216632843,-0.08297061920166016,0.016405463218688965,-0.029685524932259892,0.11701328011177392,0.9742637115670688,0.19036006434689254,0.37253165776734387,-3.031437247285989,-0.25984263610773667
1773064045529802496,0.1982877254486084,0.27672550082206726,-0.2896216809749603,-0.09287761151790619,-0.10102967917919159,-0.35996055603027344,0.9274812936782837,0.007157616317272186,-0.12182044982910156,-0.0009523630142211914,-0.02942086910424254,0.11606103324468317,0.9748181817911461,0.18813241697725763,0.3682256283548789,-3.0330913698799087,-0.2572271423434737
1773064045539857664,0.2083427906036377,0.33394724130630493,-0.3829750418663025,-0.16448628902435303,-0.09685725718736649,-0.35743847489356995,0.9289007782936096,0.08690851926803589,-0.10317862033843994,0.059731483459472656,-0.02752308242424876,0.11573442072313721,0.975220973272228,0.18652655769787688,0.3655237429977732,-3.0376972661749173,-0.25546432073702025
1773064045549913600,0.2183988094329834,0.4579101502895355,-0.25633761286735535,-0.0862443819642067,-0.09332454204559326,-0.35379093885421753,0.930656909942627,0.08848751336336136,-0.11706474423408508,0.027198195457458496,-0.026031867746513265,0.11532235742648175,0.9757198410140252,0.18437415997262055,0.3616210864521365,-3.041648620950247,-0.2535777532804358
1773064045559968512,0.2284536361694336,-1.6734237670898438,-0.2592220902442932,1.098482370376587,-0.09371987730264664,-0.3584895730018616,0.9288173913955688,-0.010116182267665863,-0.05009499192237854,-0.04684418439865112,-0.025511385080620775,0.11762565870981062,0.9749732885893972,0.1869236582532794,0.3666494093077886,-3.0410306496707413,-0.2587894813045487
1773064045570024448,0.2385096549987793,-1.6936272382736206,-0.48705998063087463,0.9601591229438782,-0.09421055018901825,-0.3740001618862152,0.9226312041282654,0.10943881422281265,-0.015816152095794678,0.2485572099685669,-0.023557249728135377,0.12389823868198031,0.9726072369643469,0.19526770677582053,0.3833184687637287,-3.0398346032782584,-0.27317226685503637
1773064045580079616,0.2485647201538086,-1.359525203704834,-0.5993995666503906,0.22830836474895477,-0.09110923111438751,-0.3872684836387634,0.9174544215202332,0.1830586940050125,-0.30259668827056885,0.13460874557495117,-0.020393524751981938,0.12742313171707775,0.9708195253630303,0.20213113610387978,0.39766704823013743,-3.042610636073373,-0.280974420034402
1773064045590135552,0.2586207389831543,-1.0246729850769043,-0.3495166599750519,0.4715001583099365,-0.08830417692661285,-0.3983113467693329,0.9129900932312012,-0.01902616024017334,-0.3198283910751343,-0.04427647590637207,-0.017776630276873463,0.1295334089188635,0.9693895730795855,0.20781979930913655,0.40967512575752907,-3.0451728168288836,-0.28571986020429235
1773064045600190720,0.2686758041381836,-0.3275975286960602,-0.24311992526054382,1.0790940523147583,-0.08886635303497314,-0.4038107395172119,0.910516083240509,0.09277260303497314,0.021501779556274414,-0.014260649681091309,-0.01678304840586565,0.1336646674398664,0.968189963463389,0.2108560074368511,0.41567849469888424,-3.044300817342963,-0.29491090032206185
1773064045610246656,0.2787318229675293,0.03713789954781532,-0.2724337577819824,1.2416479587554932,-0.09127675741910934,-0.40379780530929565,0.9102833867073059,0.17123280465602875,0.11740559339523315,-0.038243651390075684,-0.01667816831737488,0.1397464323699851,0.9672707114328141,0.2111400818155519,0.4156643569579792,-3.041653811965696,-0.3080559755793428
1773064045620301568,0.2887866497039795,0.011052235960960388,-0.2674264907836914,1.2000153064727783,-0.0937659963965416,-0.40227022767066956,0.9107064604759216,0.09217908978462219,0.002505272626876831,-0.010346531867980957,-0.016704765328285853,0.14593120817376945,0.9664664066706802,0.21063625421323542,0.41399521763829344,-3.038994547214323,-0.3212892750563846
1773064045630357504,0.2988426685333252,-0.25927940011024475,-0.3440430164337158,1.3382248878479004,-0.09607994556427002,-0.40210598707199097,0.9105377793312073,0.013697750866413116,-0.15863919258117676,-0.0028688907623291016,-0.0164831334348408,0.1523646853394122,0.9654293894604147,0.2108537792352758,0.41381580943327084,-3.0364617018843036,-0.3351468327168733
1773064045640412672,0.3088977336883545,-0.6003597974777222,-0.41893988847732544,1.5519001483917236,-0.09842031449079514,-0.40462934970855713,0.9091693758964539,0.07141224294900894,-0.23671290278434753,0.03446483612060547,-0.015914622674652535,0.15937492225790625,0.9639420772937574,0.21251388222481568,0.4165734961460272,-3.0337595647613025,-0.35052049937967733
1773064045650468608,0.3189537525177002,-0.8524165749549866,-0.47927406430244446,1.678335428237915,-0.10097353905439377,-0.4097229242324829,0.9066044092178345,0.12801212072372437,-0.2721923589706421,0.09707295894622803,-0.014980032928645401,0.16735153503199623,0.9619228984845386,0.21557693826488447,0.4221502995589135,-3.0306742553716153,-0.3682933178892219
1773064045660523776,0.3290088176727295,-0.9912509322166443,-0.49244046211242676,1.8292466402053833,-0.10377806425094604,-0.41637009382247925,0.9032530784606934,0.11825865507125854,-0.30402785539627075,0.16397714614868164,-0.013812640671565946,0.17601267994448225,0.9595030380415809,0.2195055585892886,0.42944922197449664,-3.027200567465864,-0.3878221950992776
1773064045670579712,0.3390648365020752,-0.9668206572532654,-0.44350725412368774,2.0175628662109375,-0.10771554708480835,-0.42332711815834045,0.8995509743690491,0.08940498530864716,-0.3381475806236267,0.21176207065582275,-0.012921964944259009,0.18546271259175096,0.9567544417393828,0.22373567494777974,0.4371145901416217,-3.022416413458174,-0.4094415147963589
1773064045680634624,0.3491196632385254,-0.8787661790847778,-0.3075084090232849,2.229426860809326,-0.1133376955986023,-0.42928776144981384,0.8960281014442444,0.05506438761949539,-0.38797295093536377,0.22759848833084106,-0.012697784477139424,0.19572961550268655,0.9537840194819616,0.2276502939435321,0.4437040267241955,-3.015771834785533,-0.43322378532694544
1773064045690690560,0.3591756820678711,-0.9101842045783997,-0.1794789731502533,2.570063829421997,-0.12167137861251831,-0.43445760011672974,0.8924366235733032,0.01301351934671402,-0.4436857998371124,0.20358717441558838,-0.013551258949625215,0.20714284662353843,0.9504263020599908,0.23151278900411962,0.4494359804208529,-3.006091915465259,-0.4602006759040518
1773064045700745472,0.3692307472229004,-0.870696485042572,-0.2033510059118271,2.917994499206543,-0.13209132850170135,-0.43894729018211365,0.8887502551078796,0.03615933656692505,-0.3960593640804291,0.18284392356872559,-0.015027837198859941,0.2201705217678683,0.9465199757837198,0.23536992166026238,0.4544267256190094,-2.994046808516478,-0.49126483837060597
1773064045710801664,0.3792867660522461,-0.7212343811988831,-0.3571234345436096,2.995152235031128,-0.142887681722641,-0.44214877486228943,0.88548743724823,0.1180616170167923,-0.2897849678993225,0.18113267421722412,-0.016439089479941105,0.23439565834879647,0.9422326678558592,0.2387177175255881,0.4579929159436288,-2.9816056411287515,-0.5250002847496329
1773064045720856576,0.3893418312072754,-0.31381142139434814,-0.426620751619339,2.9034481048583984,-0.15235690772533417,-0.4424416124820709,0.8837606310844421,0.19051913917064667,-0.18989792466163635,0.04348552227020264,-0.017503199525121815,0.24853163155166283,0.9381430279547179,0.24044404901651292,0.4583194490917174,-2.970874594147213,-0.5578524502541375
1773064045730912768,0.3993978500366211,0.01493915356695652,-0.406898558139801,2.9196598529815674,-0.16176611185073853,-0.43915367126464844,0.8837282061576843,0.18100745975971222,-0.19458958506584167,-0.11036711931228638,-0.019052797359335526,0.2624453676986789,0.9343374765429177,0.2403597872075197,0.45465643549089146,-2.960547377493781,-0.5896554477644472
1773064045740967424,0.4094526767730713,0.21438860893249512,-0.36857298016548157,3.04701566696167,-0.17142397165298462,-0.4331202208995819,0.8848846554756165,0.13906008005142212,-0.2254491150379181,-0.16691279411315918,-0.02108212261375095,0.2765611659820391,0.9305677014138899,0.23898380707358943,0.447951693430815,-2.9502383054298256,-0.6214816680171817
1773064045751023616,0.419508695602417,0.08941708505153656,-0.31991487741470337,3.3067400455474854,-0.18201850354671478,-0.4259389638900757,0.8862536549568176,0.09916326403617859,-0.2957560420036316,-0.1247178316116333,-0.023569620332474107,0.29149238546015804,0.9263687197992779,0.2373135488668326,0.43999944972020566,-2.9390296994915732,-0.6551500313101258
1773064045761078528,0.4295637607574463,-0.36352989077568054,-0.3036477565765381,3.5863733291625977,-0.1940765380859375,-0.42059627175331116,0.8862468004226685,0.0646819919347763,-0.3321503698825836,-0.045868873596191406,-0.026178677727102258,0.3076360944191645,0.9211316023677893,0.23704716872062254,0.43410244321959146,-2.926008767474449,-0.6923758401373372
1773064045771134720,0.439619779586792,-0.8597409129142761,-0.3893548846244812,3.7825772762298584,-0.20661640167236328,-0.4186770021915436,0.8843187093734741,0.07684038579463959,-0.2744840681552887,0.05188441276550293,-0.028091494143024965,0.3249444479113963,0.9146422502759702,0.2388547863837204,0.43198800784125035,-2.9120654129036154,-0.7332966351997701
1773064045781189632,0.4496748447418213,-1.1793473958969116,-0.43679431080818176,3.721040964126587,-0.2188514620065689,-0.419900119304657,0.880788266658783,0.11852492392063141,-0.20589333772659302,0.11576318740844727,-0.02908222619533761,0.34257545436383124,0.9072134200038133,0.24240482708289576,0.4333352549436188,-2.8980523697276297,-0.7759812038765033
1773064045791245568,0.4597306251525879,-1.2164294719696045,-0.3772653341293335,3.7046127319335938,-0.2309296578168869,-0.42229002714157104,0.8765514492988586,0.1226380467414856,-0.18136289715766907,0.1465349793434143,-0.0296823342185839,0.3598870965932878,0.8993091824467391,0.24666411323291795,0.43597017534082955,-2.8839934530801785,-0.8186873446652341
1773064045801300480,0.4697856903076172,-1.042512059211731,-0.37808796763420105,3.7913663387298584,-0.24368594586849213,-0.4233557879924774,0.8725751638412476,0.10068055987358093,-0.15118345618247986,0.10615420341491699,-0.030679531301582585,0.37720376743328005,0.8910695245611336,0.25054198439539144,0.4371462336026903,-2.8692590016571917,-0.861735585076277
1773064045811356672,0.4798417091369629,-0.9287291169166565,-0.3998270034790039,3.8327817916870117,-0.2564421594142914,-0.42230191826820374,0.8694241642951965,0.09759819507598877,-0.05781581997871399,0.09985983371734619,-0.031892000677813094,0.3947466540768866,0.8825458393391724,0.25351683003738074,0.4359833035037312,-2.8547694924692735,-0.9051342703610056
1773064045821411584,0.4898967742919922,-0.850389301776886,-0.36938974261283875,3.7458577156066895,-0.2692302465438843,-0.4201095402240753,0.8666157126426697,0.12601128220558167,0.06006321310997009,0.152366042137146,-0.03330334148353427,0.41201733040128846,0.8738132431404758,0.25609171170348605,0.4335660371362964,-2.840377167334775,-0.9480266600327028
1773064045831467520,0.4999527931213379,-0.6485742330551147,-0.2765029966831207,3.591581344604492,-0.2817913889884949,-0.41649574041366577,0.8643640279769897,0.14635434746742249,0.1080697774887085,0.0885016918182373,-0.03504593104403688,0.4284980152649292,0.8652002472494433,0.25805007329972596,0.42958742525976606,-2.826447446174286,-0.9889937225905322
1773064045841522688,0.5100078582763672,-0.5453943014144897,-0.15172190964221954,3.553344964981079,-0.29479965567588806,-0.4112332761287689,0.8625427484512329,0.12353506684303284,0.022637754678726196,-0.048272907733917236,-0.037507949139069345,0.44425109828575987,0.8566868295768119,0.2594642226154107,0.4238066159729192,-2.812259655108971,-1.0282514464321493
1773064045851578368,0.5200636386871338,-0.569242537021637,-0.14172780513763428,3.565617799758911,-0.3082928955554962,-0.4052707850933075,0.8606460094451904,0.10895204544067383,-0.05525481700897217,-0.1742597222328186,-0.04034279745644511,0.45978146046696905,0.847893866532343,0.26086315151026435,0.41727501841244025,-2.7976216823966524,-1.0672859960245311
1773064045861633536,0.5301187038421631,-0.6547041535377502,-0.2711790204048157,3.502232074737549,-0.32082822918891907,-0.3992922008037567,0.8588568568229675,0.11730647087097168,-0.03054794669151306,-0.23536741733551025,-0.042728786110320154,0.4751065553282722,0.838869593821148,0.26219429537972794,0.4107446935672601,-2.7840915406261644,-1.1058803397212293
1773064045871689472,0.5401747226715088,-0.9933189153671265,-0.29345831274986267,3.40362548828125,-0.3321741223335266,-0.3949425518512726,0.8565515875816345,0.1313226819038391,0.009703904390335083,-0.1577143669128418,-0.04415912625281153,0.49009136717952684,0.8295096468151566,0.2641479631483058,0.4060053210807184,-2.7716441035667607,-1.1442771039710693
1773064045881744640,0.5502297878265381,-1.4715912342071533,-0.2514900863170624,3.2623651027679443,-0.34297415614128113,-0.3942093253135681,0.8526238203048706,0.1524834930896759,0.01852273941040039,-0.06505686044692993,-0.044373021490913545,0.5045436669600505,0.8196021033141251,0.26780408605880673,0.40520735292087356,-2.7591418530341953,-1.1831101079402733
1773064045891800576,0.5602858066558838,-1.891721248626709,-0.2687419056892395,3.1247472763061523,-0.35353395342826843,-0.3975118100643158,0.8467572331428528,0.13814091682434082,0.013615995645523071,-0.03598165512084961,-0.043324955949434536,0.5183405765836443,0.809136372111029,0.27339394494055697,0.4088036050387852,-2.7460788161502343,-1.22251790340669
1773064045901855488,0.570340633392334,-2.1709485054016113,-0.2821647822856903,3.054079055786133,-0.36360982060432434,-0.4037593901157379,0.8395035862922668,0.11743977665901184,0.030025869607925415,-0.03292405605316162,-0.04107004750593035,0.5316823703375794,0.7981639183675318,0.2802881854437629,0.4156223690267585,-2.7328603847343325,-1.2626124315227072
1773064045911911424,0.5803966522216797,-2.308598756790161,-0.1779610514640808,2.9316022396087646,-0.37396812438964844,-0.41149798035621643,0.8311542868614197,0.10544395446777344,0.08601275086402893,-0.020805716514587402,-0.038334296359011547,0.5444874570806261,0.7868357865850248,0.28801630028466874,0.4240970345686789,-2.7187900692459332,-1.3030063426091465
1773064045921966592,0.590451717376709,-2.637099027633667,0.012761753052473068,2.7043070793151855,-0.38506650924682617,-0.4211297333240509,0.8212023973464966,0.06034424901008606,0.11773926019668579,0.0028026700019836426,-0.03533313747628328,0.5561983053947326,0.775399670547679,0.29690120684931015,0.43469053160485566,-2.7031284372494353,-1.342822154093785
1773064045932022528,0.6005077362060547,-3.2496445178985596,0.09263095259666443,2.4337193965911865,-0.39658212661743164,-0.43510743975639343,0.8083340525627136,-0.003304898738861084,0.1093323826789856,0.009475946426391602,-0.03113348253163459,0.5666144982604034,0.7636196883806501,0.3079994005701908,0.45015760914055675,-2.6854798680978758,-1.382917336940987
1773064045942077696,0.610562801361084,-4.22623348236084,0.15766960382461548,2.1856117248535156,-0.4078342616558075,-0.45569348335266113,0.7912110090255737,-0.01715359091758728,0.06787604093551636,0.02989506721496582,-0.024491502335507166,0.5758543395842873,0.7509975174170136,0.32217188090842974,0.4731511410824398,-2.6656570195181644,-1.4251422409722452
1773064045952133632,0.6206188201904297,-5.501059532165527,0.08091949671506882,1.9445551633834839,-0.4186851382255554,-0.4851435720920563,0.767683744430542,0.019698351621627808,0.02147480845451355,0.07702749967575073,-0.014222805449897718,0.5839961070742208,0.7367431140752494,0.3405228362435116,0.5065273618034868,-2.6422975907474875,-1.4723044784790056
1773064045962188544,0.6306736469268799,-6.514194011688232,-0.01494044903665781,1.6725026369094849,-0.42799022793769836,-0.5232300162315369,0.7369222044944763,0.08013570308685303,0.16477066278457642,0.13629239797592163,0.0004543246055522648,0.5909369996126729,0.7205931993415806,0.362682485967264,0.5506368114106587,-2.6154248292424156,-1.5255918414796177
1773064045972244480,0.6407296657562256,-6.780205249786377,-0.017471160739660263,1.4544284343719482,-0.4364139139652252,-0.5648878216743469,0.7003175616264343,0.1419040560722351,0.3674086332321167,0.17645245790481567,0.017635779157101628,0.5963636304108604,0.7032134729916161,0.38669137608450727,0.6002973302422999,-2.584313428897609,-1.5833511954992323
1773064045982299648,0.6507847309112549,-6.367316246032715,-0.04381115362048149,1.4451359510421753,-0.44466596841812134,-0.6037299036979675,0.6616514921188354,0.15702250599861145,0.44230711460113525,0.08317583799362183,0.034820978505967555,0.6007428967038906,0.6855171132265993,0.4098315016812885,0.6481717148088498,-2.5498691578913832,-1.6432487697222586
1773064045992355584,0.6608407497406006,-5.723217010498047,-0.08328825235366821,1.4897454977035522,-0.4534217417240143,-0.6362426280975342,0.6241827011108398,0.14752879738807678,0.4581878185272217,-0.0019750595092773438,0.05038803365643702,0.6047562023676581,0.668102748572719,0.4305458241719438,0.6896181671843101,-2.5133512241650546,-1.703657367829891
1773064046002410752,0.6708958148956299,-5.045388698577881,-0.09386579692363739,1.4551805257797241,-0.46257075667381287,-0.6622720956802368,0.589426577091217,0.11813414096832275,0.4482371211051941,-0.017100036144256592,0.06393708267040397,0.6084923361420148,0.651498563956706,0.4485517335626507,0.7238471173434716,-2.4762007780240567,-1.7627240581554189
1773064046012466688,0.6809518337249756,-4.315067768096924,-0.13089199364185333,1.3589906692504883,-0.47144100069999695,-0.6827254295349121,0.5582376718521118,0.05673763155937195,0.3696151375770569,-0.008524596691131592,0.0755895157634431,0.6118452554143813,0.6362108337554613,0.46386134901626136,0.751486147371294,-2.440290608568311,-1.818356338240561
1773064046022521600,0.6910066604614258,-3.6002678871154785,-0.09118878841400146,1.2339227199554443,-0.47991329431533813,-0.6980870962142944,0.5313735008239746,0.01401662826538086,0.27793627977371216,-0.006562650203704834,0.08511615756594129,0.6147866369061821,0.6226749917597594,0.4765171055452981,0.7727224356396534,-2.4070365152059754,-1.8685545643715396
1773064046032577536,0.7010626792907715,-2.921614408493042,-0.05531761050224304,1.1093027591705322,-0.4877723157405853,-0.7095204591751099,0.5085854530334473,0.017374306917190552,0.2472248673439026,0.01784282922744751,0.09280374374272621,0.6173077507091046,0.6109205157618348,0.48692385203133925,0.7888175047875287,-2.3770806932637396,-1.912790033287911
1773064046042632704,0.7111177444458008,-2.3202333450317383,0.03698648884892464,1.028041958808899,-0.49537673592567444,-0.7173128128051758,0.4899635314941406,0.01452648639678955,0.23151874542236328,0.09495162963867188,0.0984261436679625,0.6194981385567143,0.6010023473684647,0.49530851763473205,0.7999378498898421,-2.3507008166225445,-1.950452677959841
1773064046052688640,0.7211737632751465,-1.9944663047790527,0.08179399371147156,0.9372707009315491,-0.502838671207428,-0.7227744460105896,0.474077969789505,0.01007145643234253,0.19106686115264893,0.16964450478553772,0.10259867643818305,0.6213779601533006,0.5923921160963808,0.5024284910404699,0.8078085955611087,-2.326762700748854,-1.9833497733496355
1773064046062743552,0.7312288284301758,-1.739382028579712,0.18166786432266235,0.871082603931427,-0.5100635290145874,-0.7269251346588135,0.45979899168014526,-0.0005108118057250977,0.19970345497131348,0.21581435203552246,0.10585618840170488,0.6228767062540612,0.5847427697490356,0.5088172381634593,0.8138336048935507,-2.3044143655463714,-2.0127946252313307
1773064046072798464,0.741283655166626,-1.4725879430770874,0.1875392496585846,0.8697668313980103,-0.5172382593154907,-0.7297856211662292,0.44707629084587097,-0.001163780689239502,0.1876257061958313,0.18623965978622437,0.10826861440661713,0.6242215171797378,0.5778283863089754,0.5145285923387769,0.8180083723591731,-2.283564071886612,-2.0394136978117228
1773064046082854400,0.7513396739959717,-1.2088745832443237,0.15913984179496765,0.8628823161125183,-0.5243911743164062,-0.731166422367096,0.43635934591293335,0.029075682163238525,0.18589359521865845,0.14536666870117188,0.10982329668861254,0.6256809739827653,0.5715793797766484,0.5193834323042064,0.8200301739192475,-2.264821413512922,-2.063142112137979
1773064046092909568,0.761394739151001,-1.0655313730239868,0.14810511469841003,0.8506835699081421,-0.5313370823860168,-0.731528639793396,0.4272548258304596,0.05036485195159912,0.15877479314804077,0.1136234700679779,0.11083238674839674,0.6272433113135533,0.5658562057209541,0.5235348442191319,0.8205612739823849,-2.2480399268594327,-2.08449964026246
1773064046102965504,0.7714507579803467,-1.1327590942382812,0.16593524813652039,0.7855197787284851,-0.5380924940109253,-0.7317193746566772,0.4183816611766815,0.04720199108123779,0.09713685512542725,0.1022939682006836,0.11183147011621204,0.6287574021194563,0.5602276000400161,0.5275441910906381,0.8208410620572958,-2.2316834996465533,-2.105398630305859
1773064046113020672,0.781505823135376,-1.1853607892990112,0.19139595329761505,0.6881969571113586,-0.5442604422569275,-0.7325677871704102,0.4088088274002075,0.04340606927871704,0.08799088001251221,0.1025589108467102,0.11322731657191543,0.6298571993235343,0.5546929921506057,0.5317659563590803,0.8220866295598821,-2.215018451451701,-2.126320503638256
1773064046123076608,0.7915618419647217,-1.2171368598937988,0.10447356104850769,0.6391060948371887,-0.5497778654098511,-0.7338046431541443,0.3990929126739502,0.053241610527038574,0.10505092144012451,0.1076362133026123,0.11498569286362685,0.6307548118037629,0.5492675396961885,0.5359401508008627,0.8239054299439885,-2.1987051374310664,-2.1470369658441806
1773064046133131520,0.8016166687011719,-1.0907536745071411,0.04372713714838028,0.6435746550559998,-0.554750919342041,-0.7348820567131042,0.39012834429740906,0.10884326696395874,0.1327548623085022,0.10604172945022583,0.11676464044417988,0.6316418442774263,0.5441440544594918,0.539723954524219,0.8254927138418471,-2.183699897484431,-2.166530790158761
1773064046143187456,0.8116726875305176,-0.9170399308204651,-0.02979794517159462,0.705565869808197,-0.5597643852233887,-0.7350146174430847,0.3826455771923065,0.1313127875328064,0.10761892795562744,0.06919771432876587,0.11829194159595913,0.6330453319776408,0.539051388248556,0.542848354716539,0.8256882739576717,-2.1704192064620345,-2.1851715026968215
1773064046153242624,0.8217277526855469,-0.6695150136947632,-0.10451501607894897,0.736703097820282,-0.5648524761199951,-0.7339836955070496,0.37710708379745483,0.10954546928405762,0.052739739418029785,0.03561258316040039,0.11905947710441914,0.6347156654959737,0.5344993638310298,0.5452259418283597,0.8241690305413772,-2.15945899540582,-2.201056599240338
1773064046163298560,0.8317837715148926,-0.29306545853614807,-0.12909013032913208,0.7350119948387146,-0.5698140859603882,-0.7316173911094666,0.37423011660575867,0.09067279100418091,0.05411183834075928,0.05872276425361633,0.11907634127050477,0.636886421676319,0.5305570150423368,0.5465399001630092,0.8206914340089557,-2.1519078587703464,-2.2136208748813715
1773064046173353728,0.8418388366699219,0.033201515674591064,-0.08355790376663208,0.7560347318649292,-0.5748915672302246,-0.7277829051017761,0.37394121289253235,0.06936788558959961,0.04280048608779907,0.05611255764961243,0.11787128984138137,0.6392559959506823,0.5275626747995673,0.5469331400417975,0.8150835176195861,-2.147491459660693,-2.2217612206934163
1773064046183409664,0.8518948554992676,0.2786400318145752,-0.07258887588977814,0.6823455691337585,-0.5799109935760498,-0.7229570150375366,0.37554824352264404,0.048065900802612305,0.04844224452972412,0.04991257190704346,0.1155380389990132,0.6414654124458676,0.5256388955976048,0.5466963298240518,0.8080727898329401,-2.1454799566554126,-2.225514550970225
1773064046193464576,0.8619496822357178,0.41464751958847046,-0.11329846829175949,0.6040976643562317,-0.5841907858848572,-0.7178800702095032,0.3786419630050659,0.05123168230056763,0.04556238651275635,0.052342623472213745,0.1129004600116701,0.6436206636307936,0.524474427542873,0.5458320640028579,0.8007523521239368,-2.145868368108662,-2.2263104376655583
1773064046203520512,0.8720057010650635,0.560740053653717,-0.1377153843641281,0.5976623892784119,-0.5880221724510193,-0.7124931216239929,0.3828620910644531,0.06983375549316406,0.024718523025512695,0.07001873850822449,0.11000754362059946,0.6458049526933703,0.5238005440931675,0.5444880897180098,0.7930449478579737,-2.147945457342046,-2.2251286404766133
1773064046213575680,0.8820607662200928,0.6863146424293518,-0.1454734206199646,0.5257265567779541,-0.5915011167526245,-0.7066894173622131,0.3882218599319458,0.07395356893539429,-0.0011352300643920898,0.07653027772903442,0.10680768727350992,0.6480529847229094,0.5235821366899903,0.5426611116945412,0.7848080851515595,-2.1516108708658974,-2.2220819876412885
1773064046223631616,0.8921167850494385,0.8552216291427612,-0.07402721047401428,0.45314452052116394,-0.5945057272911072,-0.7007852792739868,0.39428797364234924,0.05316966772079468,0.009882569313049316,0.12440407276153564,0.10327585867399272,0.6500315926515656,0.5240256842446905,0.5405461379284637,0.776497675916051,-2.1564088493777542,-2.2168213062833506
1773064046233686784,0.9021718502044678,1.0412201881408691,-0.0664430484175682,0.4416254162788391,-0.5973690748214722,-0.6943244338035583,0.40132787823677063,0.019808590412139893,3.6954879760742188e-06,0.10883456468582153,0.0991280527100796,0.6518559393957288,0.5251169125640299,0.5380611408082404,0.7674807428707184,-2.1623620507281727,-2.20919110321636
1773064046243742464,0.9122276306152344,1.2616087198257446,-0.08161960542201996,0.4911293089389801,-0.6002776026725769,-0.6868529319763184,0.4097564220428467,0.027157366275787354,-0.013830840587615967,0.07968458533287048,0.09430106640366091,0.6538345657781236,0.5266674164919553,0.535003992353045,0.7571500923830264,-2.169756597960819,-2.199552697623734
1773064046253797632,0.9222826957702637,1.4078551530838013,-0.19931945204734802,0.49527567625045776,-0.6031756401062012,-0.6781919598579407,0.4198029935359955,0.05485111474990845,-0.00842297077178955,0.024807512760162354,0.08886564665909241,0.6561406022425673,0.5285650405343382,0.5312262190282897,0.7452994931285286,-2.1788245739008136,-2.1882068290969943
1773064046263853568,0.9323387145996094,1.2995344400405884,-0.41673433780670166,0.42333731055259705,-0.6049454212188721,-0.6695685982704163,0.43095070123672485,0.08535319566726685,-0.030016183853149414,-0.06583854556083679,0.083948019717557,0.6587669078741817,0.5305671580541613,0.5267610732618642,0.7336278289584004,-2.189782443744635,-2.17653990874172
1773064046273908736,0.9423937797546387,0.9182699918746948,-0.5286094546318054,0.3687482178211212,-0.6055565476417542,-0.6622444987297058,0.44128674268722534,0.1176261305809021,-0.07638788223266602,-0.050280094146728516,0.08045307695322362,0.6615412713670932,0.531983566873029,0.5223830909992676,0.7238103238348218,-2.2005445878484418,-2.1675045040690644
1773064046283964672,0.9524497985839844,0.4403526484966278,-0.5732397437095642,0.3420353829860687,-0.6054337620735168,-0.6569986939430237,0.44922494888305664,0.11407023668289185,-0.10870271921157837,0.009332239627838135,0.07870671913146962,0.6642133012715121,0.5323844199802582,0.5188380325863519,0.7168307041041676,-2.209150387261986,-2.1628862796832347
1773064046294019584,0.9625046253204346,-0.097737155854702,-0.5789858102798462,0.3091874122619629,-0.6049238443374634,-0.6542770862579346,0.4538596570491791,0.08208143711090088,-0.14175868034362793,0.08657610416412354,0.07885843235618809,0.6666507372616458,0.5315135247518782,0.5165767204543689,0.7132263183778552,-2.214473855116043,-2.1636613816350674
1773064046304075520,0.9725606441497803,-0.4892452657222748,-0.5468590259552002,0.29394960403442383,-0.6043031811714172,-0.6538659334182739,0.45527708530426025,0.06844496726989746,-0.14284127950668335,0.13059943914413452,0.08061925980372185,0.6687872850534606,0.5294923067879601,0.5156181438074676,0.7126827953517053,-2.216464681907784,-2.1692958826808693
1773064046314130432,0.9826157093048096,-0.6614448428153992,-0.5226820111274719,0.340507835149765,-0.6039441227912903,-0.6546640396118164,0.4546055495738983,0.07431161403656006,-0.12046712636947632,0.13511604070663452,0.08320676926158722,0.6707538638337188,0.5266801893751746,0.5155325108721088,0.713738102751416,-2.2160409395212444,-2.1780989870816803
1773064046324186624,0.9926717281341553,-0.6601893901824951,-0.5592432022094727,0.27577120065689087,-0.6036299467086792,-0.6558405756950378,0.45332568883895874,0.0864027738571167,-0.05183154344558716,0.08302080631256104,0.08607039709012898,0.6726677187127458,0.5236229347154198,0.5156831452312987,0.7152956072657877,-2.2149366928136653,-2.1878676830501362
1773064046334241536,1.0027267932891846,-0.603430449962616,-0.491972953081131,0.26632171869277954,-0.602869987487793,-0.6570843458175659,0.4525354504585266,0.0923413634300232,0.009684264659881592,0.034036993980407715,0.08893593396076696,0.6745020931135368,0.5208787254999688,0.5155800780902215,0.7169443408737879,-2.214703827660067,-2.1966068043169455
1773064046344297728,1.0127828121185303,-0.4954507350921631,-0.3330187201499939,0.2572390139102936,-0.6028162240982056,-0.6580044031143188,0.4512682557106018,0.06798034906387329,0.00047260522842407227,0.1207837462425232,0.09118249117300367,0.675980917284813,0.5183473043901504,0.5158019999147524,0.7181655331530548,-2.213400869365977,-2.2046960297780496
1773064046354352384,1.0228376388549805,-0.4188903570175171,-0.31491681933403015,0.2561427056789398,-0.6030166745185852,-0.6584722399711609,0.4503166675567627,0.03557288646697998,0.005670785903930664,0.07684394717216492,0.0928742375136029,0.6772779293447017,0.5161908054227718,0.5159612364402872,0.7187869843328292,-2.2122290839603003,-2.211443431916371
1773064046364408576,1.0328936576843262,-0.5003790855407715,-0.16853484511375427,0.22275254130363464,-0.6035044193267822,-0.6590368747711182,0.4488351047039032,0.04723000526428223,-0.031697988510131836,0.12709259986877441,0.09442314498075272,0.6783390585541166,0.514075558732415,0.5163978713283712,0.7195374623669164,-2.2102626938795034,-2.218216922234981
1773064046374463488,1.0429487228393555,-0.5799063444137573,-0.02175746113061905,0.2726649343967438,-0.6046678423881531,-0.6600679755210876,0.445743590593338,0.0333482027053833,-0.07207930088043213,0.15829092264175415,0.09591765680763144,0.6789255424869173,0.5117928298448734,0.5176177252835414,0.7209092453377702,-2.206036169736098,-2.226017721656987
1773064046384519680,1.0530047416687012,-0.5168168544769287,0.04543675482273102,0.38225480914115906,-0.6069000959396362,-0.6605412364006042,0.4419931471347809,0.02018439769744873,-0.1722378134727478,0.15522068738937378,0.09692638057092645,0.6794714447063992,0.509229944048533,0.5192387121429519,0.7215393951695886,-2.2002510406870543,-2.234609866816174
1773064046394574592,1.0630598068237305,-0.3024718463420868,0.08828888833522797,0.4333101511001587,-0.6099293828010559,-0.6598820090293884,0.43879568576812744,0.043111205101013184,-0.1771693229675293,0.13382083177566528,0.09712042670928563,0.6801488901171407,0.5067497649372043,0.5207395662528155,0.7206617120059412,-2.1944376039157487,-2.242418514605961
1773064046404630784,1.0731158256530762,0.01401047594845295,0.13476665318012238,0.42184606194496155,-0.6132725477218628,-0.6578814387321472,0.4371369183063507,0.04422658681869507,-0.08769345283508301,0.07888481020927429,0.09620022268773666,0.6808694581008209,0.5049606387809488,0.5217058701217154,0.7180022613849539,-2.1900573032975044,-2.247322691929158
1773064046414685440,1.0831706523895264,0.19329965114593506,0.10111797600984573,0.3890434205532074,-0.6164986491203308,-0.6548418998718262,0.4371633231639862,0.026715874671936035,-0.032795488834381104,0.011063635349273682,0.09440917875474741,0.6816326457181622,0.5039430569620734,0.5220204338375822,0.7139734137702493,-2.187608081387893,-2.249157625019767
1773064046424741632,1.093226671218872,0.11194219440221786,0.047138359397649765,0.3782331347465515,-0.6193417906761169,-0.6517122983932495,0.4378208816051483,0.026995539665222168,-0.037115275859832764,0.0007777810096740723,0.09263740572725157,0.6824932125455512,0.5031038228489917,0.5220229647119287,0.7098398349537591,-2.186146962706018,-2.2502733350773774
1773064046434796544,1.1032817363739014,-0.14641381800174713,0.016513893380761147,0.3648410439491272,-0.6218985319137573,-0.6494525074958801,0.43755435943603516,0.0482596755027771,-0.07923102378845215,0.051337242126464844,0.09163314928077847,0.6833480888041644,0.5018092968053313,0.5223277128279268,0.7068641743362031,-2.1839198350170936,-2.2532444224336543
1773064046444852480,1.113337755203247,-0.4030570685863495,0.006881239823997021,0.34921255707740784,-0.6242892146110535,-0.6484252214431763,0.43566933274269104,0.05528897047042847,-0.11660468578338623,0.11007654666900635,0.0916147995076839,0.6840911632472678,0.4998539198754645,0.5232323383074986,0.7055140103732956,-2.1800876831315454,-2.2589644031865816
1773064046454907648,1.1233928203582764,-0.5563657283782959,0.000750733888708055,0.34136641025543213,-0.6265401244163513,-0.6484082937240601,0.4324512481689453,0.047362327575683594,-0.11462265253067017,0.1382884681224823,0.09238843090515582,0.6847137931317534,0.4973858052046121,0.524632003181324,0.7054917696535061,-2.174929080705366,-2.2668616838550193
1773064046464963584,1.133448839187622,-0.5502902865409851,-0.03263571858406067,0.3509335517883301,-0.628730297088623,-0.648631751537323,0.4289228618144989,0.03690296411514282,-0.08436989784240723,0.11902016401290894,0.0934361063698625,0.685366030755409,0.49470681460336835,0.5261256164648791,0.7057852988218081,-2.1694791338496695,-2.2755367839230902
1773064046475018496,1.1435036659240723,-0.48014917969703674,-0.028086988255381584,0.31739315390586853,-0.6307860016822815,-0.648723840713501,0.4257546067237854,0.03166472911834717,-0.046344757080078125,0.06960687041282654,0.09441664881977183,0.6860500147117725,0.49215107110372897,0.5274546324172054,0.7059062991847855,-2.1645177245112452,-2.283719060276141
1773064046485074432,1.153559684753418,-0.4020298719406128,-0.04647451639175415,0.21761488914489746,-0.6324288845062256,-0.648871898651123,0.4230826199054718,0.030835866928100586,0.007987558841705322,0.01113671064376831,0.09528691315295193,0.6865933996352722,0.49003143987917847,0.5285632105643461,0.7061009246334771,-2.1603991529394886,-2.2905427301356274
1773064046495129600,1.1636147499084473,-0.36456412076950073,-0.19502508640289307,0.11170925199985504,-0.632997989654541,-0.6494259834289551,0.42137816548347473,0.037111759185791016,0.03553438186645508,-0.07956600189208984,0.09643416528091706,0.6871235178068575,0.48841617497724626,0.5291610276814516,0.706829320308837,-2.158120024509204,-2.295858799231609
1773064046505185536,1.173670768737793,-0.5028935074806213,-0.28403910994529724,0.04859580472111702,-0.6324531435966492,-0.6507037878036499,0.420223593711853,0.061392903327941895,0.008507072925567627,-0.10773879289627075,0.09829285121143573,0.687778355744457,0.48690115435822895,0.5293645330655882,0.7085109310166231,-2.157251905860311,-2.3010727653846144
1773064046515240704,1.1837258338928223,-0.7698095440864563,-0.23301975429058075,0.0015107890358194709,-0.6314999461174011,-0.6532231569290161,0.4177406430244446,0.07406586408615112,-0.03345286846160889,-0.033921122550964355,0.10107009026777009,0.6882241784624717,0.4849925833311852,0.5300136419904211,0.7118334992635222,-2.1552172789069353,-2.3082712735721844
1773064046525296640,1.193781852722168,-0.9926876425743103,-0.20807498693466187,-0.034981172531843185,-0.6304863691329956,-0.6570168137550354,0.41329896450042725,0.046486735343933105,-0.06655502319335938,0.02923649549484253,0.10469865665631652,0.6883076504880529,0.4825785565203434,0.5314026627889201,0.7168547967378451,-2.1510450701117834,-2.3179742152352807
1773064046535351552,1.2038366794586182,-1.085572361946106,-0.1867959350347519,-0.0859171524643898,-0.629284679889679,-0.6617141366004944,0.40759673714637756,0.04201972484588623,-0.03532254695892334,0.06457123160362244,0.1089633696845892,0.6881339394126845,0.4798646230899452,0.5332247052627156,0.7231027107892835,-2.145563106089685,-2.3293081777449514
1773064046545407488,1.2138926982879639,-1.0190612077713013,-0.12087177485227585,-0.1782473623752594,-0.6277787089347839,-0.6668498516082764,0.401504248380661,0.05372762680053711,0.06196075677871704,0.08108553290367126,0.1133635120830333,0.6876549545544525,0.477370704365387,0.5351605112038175,0.729973465398335,-2.1397996808840323,-2.34038046806225
1773064046555462656,1.2239477634429932,-0.8198461532592773,-0.06774196028709412,-0.2701243758201599,-0.6258893013000488,-0.6719872951507568,0.3958479166030884,0.04088258743286133,0.14088988304138184,0.05791795253753662,0.11738741750473741,0.6868188239351262,0.4756089411026721,0.5369322108535457,0.7368890268765694,-2.134739858979486,-2.34929718574968
1773064046565518592,1.2340037822723389,-0.6498861312866211,-0.05573829635977745,-0.2845427393913269,-0.6237404346466064,-0.6766490936279297,0.3912721574306488,0.025046586990356445,0.1476726531982422,0.02295815944671631,0.12080805827499731,0.6858657128823253,0.47457803293675943,0.5383022770569716,0.7432020737722257,-2.131047620761724,-2.3556481880254667
1773064046575573760,1.2440588474273682,-0.5592819452285767,-0.04410647973418236,-0.27436506748199463,-0.6216371059417725,-0.680733859539032,0.3875162601470947,0.03687453269958496,0.11565512418746948,0.017680883407592773,0.12374784141895288,0.6849757589657471,0.4738843137065036,0.5393777829955435,0.7487640165127009,-2.128230008368265,-2.3605725934360153
1773064046585629440,1.2541146278381348,-0.5222738981246948,0.001588570885360241,-0.25699329376220703,-0.6197165250778198,-0.6844967603683472,0.3839477300643921,0.04758816957473755,0.08142358064651489,0.031732261180877686,0.1263838997745873,0.6840591597915631,0.4733254017998973,0.5404195997964293,0.7539131978314916,-2.125469691403376,-2.3649397146817592
1773064046595684608,1.264169692993164,-0.4570856988430023,0.039612025022506714,-0.22389450669288635,-0.6181281805038452,-0.6878798007965088,0.380445659160614,0.02839130163192749,0.049543678760528564,0.042909473180770874,0.12867926895332926,0.6831205800302923,0.4728309452024956,0.5414968308684853,0.758563944576208,-2.122520641616105,-2.3689597597542043
1773064046605740544,1.2742257118225098,-0.3847494423389435,0.11648283898830414,-0.2028379589319229,-0.6169402599334717,-0.6908104419708252,0.3770488202571869,-0.007281601428985596,0.04408186674118042,0.0658833384513855,0.13053179815827234,0.6821355278089686,0.47245690632432613,0.5426206034576722,0.7626093622013854,-2.1193808390048505,-2.3724208789399186
1773064046615795712,1.284280776977539,-0.28231534361839294,0.18490247428417206,-0.20023015141487122,-0.616131603717804,-0.6933080554008484,0.37377187609672546,-0.048541128635406494,0.06681281328201294,0.07619446516036987,0.13185193514028853,0.6810178784098854,0.47233525431896756,0.543809700182362,0.7660693828338297,-2.116086015560952,-2.3749328469313076
1773064046625851648,1.2943367958068848,-0.1915430724620819,0.18680717051029205,-0.22673100233078003,-0.6153616309165955,-0.6954963803291321,0.37096473574638367,-0.07221466302871704,0.09402543306350708,0.048697710037231445,0.13278317315453192,0.6798410207675204,0.47254476086883845,0.544872711661546,0.7691105064744442,-2.113301575817136,-2.3762020391849474
1773064046635906816,1.304391860961914,-0.12782739102840424,0.18683737516403198,-0.26645275950431824,-0.6143144369125366,-0.6976200342178345,0.36870625615119934,-0.06317579746246338,0.1149173378944397,0.033164530992507935,0.13356957255174726,0.6786413001128686,0.4730741088705179,0.5457161801469645,0.7720703165037428,-2.111356545497785,-2.376336435991596
1773064046645962496,1.3144476413726807,-0.0959826335310936,0.22425371408462524,-0.23779849708080292,-0.6132379174232483,-0.699633777141571,0.3666766881942749,-0.055753111839294434,0.09268498420715332,0.03562125563621521,0.13417110170187888,0.677385113062778,0.47380137868210503,0.5464977191859521,0.7748847859837231,-2.1096963645312523,-2.375768152679906
1773064046656017664,1.32450270652771,-0.08504652976989746,0.2352566123008728,-0.10373710095882416,-0.6128636002540588,-0.7010278701782227,0.36463478207588196,-0.06284141540527344,0.01151365041732788,0.028065472841262817,0.13439728272036083,0.6762766530851415,0.4743071515062837,0.5473756608586743,0.7768378198554616,-2.1075082810778465,-2.37557684732818
1773064046666073600,1.3345587253570557,-0.04712764546275139,0.24528874456882477,0.00612255185842514,-0.6134132742881775,-0.7015730738639832,0.36265596747398376,-0.06848675012588501,-0.054286301136016846,0.03164637088775635,0.13419847014858075,0.6754613454052503,0.47442591326584554,0.5483272488401861,0.777602620117313,-2.104727400180366,-2.3761193286024684
1773064046676128512,1.344613790512085,0.05908726900815964,0.2629265785217285,0.08373770117759705,-0.6146891713142395,-0.7012535333633423,0.36111071705818176,-0.07766318321228027,-0.04999774694442749,0.030887633562088013,0.13343360910315188,0.6748726482751384,0.4744494400040149,0.5492178102926982,0.7771543331872875,-2.1019507820348173,-2.37639891518006
1773064046686184704,1.3546698093414307,0.11239150911569595,0.1913762241601944,0.11004786938428879,-0.6162395477294922,-0.7002925276756287,0.3603323698043823,-0.08983045816421509,-0.0004979372024536133,-0.011089175939559937,0.13228350446485806,0.6745320778257711,0.47452361706700674,0.5498499488296402,0.7758071711398012,-2.0999105391171624,-2.3759733352457757
1773064046696239360,1.3647246360778809,-0.04430456459522247,0.12956789135932922,0.09715373814105988,-0.617537260055542,-0.6994649767875671,0.35971686244010925,-0.08061331510543823,0.034456491470336914,-0.03346875309944153,0.13145614530513497,0.6743845588326721,0.47440899942920756,0.5503278712661716,0.7746485916694438,-2.0982504782268907,-2.376113215413115
1773064046706295552,1.3747806549072266,-0.40578794479370117,0.13937604427337646,0.11349835991859436,-0.6187377572059631,-0.6996006369590759,0.35738277435302734,-0.06304013729095459,0.011414051055908203,0.0040673911571502686,0.1315741859735816,0.674112177390057,0.4735653678830424,0.5513590738515726,0.7748384440940251,-2.09458217579584,-2.3794176621649528
1773064046716350464,1.3848357200622559,-0.8813948035240173,0.08325403183698654,0.1802835762500763,-0.6201658248901367,-0.7009884715080261,0.3521502912044525,-0.06464868783950806,-0.06964147090911865,0.027625709772109985,0.13307391208697905,0.6737104657546767,0.4713696543971415,0.5533681387105472,0.7767825737843488,-2.0872273401714976,-2.388273408403173
1773064046726406656,1.3948917388916016,-1.2681854963302612,0.00758084561675787,0.23313960433006287,-0.6217824816703796,-0.7034984230995178,0.3442041575908661,-0.03422337770462036,-0.12340587377548218,0.06399893760681152,0.13632038183588802,0.6735512809685306,0.46736574975908773,0.5561606436571793,0.78030808558547,-2.076381237827541,-2.403984582476587
1773064046736461568,1.4049468040466309,-1.4147053956985474,-0.03031965158879757,0.27485376596450806,-0.6235417723655701,-0.7065295577049255,0.3346816897392273,-0.004403233528137207,-0.10395634174346924,0.09051969647407532,0.14044421029475698,0.6734230167174254,0.4624308500585649,0.5594056234278055,0.7845821871247315,-2.0634045019291443,-2.423364054040074
1773064046746517760,1.4150028228759766,-1.3904697895050049,-0.06943482905626297,0.31566140055656433,-0.6254783868789673,-0.7093522548675537,0.32495540380477905,-0.010034918785095215,-0.038725078105926514,0.06238889694213867,0.14473233188204504,0.673424487557595,0.45714020267707656,0.5626498040709319,0.7885788473814792,-2.0499463779708,-2.4439050934522246
1773064046756572416,1.4250576496124268,-1.2968205213546753,-0.08805620670318604,0.3278314769268036,-0.6275371313095093,-0.7116391658782959,0.31585872173309326,-0.020213663578033447,0.023147404193878174,0.02735719084739685,0.14877734936160789,0.6735873320334859,0.4518954155905559,0.5656287673170209,0.7918286480927557,-2.0371049606789704,-2.463931519501683
1773064046766628608,1.4351136684417725,-1.152647852897644,-0.07549567520618439,0.3148142099380493,-0.6295774579048157,-0.7134631872177124,0.3075750768184662,-0.022171199321746826,0.0586322546005249,0.010265469551086426,0.1524264424158786,0.6737873726014743,0.4469878301216785,0.5683120772209724,0.794428376014013,-2.0252356548193173,-2.4825110464296256
1773064046776683520,1.4451687335968018,-0.9605031609535217,-0.06311798840761185,0.3220101594924927,-0.6316507458686829,-0.7146738171577454,0.3004310131072998,-0.014818370342254639,0.06706029176712036,0.013411760330200195,0.1554685633319863,0.6740516194613136,0.44257193682187085,0.5706260398548668,0.7961576586175477,-2.014757213278027,-2.4989329441749994
1773064046786739712,1.4552247524261475,-0.7802473902702332,-0.05528669431805611,0.33690229058265686,-0.6338418126106262,-0.7151814103126526,0.2945507764816284,-0.0023123621940612793,0.05351454019546509,0.004643559455871582,0.15781191931073676,0.674426809148096,0.4386614465353316,0.572555706612457,0.7968836188528566,-2.0058131116680764,-2.513005546703505
1773064046796794624,1.4652798175811768,-0.6295713782310486,-0.012275086715817451,0.3670513331890106,-0.6362798810005188,-0.7149696350097656,0.2897699177265167,0.008380651473999023,0.03578561544418335,0.006143838167190552,0.1594566093230097,0.6749207594215969,0.4351631033862021,0.5741852868467818,0.79658070233763,-1.9981423046272986,-2.525012079474486
1773064046806850560,1.4753358364105225,-0.5030983686447144,0.04028532654047012,0.40102261304855347,-0.6390824913978577,-0.7141398191452026,0.28561899065971375,0.00825357437133789,0.008817493915557861,0.011210232973098755,0.16046662747560062,0.6754394457629253,0.4319618564532108,0.5757092060967117,0.7953945043112969,-1.9910862781188843,-2.5355005219500475
1773064046816905472,1.4853906631469727,-0.4486696422100067,0.05730356276035309,0.3951551914215088,-0.642108142375946,-0.7129059433937073,0.281890869140625,0.006838977336883545,-0.00732421875,0.0103912353515625,0.1607971476267276,0.6757742923252091,0.42927210304147545,0.5772338461640425,0.7936334028553481,-1.984472137866048,-2.544033871321257
1773064046826961408,1.4954466819763184,-0.4356726109981537,0.04186335206031799,0.36367955803871155,-0.6449633240699768,-0.7116810083389282,0.27844715118408203,0.015095710754394531,-0.0023540854454040527,-0.0055131614208221436,0.16107823550776215,0.6760989464644774,0.4267479287113692,0.5786452620116938,0.7918881696119243,-1.978349789774783,-2.551955761730471
1773064046837016576,1.5055017471313477,-0.47049254179000854,0.04976179078221321,0.33756133913993835,-0.6475710868835449,-0.7106762528419495,0.27493858337402344,0.022204816341400146,-0.0011158585548400879,0.0007419884204864502,0.16150456260642795,0.6763493722099064,0.4242885986951064,0.5800405756530803,0.7904589467518478,-1.972301824306374,-2.559840014919003
1773064046847072512,1.5155577659606934,-0.5022318363189697,0.025290269404649734,0.3522292375564575,-0.6501255035400391,-0.7097752094268799,0.27121269702911377,0.020044326782226562,-0.024004757404327393,0.018460184335708618,0.162069874808305,0.6765657467935008,0.42174060539512387,0.5814870311012491,0.7891790862290177,-1.966016026121961,-2.568123370929317
1773064046857127680,1.5256128311157227,-0.5682007670402527,-0.017226682975888252,0.3966386616230011,-0.6528024077415466,-0.7087624073028564,0.2674046754837036,0.024262309074401855,-0.0718468427658081,0.027364641427993774,0.16303726400007001,0.6771020464120387,0.4186109934558347,0.5828521745117514,0.7877422915269354,-1.959573136884666,-2.5780628131224494
1773064046867183616,1.5356688499450684,-0.6355584859848022,-0.03449728339910507,0.43513545393943787,-0.6556961536407471,-0.7076272964477539,0.26329857110977173,0.032618820667266846,-0.1050710678100586,0.026984691619873047,0.16419119476908867,0.6777525773524817,0.41509122266783327,0.5842875795921724,0.7861345628671245,-1.952643131774654,-2.5891586188930042
1773064046877238528,1.5457236766815186,-0.6053597331047058,-0.06795935332775116,0.45902445912361145,-0.6587277054786682,-0.7063505053520203,0.2591267228126526,0.03053867816925049,-0.11600661277770996,0.0016612708568572998,0.16538711702719724,0.6784698783299515,0.41139031551070043,0.585733458456181,0.7843291898687736,-1.945578122262278,-2.6006882770149797
1773064046887294464,1.5557796955108643,-0.4848748445510864,-0.12960965931415558,0.5112887024879456,-0.6619142293930054,-0.7045299410820007,0.25594380497932434,0.04172074794769287,-0.11328011751174927,-0.04210710525512695,0.16627331423144626,0.6794947732005866,0.40774840049123334,0.5868401076004367,0.7817605483921415,-1.9397606653255213,-2.6112495450136883
1773064046897349632,1.5658347606658936,-0.48596659302711487,-0.15092821419239044,0.5170473456382751,-0.6652027368545532,-0.7022898197174072,0.25356346368789673,0.05697214603424072,-0.09981894493103027,-0.06172990798950195,0.1669253926077274,0.680766004925207,0.4041526604234975,0.587668457582226,0.7786089270153607,-1.9349759765334882,-2.6210283020422707
1773064046907405568,1.5758907794952393,-0.5921287536621094,-0.12399407476186752,0.5073321461677551,-0.6684529781341553,-0.7002265453338623,0.2507059574127197,0.04954123497009277,-0.0855400562286377,-0.04253029823303223,0.16781213149868585,0.6819464920973475,0.4003772715432584,0.588630726308095,0.7757147333304131,-1.9296143218236281,-2.6316037074379017
1773064046917460736,1.5859458446502686,-0.670952558517456,-0.09874799847602844,0.503494918346405,-0.6717352271080017,-0.6984075903892517,0.24697934091091156,0.03136962652206421,-0.08177429437637329,-0.0009161233901977539,0.16896642865463218,0.6829186315562096,0.39637332445927637,0.5898819718689067,0.773170121535961,-1.9231284809574813,-2.6433178520124043
1773064046927516416,1.5960016250610352,-0.6875496506690979,-0.0941857397556305,0.4827406108379364,-0.6749640703201294,-0.6967477202415466,0.24282997846603394,0.02725893259048462,-0.059203267097473145,0.025862127542495728,0.17033172538423655,0.683793735625143,0.3922258442149359,0.5912463159758717,0.7708534758569101,-1.9161458631962758,-2.655697058847113
1773064046937571584,1.6060566902160645,-0.612312912940979,-0.07701189070940018,0.48257628083229065,-0.6781140565872192,-0.6950618624687195,0.23885196447372437,0.039167582988739014,-0.028662443161010742,0.019418224692344666,0.17163261781948716,0.6846397837198493,0.38819370191747676,0.5925506351394304,0.7685059754592382,-1.9094561991008736,-2.6676242907968963
1773064046947627520,1.6161127090454102,-0.5246765613555908,-0.05321734771132469,0.5079077482223511,-0.6814108490943909,-0.6930272579193115,0.235356405377388,0.04081636667251587,-0.03527474403381348,-0.004307866096496582,0.17250474635314744,0.6854858880856661,0.38443114154655234,0.5937709564400154,0.7656797964999407,-1.9033634985179104,-2.6782765853133714
1773064046957682688,1.6261677742004395,-0.46092846989631653,-0.009723933413624763,0.5578957796096802,-0.6850122809410095,-0.6905568838119507,0.2321418821811676,0.038375258445739746,-0.06730151176452637,-0.012354224920272827,0.17299118351649714,0.6863635231905042,0.38075721162656184,0.5949817718849124,0.7622587052387249,-1.8975369840786045,-2.688179161455954
1773064046967738624,1.6362237930297852,-0.41313138604164124,0.011982161551713943,0.6226508021354675,-0.689110279083252,-0.6874843239784241,0.22911328077316284,0.03766661882400513,-0.10003727674484253,0.001477658748626709,0.17300922957254647,0.6872881223676122,0.3770831142994721,0.5962477509140348,0.7580191385062635,-1.891775929952318,-2.697479811200007
1773064046977793792,1.6462788581848145,-0.36824727058410645,0.02766525000333786,0.6435753107070923,-0.6935376524925232,-0.683966875076294,0.22626276314258575,0.03193181753158569,-0.11344218254089355,0.008676767349243164,0.17269791070038557,0.688257341321502,0.3734075703793789,0.5975316494459939,0.7531865967414448,-1.8861533057612958,-2.706302930566792
1773064046987849472,1.656334638595581,-0.2643285393714905,0.04543557018041611,0.6558175086975098,-0.6980716586112976,-0.6801576018333435,0.22378894686698914,0.018429994583129883,-0.08533000946044922,0.027172312140464783,0.17206635161377543,0.6892468269257145,0.369909838281825,0.598747559236232,0.7479775998365714,-1.8810267988627625,-2.714178389858704
1773064046997904640,1.6663897037506104,-0.09383662790060043,-0.004707043990492821,0.688507616519928,-0.7027024626731873,-0.6758258938789368,0.22241464257240295,0.015858709812164307,-0.06149393320083618,-0.002413436770439148,0.17090011550535716,0.6904421478767085,0.3667382755765125,0.599654667743123,0.742084689856695,-1.8773332016338442,-2.720230159982379
1773064047007960576,1.676445722579956,0.007531804032623768,-0.053319051861763,0.7090773582458496,-0.7073721885681152,-0.6709383130073547,0.22240997850894928,0.03575664758682251,-0.05422031879425049,-0.038694173097610474,0.1692538155855834,0.6919707714434973,0.3638426009756857,0.600123399220929,0.7354734545873297,-1.8754268521897586,-2.724499122044738
1773064047018015744,1.6865007877349854,-0.03654247894883156,-0.047676607966423035,0.7009463310241699,-0.711997389793396,-0.6658997535705566,0.22279448807239532,0.04248744249343872,-0.06554561853408813,-0.04657074809074402,0.16750023600738856,0.6935885361406653,0.36101549119309706,0.6004552425911718,0.7286992368106141,-1.8740590021113774,-2.7282863541349607
1773064047028071680,1.696556806564331,-0.2930416464805603,-0.07993494719266891,0.6826933026313782,-0.7164531350135803,-0.6613156199455261,0.22216281294822693,0.0427471399307251,-0.0818331241607666,-0.046961456537246704,0.16634544050674266,0.6950338055935198,0.3577840388824488,0.6010388556936231,0.7225713261594169,-1.8714813773900967,-2.7339405291991197
1773064047038126592,1.7066116333007812,-0.6393455266952515,-0.23129482567310333,0.702989935874939,-0.7206723690032959,-0.6573537588119507,0.22026677429676056,0.0558927059173584,-0.13392126560211182,-0.09122323989868164,0.16645148137907592,0.6965414047534416,0.35350171293747334,0.6017977603114474,0.7173018313009906,-1.867419980581901,-2.7435250648359895
1773064047048182528,1.716667652130127,-1.0379383563995361,-0.3543398082256317,0.7444601058959961,-0.7247745394706726,-0.6539481282234192,0.2169192135334015,0.09426605701446533,-0.20663237571716309,-0.10878011584281921,0.16805031842001242,0.6982026842004883,0.34781117729434463,0.602743365434517,0.712791407641476,-1.8616034446006544,-2.7580503499184066
1773064047058237440,1.7267227172851562,-1.3027015924453735,-0.3819018006324768,0.7862834334373474,-0.728993833065033,-0.6509116291999817,0.2118532359600067,0.10606902837753296,-0.20503002405166626,-0.05326870083808899,0.17086288097659974,0.6998279821380373,0.3408334079366477,0.6040522690139211,0.7087846796823076,-1.8536167700329498,-2.7770860531249033
1773064047068293632,1.736778736114502,-1.2999827861785889,-0.41386187076568604,0.8085703253746033,-0.733362078666687,-0.6478055119514465,0.20622332394123077,0.07435023784637451,-0.13890713453292847,-0.030243754386901855,0.17372724671388168,0.7012536698695115,0.33369889503504274,0.6055635165356783,0.7047002289295468,-1.8449198468177088,-2.796635603354525
1773064047078348544,1.7468338012695312,-1.1239031553268433,-0.39842531085014343,0.813990592956543,-0.7377791404724121,-0.6443037390708923,0.2013816386461258,0.045686304569244385,-0.04676675796508789,-0.03805162012577057,0.17653667748473864,0.7029512775408093,0.3264204615085671,0.6067486744486029,0.7001125035317471,-1.8372617459385168,-2.815915214939736
1773064047088404736,1.756889820098877,-1.0459377765655518,-0.40916743874549866,0.8622792959213257,-0.7423869371414185,-0.6402275562286377,0.19740936160087585,0.03555405139923096,-0.012284040451049805,-0.06502413749694824,0.17876989671961452,0.7047487149266591,0.3194274978101888,0.60773078740262,0.6947944590088331,-1.8306937184514027,-2.833502089644514
1773064047098459392,1.7669446468353271,-1.0562858581542969,-0.36259880661964417,0.8827889561653137,-0.747217059135437,-0.6357386708259583,0.19365684688091278,0.04786103963851929,-0.03885233402252197,-0.021583452820777893,0.18075691227124263,0.7065660049377328,0.31239863233813747,0.6086858633244009,0.688965051026042,-1.824387543548885,-2.8506672542271105
1773064047108515584,1.7770006656646729,-1.0536797046661377,-0.3293609619140625,0.8701522350311279,-0.7521552443504333,-0.631158173084259,0.1894790530204773,0.0557592511177063,-0.04274630546569824,0.05434122681617737,0.18268488145304318,0.7081693402451665,0.3053452394062017,0.6098252817907386,0.6830454423018598,-1.8175763764366972,-2.8678865220988357
1773064047118570496,1.7870557308197021,-0.9821152091026306,-0.33439797163009644,0.8570926189422607,-0.7569780349731445,-0.626551628112793,0.18551960587501526,0.04054725170135498,-0.03731256723403931,0.05276168882846832,0.18450768011504556,0.7097044300191294,0.29846176037521827,0.6108986750101112,0.6771207876176994,-1.8111383554880471,-2.8844530062295917
1773064047128626688,1.7971117496490479,-0.8349614143371582,-0.35292237997055054,0.8506983518600464,-0.761695146560669,-0.6217234134674072,0.182429239153862,0.05226832628250122,-0.0515095591545105,0.009266957640647888,0.18596688538876982,0.7113321390990266,0.2919267165607887,0.6117202449658662,0.670941155411432,-1.8058725266258353,-2.8994668633502716
1773064047138681600,1.8071668148040771,-0.6831493973731995,-0.3455859124660492,0.8292262554168701,-0.7662835121154785,-0.6166446805000305,0.18044063448905945,0.07431274652481079,-0.07967483997344971,-0.04767395555973053,0.18692248930019006,0.7130848478589524,0.2858851488099796,0.6122414619739144,0.6644734200771633,-1.8020584198250371,-2.9124223379622904
1773064047148737792,1.8172228336334229,-0.5822172164916992,-0.3391517102718353,0.8161874413490295,-0.7707286477088928,-0.6114444732666016,0.17920197546482086,0.08203834295272827,-0.1258297562599182,-0.08433805406093597,0.18747263323760685,0.7148666974208231,0.28029732927609907,0.6125790921563832,0.6578847510602576,-1.7992471266689403,-2.923684301233096
1773064047158792448,1.827277660369873,-0.5056074857711792,-0.33343639969825745,0.8132035136222839,-0.775102436542511,-0.60609370470047,0.17851312458515167,0.09449934959411621,-0.1599586009979248,-0.11392270028591156,0.1877228204281176,0.7166851896084458,0.27498890955610744,0.612783589283721,0.6511402068247253,-1.7971582322282227,-2.93379498046342
1773064047168848640,1.8373336791992188,-0.4350895881652832,-0.2673444449901581,0.747679591178894,-0.7793431282043457,-0.6007736921310425,0.1780315339565277,0.1051487922668457,-0.13225853443145752,-0.1020427942276001,0.18771118673202292,0.7183930224075723,0.2700504215999402,0.6129834553995143,0.644468578294538,-1.7953806264287464,-2.9427962077135854
1773064047178903552,1.847388744354248,-0.36075523495674133,-0.24279747903347015,0.6265382170677185,-0.7830033898353577,-0.5961223840713501,0.17760564386844635,0.08271652460098267,-0.0447467565536499,-0.09330081939697266,0.1876956454892443,0.7198461721311827,0.26575234760934474,0.6131618934953358,0.6386628795538315,-1.7938482491068688,-2.9505875387452827
1773064047188959488,1.8574447631835938,-0.32517141103744507,-0.27185043692588806,0.5794274210929871,-0.786129355430603,-0.5919933319091797,0.17760786414146423,0.05738484859466553,0.016218185424804688,-0.09745347499847412,0.18771927048969514,0.7212456114921069,0.2619326230184761,0.6131537703805885,0.6335299160680015,-1.7929929511340454,-2.957370744327577
1773064047199014656,1.867499828338623,-0.382682740688324,-0.29210972785949707,0.5127156972885132,-0.7888644337654114,-0.5882775783538818,0.17782744765281677,0.06967180967330933,0.030233025550842285,-0.09587250649929047,0.18800834723782558,0.7226654734794753,0.25820213055759644,0.6129757102559357,0.62892718035186,-1.7925124600708755,-2.964200775175031
1773064047209070592,1.8775558471679688,-0.46493712067604065,-0.25189119577407837,0.4412713646888733,-0.7911737561225891,-0.585267186164856,0.17750084400177002,0.05963689088821411,0.04507553577423096,-0.07186424732208252,0.18877331393165955,0.7238577530191037,0.2545198857781467,0.6128737649538607,0.625209522368539,-1.79149322131757,-2.9717127213234837
1773064047219125504,1.887610673904419,-0.5048155188560486,-0.23328298330307007,0.39125314354896545,-0.7931841015815735,-0.582837700843811,0.17651955783367157,0.014039814472198486,0.07832109928131104,-0.01659214496612549,0.18989442940735574,0.7247799728987183,0.2509058940838608,0.6129276487846286,0.6222164813790089,-1.7897733164008958,-2.9797725466563665
1773064047229181440,1.8976666927337646,-0.5399489998817444,-0.21134386956691742,0.34804949164390564,-0.7949289679527283,-0.5808411240577698,0.17524729669094086,-0.0006795525550842285,0.11972051858901978,0.007415652275085449,0.19125078626709838,0.7255478061805304,0.24739448429515595,0.613024899160292,0.6197616233224316,-1.7877820671278857,-2.9880322870064338
1773064047239236608,1.907721757888794,-0.5321905612945557,-0.20117095112800598,0.3613957464694977,-0.7966009378433228,-0.5789968371391296,0.17375320196151733,0.013458669185638428,0.1318836808204651,0.027006790041923523,0.19272107001219888,0.7262230128196993,0.24387852606324067,0.6131738859385831,0.6174977781504869,-1.7855510499121279,-2.996508010734108
1773064047249292544,1.9177777767181396,-0.43542781472206116,-0.20494890213012695,0.4506838023662567,-0.7986220121383667,-0.5765805840492249,0.1725042164325714,0.027534425258636475,0.11129438877105713,0.030773386359214783,0.19376262004885197,0.7269623782722008,0.2403701438206383,0.6133546503168186,0.6145373266048683,-1.7835303280508765,-3.004339371589929
1773064047259347712,1.927832841873169,-0.3966883420944214,-0.3291262984275818,0.4849843978881836,-0.8008841872215271,-0.5734950304031372,0.17230124771595,0.05128103494644165,0.07097738981246948,-0.03474332392215729,0.19441286465324875,0.7280697227697225,0.2367807107394886,0.6132315216776385,0.6107658653447963,-1.7827051408644468,-3.0114103161740156
1773064047269403648,1.9378888607025146,-0.48702651262283325,-0.34498515725135803,0.5024877786636353,-0.8031509518623352,-0.5702521204948425,0.17251352965831757,0.07356733083724976,0.0771186351776123,-0.05242682993412018,0.19521721153434024,0.7293966092314158,0.2328891364651495,0.6128893884396555,0.6068127177797923,-1.782377391787401,-3.019012382196295
1773064047279458560,1.9479436874389648,-0.5128269195556641,-0.32111889123916626,0.5653756856918335,-0.8056167364120483,-0.5668284893035889,0.17229941487312317,0.059706151485443115,0.07210803031921387,0.022585853934288025,0.1960721894778847,0.7306311013965343,0.22875292708903364,0.6127038114810633,0.6026510105380513,-1.7814947294507653,-3.0272436323740495
1773064047289514496,1.9579997062683105,-0.5401437878608704,-0.3168506324291229,0.62870192527771,-0.8084744811058044,-0.562872052192688,0.1718837171792984,0.0026578903198242188,-0.0010011792182922363,0.0800083726644516,0.19681070698942552,0.731878349232355,0.2242675685858509,0.6126366670402753,0.5978564896725931,-1.7802798119769028,-3.035986175290317
1773064047299569664,1.9680547714233398,-0.44434887170791626,-0.2970205843448639,0.6409441232681274,-0.8115350008010864,-0.5585484504699707,0.17156505584716797,-0.020694613456726074,0.010239124298095703,0.15199756622314453,0.1973159693726983,0.7331417697379473,0.21974000579955938,0.6126041798807147,0.5926347980001887,-1.7791367365968287,-3.044452970053407
1773064047309625600,1.9781107902526855,-0.28066566586494446,-0.26709091663360596,0.6780638098716736,-0.8147223591804504,-0.5537970066070557,0.1718612015247345,-0.049352288246154785,0.01656562089920044,0.1399826854467392,0.1972023295208503,0.7344707794100773,0.21559980469990678,0.6125198763239742,0.5869175235864962,-1.7786929648457817,-3.051248613593059
1773064047319680768,1.9881658554077148,-0.2880345582962036,-0.17146441340446472,0.64376300573349,-0.8180466890335083,-0.54876309633255,0.17221637070178986,-0.06598639488220215,-0.015201687812805176,0.13884924352169037,0.19663535022999504,0.7357075949715718,0.21176052422325392,0.6125571490632542,0.5808839182550966,-1.7782878889336533,-3.0569356395427842
1773064047329736448,1.9982216358184814,-0.3859688341617584,-0.25042420625686646,0.6009436249732971,-0.8211186528205872,-0.5442197918891907,0.17201398313045502,-0.04992920160293579,-0.03912365436553955,0.0915815681219101,0.19642871036036527,0.7367332880980935,0.20792078133563693,0.6127060396833924,0.5754588255807918,-1.777297483270261,-3.0632494783907482
1773064047339791616,2.0082767009735107,-0.5919314622879028,-0.24362891912460327,0.5369901061058044,-0.8238466382026672,-0.540285587310791,0.17137208580970764,0.020196735858917236,-0.038068294525146484,0.009154677391052246,0.1970215514305286,0.7377046426918845,0.2036612499804679,0.6127777405885256,0.5707764590352749,-1.775886170800033,-3.071393449477946
1773064047349847552,2.0183327198028564,-0.49594151973724365,-0.12083642184734344,0.3755332827568054,-0.826035737991333,-0.5374123454093933,0.1698610782623291,0.07464730739593506,0.08270049095153809,0.1036527007818222,0.1980601654445506,0.7382485611343864,0.19979889838215462,0.6130592123698096,0.5673657186179157,-1.7736033234272948,-3.0797055656897214
1773064047359902720,2.0283877849578857,-0.4161359965801239,-0.03687999024987221,0.20601403713226318,-0.8274362087249756,-0.5358132123947144,0.16808821260929108,0.015210866928100586,0.12971580028533936,0.10406756401062012,0.1991897075903516,0.7384089990129072,0.1969676482473325,0.6134161967820565,0.5654706194718415,-1.771212552505497,-3.086476560206425
1773064047369958656,2.0384438037872314,-0.31307724118232727,0.020417386665940285,0.11703356355428696,-0.8282660245895386,-0.5351201891899109,0.16619756817817688,-0.06090933084487915,0.17571473121643066,0.14231990277767181,0.2002910543925148,0.7382955704706428,0.1949831622774891,0.6138278796489225,0.564650025390153,-1.7688237540244172,-3.091828809620312
1773064047380013568,2.0484986305236816,-0.3502601683139801,0.11657817661762238,0.04707160219550133,-0.8288009762763977,-0.5349742770195007,0.1639852374792099,-0.10030657052993774,0.23886233568191528,0.20115754008293152,0.2014060147907193,0.73794455515993,0.1934695076956245,0.6143638031439566,0.5644772912828269,-1.766131802999876,-3.0965213571447014
1773064047390069504,2.0585546493530273,-0.5737934112548828,0.28205767273902893,-0.042972538620233536,-0.8291431665420532,-0.5356989502906799,0.15983788669109344,-0.078144371509552,0.3243495225906372,0.32438457012176514,0.2031786929753913,0.7369444477726429,0.19191619196134455,0.6154668443742024,0.5653352396301032,-1.7612349967616205,-3.102782226916
1773064047400124672,2.0686097145080566,-0.6256347298622131,0.3719906210899353,-0.09598827362060547,-0.829251229763031,-0.5373141169548035,0.15373928844928741,-0.06616497039794922,0.3440921902656555,0.3654104471206665,0.20565945882339104,0.7352930125807113,0.19029930713129883,0.6171178976394917,0.5672492402945988,-1.754110280842367,-3.110736692006832
1773064047410180608,2.0786657333374023,-0.5527368187904358,0.2973827123641968,-0.019308939576148987,-0.8294203877449036,-0.5387556552886963,0.14766304194927216,0.0030501484870910645,0.2147352695465088,0.24439632892608643,0.20798455543954616,0.7336258456070163,0.18874490728383345,0.6187980205332234,0.5689593598480271,-1.7469819914966298,-3.1184020920689783
1773064047420235520,2.0887207984924316,-0.5888219475746155,0.12336258590221405,0.13774599134922028,-0.8300513029098511,-0.5390712022781372,0.14288915693759918,0.10609793663024902,0.04749399423599243,0.1410921961069107,0.20991943105480762,0.7325225077046129,0.1866958871688593,0.6200720776399253,0.5693340075323329,-1.7412704615324006,-3.125934715308352
1773064047430291712,2.0987768173217773,-0.9104329943656921,-0.05566655099391937,0.22357220947742462,-0.8310760259628296,-0.5385965704917908,0.13865990936756134,0.1292175054550171,-0.059395432472229004,0.10934114456176758,0.21229283243704278,0.731896860051814,0.18345828675893505,0.6209684820937555,0.5687705222936165,-1.7361173856736651,-3.135787990593175
1773064047440346368,2.1088316440582275,-1.5253006219863892,-0.06088796257972717,0.2722584903240204,-0.8323850035667419,-0.5380673408508301,0.13273656368255615,0.05725371837615967,-0.13556253910064697,0.11527980864048004,0.21625620194397238,0.7311400759563071,0.17833246669690705,0.6219848036829784,0.5681425388941957,-1.7289302276491605,3.131811864960022
1773064047450402560,2.1188876628875732,-1.708354115486145,-0.09490691125392914,0.2953914999961853,-0.833746075630188,-0.5379858016967773,0.12425445765256882,-0.0018253326416015625,-0.1852504014968872,0.14024139940738678,0.2219156942316894,0.729828140375073,0.17169191391613636,0.6233990296690098,0.5680458064783593,-1.7187389886068125,3.110657361984281
1773064047460457472,2.1289427280426025,-1.7495182752609253,-0.03543413430452347,0.3182351589202881,-0.8353891372680664,-0.5373826622962952,0.11552110314369202,-0.017256855964660645,-0.2128310203552246,0.14206255972385406,0.22750350520124435,0.7284274591729109,0.16478466961685723,0.6248853448186852,0.567330472374036,-1.7082090409342765,3.0890868247534615
1773064047470513664,2.1389987468719482,-1.6401952505111694,-0.01444283314049244,0.27678918838500977,-0.8369729518890381,-0.5367641448974609,0.10658539086580276,-0.038057565689086914,-0.08947175741195679,0.16555511951446533,0.23284546266454337,0.7268055463377121,0.15826052746341643,0.6264904422105303,0.5665972636027333,-1.6974608336423658,3.068397890822054
1773064047480568576,2.1490538120269775,-1.4944462776184082,0.06473340094089508,0.2392423003911972,-0.8383352756500244,-0.5362828969955444,0.0979534313082695,-0.11445415019989014,0.009595215320587158,0.1153797060251236,0.2379856243749284,0.7251327442559725,0.1521815285332287,0.6280017916750541,0.5660269490050227,-1.6871117016698303,3.0488012532284623
1773064047490624768,2.1591098308563232,-1.483121395111084,0.13619694113731384,0.3623836636543274,-0.8400588035583496,-0.5351334810256958,0.08907072246074677,-0.1539292335510254,-0.07790368795394897,0.07316076755523682,0.24256794445808993,0.7232834885641428,0.14627493760765273,0.6297821110892479,0.5646657189942516,-1.6764308093644276,3.0301678640051843
1773064047500679424,2.1691646575927734,-1.4223734140396118,0.09585011005401611,0.3635152578353882,-0.8421706557273865,-0.533211350440979,0.08021403849124908,-0.13532263040542603,-0.0808175802230835,0.06750631332397461,0.24684282405720512,0.7214320316631704,0.14015292387762776,0.6316341044872438,0.5623920740813535,-1.665756631420196,3.011665484704848
1773064047510735616,2.179220676422119,-1.3563765287399292,0.052591316401958466,0.2849738597869873,-0.8439481258392334,-0.5315390229225159,0.0722343921661377,-0.1153566837310791,-0.021881937980651855,0.004776716232299805,0.2509926203781678,0.719753475756288,0.13443262060097388,0.6331551980021787,0.5604165156433737,-1.6561792648317721,2.9942920619385953
1773064047520790528,2.1892757415771484,-1.4725838899612427,0.09527282416820526,0.12472030520439148,-0.8451027870178223,-0.5307443141937256,0.06412426382303238,-0.127873957157135,0.0070626139640808105,0.0030449703335762024,0.2556010968836783,0.717923236799745,0.1290285181501119,0.6345124566442021,0.5594785654801783,-1.646528680928365,2.976724377036037
1773064047530846720,2.199331760406494,-1.342158555984497,0.0752466544508934,-0.04237573966383934,-0.8453501462936401,-0.5312895774841309,0.055808454751968384,-0.11194044351577759,0.09562063217163086,0.005257248878479004,0.26081520527289,0.7158808872144484,0.12417239028543796,0.635665992939528,0.5601220159838965,-1.6367188154100016,2.9590422252004362
1773064047540901632,2.2093868255615234,-0.7662920951843262,0.22356967628002167,-0.08179747313261032,-0.8450562953948975,-0.5324498414993286,0.04875633493065834,-0.01788926124572754,0.1564580202102661,0.04215550422668457,0.26502835655762924,0.7139687135123506,0.12094148456186493,0.6366960684346273,0.5614921584991774,-1.6284283928641314,2.9456626797284153
1773064047550957568,2.219442844390869,-0.3123280704021454,0.24911552667617798,-0.2858366370201111,-0.8442519307136536,-0.5341393351554871,0.04397282376885414,0.061460912227630615,0.17542052268981934,0.02987968549132347,0.26748954863011637,0.7124535086677934,0.11998503999986257,0.6375443635794602,0.5634893252040614,-1.6228342575768202,2.9389957525651464
1773064047561012480,2.2294976711273193,-0.31102412939071655,0.2523748278617859,-0.466974139213562,-0.8422588109970093,-0.5375632643699646,0.04031779617071152,0.0694623589515686,0.17588430643081665,-0.09520364552736282,0.26983201194186807,0.7110738795066277,0.12055221597478677,0.6379903358455388,0.5675446808407855,-1.6186284701455467,2.935133038946084
1773064047571068416,2.239553689956665,-0.5396673679351807,0.27517709136009216,-0.39093104004859924,-0.8399658799171448,-0.5414564609527588,0.03580758348107338,0.03108227252960205,0.10044699907302856,-0.13283824920654297,0.2727702999222107,0.709420910580373,0.1209370199368635,0.6385080712984109,0.5721684940642291,-1.6134003359394762,2.929788325518212
1773064047581123584,2.2496087551116943,-0.7592359781265259,0.11651232093572617,-0.15218199789524078,-0.838501513004303,-0.5440478920936584,0.030444351956248283,0.04061955213546753,-0.045032799243927,-0.09979557991027832,0.2761509045363316,0.7077174368063827,0.11982573098655594,0.6391544441402112,0.5752539876552707,-1.6070884313513345,2.9212333298937936
1773064047591179520,2.25966477394104,-0.5339229702949524,-0.00878966972231865,0.09619877487421036,-0.8384121656417847,-0.5444043278694153,0.026250401511788368,0.11336028575897217,-0.06257510185241699,-0.030934810638427734,0.2788145510716861,0.7066173912605915,0.11754600516945979,0.6396383985254935,0.575678787319496,-1.602095764609387,2.912415261297711
1773064047601234688,2.2697198390960693,0.1536010503768921,-0.04584115371108055,0.126473069190979,-0.8390774726867676,-0.5434132218360901,0.025517303496599197,0.15397310256958008,0.03314405679702759,0.0069533586502075195,0.2793323147675259,0.7065798806834297,0.11620466308751895,0.6396990262447958,0.5744977132484845,-1.6011980969385735,2.909411641852925
1773064047611290624,2.279775857925415,0.8426827788352966,0.04276568070054054,0.18954499065876007,-0.8398882746696472,-0.5420221090316772,0.02827865444123745,0.10685610771179199,0.04573005437850952,-0.05516469478607178,0.2772431945998509,0.7074091425770687,0.1170966789516012,0.6395286111244213,0.5728414588978894,-1.60445315615528,2.9148237019682965
1773064047621345536,2.2898306846618652,1.2518728971481323,0.05518427491188049,0.1875818371772766,-0.8410261273384094,-0.5399420857429504,0.03373056650161743,0.026481449604034424,0.06153327226638794,-0.08409976959228516,0.27287956444977257,0.7088968722023367,0.11971010076560658,0.6392742337160872,0.5703683250276531,-1.6108812873487883,2.9270906225516975
1773064047631401472,2.299886703491211,0.9930858016014099,0.0265108160674572,-0.10497012734413147,-0.8413097858428955,-0.5391024351119995,0.03957945480942726,0.012421846389770508,0.07428920269012451,-0.10819828510284424,0.2687749993014255,0.7103796701270872,0.12308717455409313,0.6387255515758636,0.5693710609054646,-1.6178067104864575,2.940208557867285
1773064047641456640,2.3099417686462402,0.7009128332138062,-0.0016711312346160412,-0.18730860948562622,-0.8403849005699158,-0.5401940941810608,0.04408665746450424,-0.03516441583633423,0.008867800235748291,-0.06071877479553223,0.2665498837753857,0.7114290490149908,0.12614292440543512,0.6378933026431005,0.5706677573754815,-1.623208361534765,2.949601849702068
1773064047651513088,2.319998264312744,0.3613829016685486,0.029645778238773346,-0.03257523104548454,-0.8397916555404663,-0.5408840179443359,0.04684668406844139,-0.04013693332672119,-0.11800575256347656,0.002851247787475586,0.2651773714678056,0.7120569238721064,0.12805576581125716,0.6373834798310378,0.5714877937869938,-1.6265222693880357,2.9554356794534473
1773064047661568256,2.3300533294677734,0.24181413650512695,-0.07821071147918701,0.05507791042327881,-0.8398559093475342,-0.5406383275985718,0.04850250482559204,0.04296553134918213,-0.1138874888420105,0.10017920285463333,0.26438292641265027,0.7125371723894376,0.12861582618274392,0.6370639955754529,0.5711957310703354,-1.6284832368880335,2.958013963606956
1773064047671624192,2.340109348297119,0.46861588954925537,-0.1985861212015152,0.078532375395298,-0.8401705026626587,-0.5398643016815186,0.0515788272023201,0.09165048599243164,-0.045462965965270996,0.17953073978424072,0.26320268236749467,0.7135352127776585,0.1290616648626904,0.6363450867734578,0.570275861882336,-1.6321102803222367,2.9614757482329224
1773064047681679104,2.3501641750335693,0.8439696431159973,-0.15318284928798676,0.08841554820537567,-0.8404990434646606,-0.5388333797454834,0.05674448981881142,0.08334267139434814,0.0823972225189209,0.17114555835723877,0.2609144645513316,0.715100288783773,0.13039870375863474,0.6352569542033997,0.5690516443739637,-1.6382068867735873,2.968607486249746
1773064047691735040,2.360220193862915,1.1806637048721313,0.00765475956723094,0.06388038396835327,-0.8409208655357361,-0.5375028848648071,0.0627923384308815,0.015466153621673584,0.26748335361480713,0.14974737167358398,0.25721487493549444,0.7167261953618224,0.13304033667084508,0.6343850581771882,0.5674730433800764,-1.6453289337125159,2.980039817201078
1773064047701790208,2.3702752590179443,1.5062798261642456,0.16793164610862732,-0.061324916779994965,-0.8409966230392456,-0.5365568399429321,0.06950843334197998,-0.024191975593566895,0.36903059482574463,0.05614769458770752,0.2525049897502962,0.7182913062291981,0.1371561788729558,0.6336300025407676,0.5663515350708188,-1.6532589783574432,2.9953694249632985
1773064047711846144,2.38033127784729,1.3999238014221191,0.16256403923034668,-0.29585886001586914,-0.8401247262954712,-0.5370748043060303,0.07577070593833923,-0.05466592311859131,0.2885701656341553,-0.06226670742034912,0.24788218860658648,0.7194285783367975,0.1425056975793759,0.6329842965194105,0.5669654750132975,-1.660742801529969,3.012292248463019
1773064047721901056,2.3903863430023193,1.1786093711853027,0.1290130913257599,-0.08399103581905365,-0.8390404582023621,-0.5378928184509277,0.0817466676235199,-0.12978583574295044,0.11569738388061523,-0.15846788883209229,0.2440063832542395,0.7205325055931626,0.14733038486522576,0.6321293920935601,0.5679354991110876,-1.6679185521108433,3.0272594567681153
1773064047731956992,2.400442123413086,0.7972292900085449,0.2723979651927948,0.2673611342906952,-0.8397480249404907,-0.5362155437469482,0.08541612327098846,-0.07751870155334473,0.007284998893737793,-0.11471296101808548,0.24020414226467227,0.7212404560899152,0.1500675369571826,0.6321343244947297,0.5659472028667067,-1.6721640688102615,3.0380848729737346
1773064047742011904,2.4104971885681152,0.8212548494338989,0.41662439703941345,0.3949906527996063,-0.8419205546379089,-0.5325958132743835,0.08666926622390747,0.09239357709884644,0.10261839628219604,-0.032073259353637695,0.23624605189646042,0.7213909326051283,0.1514257430663893,0.6331296838921152,0.5616645797816611,-1.6733773237804268,3.0461295059946303
1773064047752068096,2.420553207397461,1.318481683731079,0.33680227398872375,0.3090989291667938,-0.8442167043685913,-0.5285700559616089,0.08894779533147812,0.17507308721542358,0.17659562826156616,-0.17123842239379883,0.2311677847251533,0.7217033076859535,0.15368224723586937,0.6341037114938726,0.5569152168915419,-1.6757703586321515,3.0574509918802018
1773064047762123008,2.4306082725524902,2.0030641555786133,0.09001214057207108,0.2643304467201233,-0.8458930850028992,-0.524689257144928,0.0957394540309906,0.20096516609191895,0.08146727085113525,-0.3554898500442505,0.22428995504222513,0.723122212859515,0.15799997688275472,0.6338960871692408,0.552350017641555,-1.6834982308604867,3.0759436364743666
1773064047772179200,2.440664291381836,2.5443665981292725,-0.2391500324010849,0.3314705789089203,-0.8473392724990845,-0.519808828830719,0.10869675129652023,0.17323648929595947,-0.140927255153656,-0.27077555656433105,0.21526483645923788,0.7262851739626103,0.16388478315790475,0.6319119379403286,0.5466271456274201,-1.6983796256173092,3.1017795457588746
1773064047782234112,2.4507193565368652,2.660388946533203,-0.1613929718732834,0.278585284948349,-0.8487601280212402,-0.5139889717102051,0.12418421357870102,0.11092138290405273,-0.18120145797729492,-0.086281418800354,0.20497472297988645,0.73005647361247,0.17061551138120107,0.6292005453189264,0.5398286229015805,-1.716077979448517,3.13130740658237
1773064047792290048,2.460775136947632,2.469451904296875,0.006214397493749857,0.16353723406791687,-0.849740743637085,-0.508771538734436,0.13817405700683594,-0.08011454343795776,-0.11631995439529419,0.02385900914669037,0.19512316914798236,0.7331697196192135,0.1776209280409065,0.6267693841430512,0.5337572158851599,-1.731992785741666,-3.123171251755446
1773064047802344960,2.470830202102661,1.9547382593154907,0.176427960395813,0.31034761667251587,-0.8509984016418457,-0.5036507844924927,0.14878718554973602,-0.2603297233581543,-0.20125949382781982,0.09126412868499756,0.18631756738961455,0.7352977246552005,0.18365960510081003,0.6252137034380534,0.5278194773174313,-1.7438851786303782,-3.098620671807568
1773064047812401152,2.480886220932007,1.3048784732818604,0.2195030003786087,0.45554396510124207,-0.8533033132553101,-0.4978300631046295,0.15504372119903564,-0.22212082147598267,-0.3041108250617981,0.14056478440761566,0.17917418389117987,0.7365375823929069,0.18717438332675732,0.6247997319680414,0.521094939763927,-1.7505337275384791,-3.08179974455003
1773064047822456064,2.490941286087036,0.9592717289924622,0.04480946063995361,0.4723491668701172,-0.8558475375175476,-0.49207523465156555,0.15933342278003693,-0.11488610506057739,-0.24110957980155945,0.08662295341491699,0.17377203940830283,0.7376040116205433,0.18869825909167248,0.6246091877330705,0.5144719696528557,-1.7548594636497803,-3.0711308680241967
1773064047832512256,2.500997304916382,1.0580902099609375,-0.14639778435230255,0.46556156873703003,-0.8580837845802307,-0.4863952696323395,0.16465777158737183,-0.05622297525405884,-0.12561959028244019,-0.04585276544094086,0.16895525213049584,0.739159047441624,0.18966494226575784,0.6237991431438842,0.5079593474781308,-1.7603818752567588,-3.061854167064584
1773064047842566912,2.511052131652832,1.4339056015014648,-0.24842673540115356,0.5058711767196655,-0.8600273728370667,-0.4801861643791199,0.172551691532135,-0.028766512870788574,-0.05982235074043274,-0.12381519377231598,0.16331474179767308,0.7414057992955954,0.1912937263183198,0.6221353557470856,0.5008669451739066,-1.7688025124277074,-3.0497537595439757
1773064047852623104,2.5211081504821777,1.574676752090454,-0.13285860419273376,0.6210624575614929,-0.8623785376548767,-0.4725942015647888,0.1815441995859146,-0.06355541944503784,-0.08996695280075073,-0.08030210435390472,0.1563420569514508,0.7438748287833692,0.1934485413701387,0.6203105612611464,0.49223212146931844,-1.7782823615668333,-3.0349069834418185
1773064047862678016,2.531163215637207,1.6351317167282104,-0.07803157716989517,0.6393288969993591,-0.8651853799819946,-0.4640946686267853,0.18992288410663605,-0.07538175582885742,-0.0632186233997345,-0.02680644392967224,0.14848847195990414,0.7460310116129278,0.19595705664293825,0.6188617373188676,0.4826122602596073,-1.7868858612850562,-3.0186890376759243
1773064047872733952,2.5412192344665527,1.785356044769287,-0.10065352916717529,0.7182554006576538,-0.8681437969207764,-0.454847514629364,0.19859492778778076,-0.06183356046676636,-0.11174178123474121,-0.046373263001441956,0.14035750329170493,0.7483187005100878,0.1982840997642999,0.6172538066254042,0.4722009899724164,-1.795684885432816,-3.002483685391183
1773064047882789120,2.551274299621582,1.7782890796661377,-0.13511769473552704,0.7966982126235962,-0.8713362812995911,-0.4445422291755676,0.20773845911026,0.011854469776153564,-0.20868656039237976,-0.07619249820709229,0.13171651301603682,0.7507867661398682,0.20047060533064298,0.6154522859816675,0.4606631364206276,-1.8048408153063382,-2.9859104772191816
1773064047892845056,2.5613303184509277,1.7243092060089111,-0.06946278363466263,0.792009174823761,-0.8746476173400879,-0.43374547362327576,0.21646396815776825,0.08367764949798584,-0.15615937113761902,-0.08044704794883728,0.12304873984930577,0.7531785408655564,0.20237112724360953,0.6136995347672367,0.4486454934237923,-1.8134084838291638,-2.9700452945779654
1773064047902899968,2.571385145187378,1.6390936374664307,-0.060544922947883606,0.6434937119483948,-0.8776466846466064,-0.423652321100235,0.22417697310447693,0.1031409502029419,-0.08737984299659729,-0.11683139204978943,0.11486615335241426,0.7552073012020484,0.20432919012529743,0.6121416424538385,0.4374735821814824,-1.8208786759855935,-2.9550540871554194
1773064047912955904,2.5814411640167236,1.580191969871521,-0.11332664638757706,0.5186255574226379,-0.8798570036888123,-0.4148920774459839,0.23176811635494232,0.1041000485420227,-0.07505246996879578,-0.19273611903190613,0.10744178296205627,0.7571019791418027,0.20659295246753334,0.6103870068456436,0.42782419040919367,-1.828361096591104,-2.9405851831086562
1773064047923011072,2.591496229171753,1.3102695941925049,-0.1259172558784485,0.4141649305820465,-0.8815048933029175,-0.40728381276130676,0.23889102041721344,0.18661969900131226,-0.13618841767311096,-0.15342654287815094,0.1009711072673669,0.7588699362586897,0.2087149580876161,0.6085715011553392,0.4194780668843046,-1.8354433695553423,-2.927681648142483
1773064047933067008,2.6015522480010986,1.0235084295272827,-0.0920967161655426,0.29191306233406067,-0.8826585412025452,-0.4013499617576599,0.24460572004318237,0.26139700412750244,-0.1869831085205078,-0.09123970568180084,0.09599529183973315,0.7602989978040516,0.21035278946201652,0.6070271817129036,0.4129902586544439,-1.8411359747901204,-2.9177462369569622
1773064047943122176,2.611607313156128,0.9129303693771362,0.058042291551828384,0.22143791615962982,-0.8836238384246826,-0.39668262004852295,0.24870069324970245,0.25171148777008057,-0.2036134898662567,-0.05698928236961365,0.09196503287342489,0.7612477255879508,0.21178348335900923,0.605963853492994,0.4079001294648123,-1.845154090243948,-2.90967780535349
1773064047953178112,2.6216633319854736,0.852272629737854,0.18640291690826416,0.100132517516613,-0.8845860362052917,-0.3930344879627228,0.2510605752468109,0.22772568464279175,-0.12608477473258972,-0.0595475435256958,0.08838045316058304,0.761575788964178,0.2133837095365482,0.6055233994893151,0.4039293362220794,-1.8473410432549495,-2.9022535374233165
1773064047963233024,2.631718158721924,1.0321000814437866,0.23059949278831482,-0.014322781935334206,-0.8852887153625488,-0.3903256952762604,0.25280311703681946,0.20625752210617065,-0.010568380355834961,-0.07830363512039185,0.0848739078760308,0.7615111758610423,0.2156438770103169,0.6053054808508387,0.4009853277766437,-1.8489534055046408,-2.893943668791356
1773064047973288960,2.6417741775512695,1.1247445344924927,0.2610362470149994,-0.15123562514781952,-0.8855961561203003,-0.38823044300079346,0.2549441158771515,0.18627065420150757,-0.0032032430171966553,-0.07666042447090149,0.0810529699959311,0.7612907482935187,0.2188800117595658,0.6049448787909254,0.39871063672959106,-1.8510957598218876,-2.8835214798008746
1773064047983344128,2.651829242706299,1.0306758880615234,0.269624263048172,-0.3007670044898987,-0.8854084014892578,-0.3874567449092865,0.2567666172981262,0.1463490128517151,0.0024775266647338867,-0.06282737851142883,0.07771370302183103,0.7608042315679274,0.22262125921607037,0.6046298236315018,0.39787122912238765,-1.8530518404112588,-2.8728643711947575
1773064047993400064,2.6618852615356445,0.9503059387207031,0.22405411303043365,-0.3791252076625824,-0.8846907019615173,-0.3879895806312561,0.2584303319454193,0.10751491785049438,0.010517716407775879,-0.06102743744850159,0.07510283511957826,0.7601886145982506,0.22655778635608312,0.604271739422782,0.39844928943200647,-1.855002412523499,-2.862742525279486
1773064048003455232,2.671940326690674,0.8410710096359253,0.16288365423679352,-0.3655380308628082,-0.8837199807167053,-0.38899028301239014,0.2602419853210449,0.10703223943710327,-0.041673868894577026,-0.003848522901535034,0.07298565660977681,0.7596597410747982,0.23029994428304718,0.6037816131946658,0.39953528971711455,-1.8571855213660864,-2.853480304211148
1773064048013511168,2.6819963455200195,0.7893289923667908,0.17434696853160858,-0.31527405977249146,-0.8828202486038208,-0.3899277150630951,0.2618873119354248,0.10289764404296875,0.0029342472553253174,0.06126335263252258,0.07117953021547138,0.75919860037197,0.23358326826138037,0.6033157301293468,0.40055309777439446,-1.8591755440052091,-2.8453913729990834
1773064048023566080,2.6920511722564697,0.9506559371948242,0.24019744992256165,-0.20948007702827454,-0.8823035955429077,-0.38997480273246765,0.2635524570941925,0.06914752721786499,0.08388352394104004,0.09589883685112,0.06882607354112637,0.7587507049196704,0.23679865254872795,0.6028985844996826,0.4006042350242097,-1.861068754365349,-2.836781183135414
1773064048033622016,2.7021071910858154,1.0484733581542969,0.28895673155784607,-0.1385670155286789,-0.8823651671409607,-0.3888297975063324,0.2650343179702759,0.0020245909690856934,0.1230064332485199,0.05767381191253662,0.06562388172765166,0.7582205010123353,0.24003923369344632,0.6026411544869331,0.39936108892177535,-1.862590774805299,-2.8271940601263923
1773064048043677184,2.7121622562408447,1.2459056377410889,0.2955394983291626,-0.10454066097736359,-0.882676899433136,-0.38685810565948486,0.26687562465667725,-0.06626731157302856,0.1531696915626526,-0.01692137122154236,0.06170134620793643,0.757713749826125,0.24353168168014744,0.6022916571973616,0.397221979996637,-1.8644058817137052,-2.8162688289066855
1773064048053733120,2.7222182750701904,1.4586280584335327,0.3090401291847229,-0.03534374386072159,-0.8831684589385986,-0.38393649458885193,0.2694564163684845,-0.08503246307373047,0.05777975916862488,-0.004990994930267334,0.056854276366887474,0.7572828962210398,0.24748904902232982,0.6016972446040528,0.39405577381448853,-1.8669272269992006,-2.803324782651168
1773064048063788288,2.7322733402252197,1.5725206136703491,0.12277093529701233,0.0063492837361991405,-0.8839889764785767,-0.3792828917503357,0.2733272612094879,-0.08091568946838379,-0.014973640441894531,0.023517221212387085,0.05083508197126114,0.7571883242250447,0.2516534646214153,0.6006264247531845,0.3890211679704317,-1.8706697572669084,-2.7884204251611844
1773064048073844224,2.7423293590545654,1.5263198614120483,0.21275782585144043,-0.01981201395392418,-0.8843575716018677,-0.37511980533599854,0.27784350514411926,-0.040355563163757324,0.0055061280727386475,0.08652114868164062,0.045174074403913654,0.7572464077202671,0.25592896954687144,0.5991974827020481,0.38452600821771743,-1.8752069373604416,-2.773608429836746
1773064048083899136,2.7523841857910156,1.340150237083435,0.19999034702777863,0.09415901452302933,-0.8852055072784424,-0.37081265449523926,0.28090783953666687,-0.12626910209655762,0.004754304885864258,0.15215182304382324,0.0397170616598402,0.7569965533659782,0.2596346201104645,0.5983048264978053,0.3798839013992553,-1.8780811188251678,-2.76033721484626
1773064048093955072,2.7624402046203613,1.134675145149231,0.3110119700431824,0.13352559506893158,-0.8863977789878845,-0.36630430817604065,0.28305521607398987,-0.15028434991836548,-0.01196107268333435,0.12494957447052002,0.03470644926665547,0.756724616201492,0.2624794466758078,0.5977189289632849,0.3750341615832739,-1.8798932326229507,-2.7492718225640704
1773064048104009984,2.7724952697753906,1.0093013048171997,0.4178849756717682,0.2183297723531723,-0.8881392478942871,-0.36170095205307007,0.28351524472236633,-0.13889920711517334,-0.030571937561035156,0.15093296766281128,0.030130026565985592,0.7561992988976737,0.26442437052062845,0.5977745856113831,0.370091723699526,-1.8797950928554197,-2.7406133605859666
1773064048114066176,2.7825512886047363,1.2342417240142822,0.2789806127548218,0.18341971933841705,-0.8898855447769165,-0.35669973492622375,0.2843741178512573,-0.16442030668258667,0.025172114372253418,0.0895577073097229,0.02527975694152471,0.7557703417214527,0.26645495961213245,0.5976401481595957,0.36473286454269677,-1.8801024146820888,-2.731414329262296
1773064048124121088,2.7926063537597656,1.4939815998077393,0.28575804829597473,0.24952484667301178,-0.8913862705230713,-0.35092562437057495,0.28684818744659424,-0.1517503261566162,0.05179232358932495,0.005571246147155762,0.01958042086692124,0.7556135625926165,0.2692066810829692,0.5968187233023414,0.358559424902172,-1.8821312999734467,-2.7196828655687315
1773064048134177024,2.8026621341705322,1.6779932975769043,0.3385150134563446,0.27143946290016174,-0.8932227492332458,-0.3438854515552521,0.2896481454372406,-0.11329275369644165,0.12614253163337708,0.015588641166687012,0.012808329844217115,0.7554176589115279,0.2723384586104288,0.5958287652069091,0.3510515894528185,-1.8843706737456112,-2.706021717294881
1773064048144231936,2.8127171993255615,1.7194722890853882,0.3130440413951874,0.19663088023662567,-0.8949674367904663,-0.3368128836154938,0.29255881905555725,-0.12909579277038574,0.1813410520553589,-0.040056318044662476,0.0056784958958167415,0.7550661377386401,0.27596112521165794,0.5947171134254362,0.3435299533857147,-1.8867396734004307,-2.691082679864797
1773064048154288128,2.8227732181549072,1.6075713634490967,0.34195879101753235,0.23206716775894165,-0.8966166377067566,-0.32996565103530884,0.2952994108200073,-0.13480144739151,0.10112950205802917,-0.04177457094192505,-0.001257058202625128,0.7546573280982543,0.279538957311382,0.5935898201064265,0.33626720007156546,-1.8889563425831302,-2.676478285021985
1773064048164343040,2.8328282833099365,1.4030619859695435,0.44455382227897644,0.2844948172569275,-0.898626983165741,-0.3231344521045685,0.2967383563518524,-0.08731967210769653,0.013793021440505981,0.018553972244262695,-0.007814680532470602,0.7540587012834015,0.28242635618157413,0.5929331918982691,0.3290397753711336,-1.8897359802117002,-2.663744005053161
1773064048174399232,2.8428843021392822,1.2465794086456299,0.4608518183231354,0.246563121676445,-0.9009014368057251,-0.31673261523246765,0.296744704246521,-0.05242210626602173,-0.012185931205749512,0.01720494031906128,-0.013784663792747474,0.7532226399774049,0.2846541871737972,0.5928218905918037,0.32228276983508003,-1.888990458574364,-2.6530691084505436
1773064048184453888,2.8529391288757324,1.3282010555267334,0.3832094967365265,0.19148816168308258,-0.9028518199920654,-0.3109833896160126,0.2968965768814087,-0.026820242404937744,0.007150471210479736,-0.06014126539230347,-0.019373428059920445,0.7523879061127969,0.28698559977939775,0.592601265527344,0.31622755598565055,-1.8885002355995995,-2.6426029138660376
1773064048194510080,2.862995147705078,1.5328526496887207,0.34009450674057007,0.19130972027778625,-0.9044864773750305,-0.3050622344017029,0.29806244373321533,0.027228176593780518,0.03748410940170288,-0.09174835681915283,-0.025297917385736206,0.7516840494190749,0.2898315308251099,0.5918857797740337,0.3100037852756022,-1.889126992648299,-2.63067388943966
1773064048204564992,2.8730502128601074,1.901339054107666,0.33519649505615234,0.2695038914680481,-0.9062098264694214,-0.29777243733406067,0.3001916706562042,0.07729154825210571,0.09199249744415283,-0.07404118776321411,-0.03251109191607415,0.7510006180387284,0.2934176223094037,0.5906327915126922,0.302358389674786,-1.8906803066659152,-2.615815853852856
1773064048214621184,2.883106231689453,2.0390684604644775,0.2643018066883087,0.24900206923484802,-0.9079030752182007,-0.289328932762146,0.303316205739975,0.10033172369003296,0.10994663834571838,-0.08380332589149475,-0.04077355893977467,0.7503715885279693,0.29765849377062326,0.5887948619774181,0.29352572283991535,-1.8932226384281043,-2.5984506269682717
1773064048224676096,2.8931612968444824,1.9601911306381226,0.35141047835350037,0.22822453081607819,-0.9094758033752441,-0.28103935718536377,0.3063828945159912,0.08841574192047119,0.13289183378219604,-0.0494401752948761,-0.048979193803580824,0.7496553220569329,0.30200720179517226,0.5868641449745449,0.2848769574032228,-1.8957341909414378,-2.5809609474774766
1773064048234732032,2.903217315673828,1.9523780345916748,0.5144076347351074,0.2170563042163849,-0.9114595055580139,-0.2729508876800537,0.307797908782959,0.056356847286224365,0.07724162936210632,0.0592370331287384,-0.057171458252273474,0.7484400776878175,0.30616401536755306,0.585519017615606,0.27645906226417327,-1.89646978966985,-2.5640432971227543
1773064048244786944,2.9132721424102783,2.034459352493286,0.5247132182121277,0.18647903203964233,-0.913648784160614,-0.26494714617729187,0.30829986929893494,0.01884293556213379,-0.024435758590698242,0.029865354299545288,-0.06557466575868047,0.7468314341152257,0.31047180130940555,0.5844227769173234,0.2681491040903298,-1.896236567175861,-2.546706489287038
1773064048254842880,2.923328161239624,2.1619412899017334,0.4601057171821594,0.15740717947483063,-0.9156264662742615,-0.256855845451355,0.309279203414917,0.040717899799346924,-0.0679885745048523,-0.0059649646282196045,-0.07419767942669983,0.7452003811494808,0.3151443999442476,0.5829710633157573,0.25976749442576624,-1.8965424384295713,-2.5283650070444397
1773064048264898048,2.9333832263946533,2.376377820968628,0.4434150159358978,0.08642119914293289,-0.9173438549041748,-0.24862998723983765,0.3109068274497986,0.08026206493377686,-0.022427096962928772,-0.003640681505203247,-0.0837699690164754,0.7431854512942017,0.3211367339413842,0.5809725149558792,0.25126557018287954,-1.8975670611855442,-2.506446908090333
1773064048274953984,2.943439245223999,2.6062564849853516,0.43422335386276245,0.03949017450213432,-0.9188631176948547,-0.24028977751731873,0.3129713535308838,0.07178688049316406,0.012949138879776001,-0.023695290088653564,-0.09335241551621996,0.7412207300263143,0.3272269882456937,0.578618634081044,0.24266436111267725,-1.8990789681484816,-2.484233727958751
1773064048285009152,2.9534943103790283,2.8032610416412354,0.47357600927352905,0.06513134390115738,-0.9203965663909912,-0.23125755786895752,0.31526249647140503,0.03857576847076416,0.015360906720161438,-0.031479448080062866,-0.10374603402723281,0.7389985910489427,0.33393461622031273,0.5758521132389093,0.2333700867560327,-1.9007999953601877,-2.459884984527788
1773064048295065088,2.963550329208374,2.871338129043579,0.5129668712615967,0.08439558744430542,-0.92216557264328,-0.22150477766990662,0.31709086894989014,0.0012059807777404785,0.021126314997673035,-0.05288490653038025,-0.11474079216322487,0.7364860704694411,0.34078395498754355,0.5729653147305271,0.22335731457533728,-1.9019859393911258,-2.4345524946403456
1773064048305120000,2.973605155944824,2.929325819015503,0.5221693515777588,0.037549592554569244,-0.9239495992660522,-0.21160271763801575,0.31865614652633667,-0.032929182052612305,0.042382702231407166,-0.07193681597709656,-0.12593184298824514,0.7337458704204266,0.3477715891009693,0.5699238573105138,0.21321451407242706,-1.9029069196605668,-2.408669643621023
1773064048315175936,2.98366117477417,3.0518908500671387,0.5754938125610352,-0.06580609083175659,-0.9256820678710938,-0.20214760303497314,0.31976404786109924,-0.06732934713363647,0.04446329176425934,-0.05265894532203674,-0.1372125113663648,0.730573945009709,0.35516720027472864,0.5668251110327142,0.20355030225995033,-1.9033995879450878,-2.3818686098777087
1773064048325231104,2.993716239929199,3.240589141845703,0.5713456273078918,-0.20692911744117737,-0.9272972941398621,-0.19326353073120117,0.32057610154151917,-0.11812812089920044,0.05353879928588867,-0.08421742916107178,-0.14876868224167836,0.7268210388352754,0.36334450969259985,0.5635422336498045,0.19448731063000743,-1.9036443840496111,-2.3532033200825357
1773064048335287040,3.003772258758545,3.540754795074463,0.4900236129760742,-0.3671901822090149,-0.9284840226173401,-0.18494199216365814,0.32204684615135193,-0.12704282999038696,0.06442804634571075,-0.10415133833885193,-0.16062720759763824,0.7226048222121976,0.37264686639526956,0.5596209408819471,0.18601283413988384,-1.9046642213430989,-2.3218905416400184
1773064048345342208,3.013827323913574,4.0075273513793945,0.8513247966766357,-0.37658247351646423,-0.9298898577690125,-0.17641055583953857,0.3227759003639221,-0.11935025453567505,0.05014406144618988,-0.050345420837402344,-0.1737700563833512,0.7172831540182634,0.3832659991680564,0.5553521873225159,0.1773386130242096,-1.9048959797369651,-2.286451954995847
1773064048355398144,3.02388334274292,4.162799835205078,0.6589639186859131,-0.26464927196502686,-0.9318239688873291,-0.16601215302944183,0.32271379232406616,-0.1578366756439209,0.031872138381004333,-0.05922496318817139,-0.18834143142982465,0.7113742227153517,0.39408578299825947,0.550609356366254,0.16678432537382587,-1.9041933094605452,-2.248685586798393
1773064048365453056,3.03393816947937,4.449112892150879,0.5877429246902466,-0.3975277245044708,-0.9332716464996338,-0.1550307422876358,0.32399019598960876,-0.10211348533630371,0.1823897361755371,-0.04202306270599365,-0.2032819214477457,0.7053503603310937,0.4055563650586685,0.5446846974936892,0.1556585684146531,-1.9049346408230405,-2.208811304285911
1773064048375508992,3.043994188308716,4.643929958343506,0.6588876247406006,-0.5098087191581726,-0.9346129298210144,-0.14446333050727844,0.3250061869621277,-0.10228276252746582,0.17969587445259094,-0.1012360155582428,-0.2186862437934132,0.6984192735040786,0.41798757168101947,0.5382130101022079,0.1449705849157623,-1.9054600683270229,-2.166157997265539
1773064048385564160,3.054049253463745,4.664734840393066,0.6782577633857727,-0.5421879887580872,-0.9360746145248413,-0.1341981738805771,0.32520008087158203,-0.14620071649551392,0.10291768610477448,-0.13301566243171692,-0.2342619986975388,0.6907405880808187,0.43067095743078904,0.5315272712189739,0.13460427505273895,-1.9051604019808435,-2.122369463642817
1773064048395620096,3.064105272293091,4.613245487213135,0.5120317935943604,-0.5182874798774719,-0.9373576641082764,-0.12401413917541504,0.3255479633808136,-0.11253875494003296,0.07629986852407455,-0.08410808444023132,-0.24949781736778323,0.682913636282464,0.44317371741896133,0.5243824756021866,0.12433423842051963,-1.9050672533270352,-2.0788196114082043
1773064048405675264,3.07416033744812,4.486417293548584,0.39357393980026245,-0.513217568397522,-0.9381985068321228,-0.11394190788269043,0.3268040418624878,-0.0462070107460022,0.03410793095827103,-0.03485763072967529,-0.26394906661628326,0.6753559244529442,0.45529813746638037,0.5166516203458666,0.11418990747235419,-1.9059839077860896,-2.0364345111049893
1773064048415731200,3.084216356277466,4.559518814086914,0.3384217619895935,-0.4450038969516754,-0.9388708472251892,-0.10367124527692795,0.3282899856567383,-0.030581295490264893,0.0042296722531318665,-0.016537576913833618,-0.278028249727877,0.6678128287290966,0.4670878128430048,0.5084835199712023,0.1038578555809686,-1.9071724107068542,-1.9946486362364548
1773064048425786112,3.094271183013916,4.74431037902832,0.29642289876937866,-0.37513041496276855,-0.9394547939300537,-0.09214086085557938,0.3300524055957794,-0.027372539043426514,-0.00853661447763443,-0.03661063313484192,-0.2925484367408487,0.6600480337101818,0.4789183573320205,0.49938877409894233,0.09227174086415499,-1.9086495860508885,-1.9516211228907947
1773064048435842048,3.1043272018432617,4.789546966552734,0.6927124261856079,-0.11050436645746231,-0.9408572316169739,-0.0786363035440445,0.3295510709285736,-0.04656946659088135,0.042640842497348785,-0.07146397233009338,-0.30820968735743004,0.6516671980386552,0.4900055057764693,0.4901338679576,0.07871757080636263,-1.9077088281182832,-1.9079762836312502
1773064048445897216,3.114382266998291,4.697000980377197,0.6916210055351257,-0.10609197616577148,-0.9431578516960144,-0.06388232111930847,0.32614830136299133,-0.058871686458587646,0.15960067510604858,-0.10530778765678406,-0.3245703863160345,0.6427811135257268,0.4999065812444709,0.4812276621938106,0.06392585224041161,-1.903728695978623,-1.8651148162586806
1773064048455953152,3.1244382858276367,4.546959400177002,0.5176761150360107,-0.07790827751159668,-0.9450867772102356,-0.04970638453960419,0.3230173587799072,-0.04279768466949463,0.18024533987045288,-0.10120037198066711,-0.34014281557809667,0.633965865762667,0.5095056102190838,0.47201075324173425,0.049726875854972014,-1.9001348453450329,-1.823189927221196
1773064048466008064,3.134493350982666,4.1381330490112305,0.35705336928367615,-0.10109174996614456,-0.9464395642280579,-0.03633863106369972,0.3208293914794922,0.005506455898284912,0.07535538077354431,-0.06320005655288696,-0.35429636888729843,0.6257784330313546,0.518474736779477,0.4626654410461754,0.036346634685187874,-1.897625288536463,-1.7838603162840199
1773064048476064000,3.1445491313934326,3.6090428829193115,0.31376901268959045,-0.15753692388534546,-0.947483479976654,-0.025160308927297592,0.3188137412071228,0.0411112904548645,-0.0362868458032608,-0.01194426417350769,-0.3663440262498571,0.6183638385726907,0.5263392821539187,0.45429642258181274,0.025162964615269175,-1.8953804861502246,-1.7493174095151365
1773064048486118912,3.154604196548462,3.1562612056732178,0.13223759829998016,-0.07386169582605362,-0.9481691718101501,-0.015515410341322422,0.3173869252204895,0.019626140594482422,-0.12718476355075836,-0.00029399991035461426,-0.37652258429162094,0.6119153674196474,0.5331538668881455,0.4466959267800163,0.01551603292098115,-1.8938092971655773,-1.7193148752207414
1773064048496175104,3.1646602153778076,2.5958526134490967,0.05189189687371254,-0.07041316479444504,-0.9484462141990662,-0.006906944327056408,0.31686291098594666,0.05739396810531616,-0.1290794014930725,0.07539474964141846,-0.38489682631980743,0.6067113593431102,0.5388253782258874,0.4397987890487681,0.006906999216455244,-1.8932244382653365,-1.6941551872274856
1773064048506231040,3.1747162342071533,2.1888067722320557,0.06283572316169739,-0.1952132284641266,-0.948603630065918,-0.0005653669941239059,0.3164663314819336,0.06945323944091797,-0.05192486569285393,0.0764932632446289,-0.3914861279810127,0.6022174853420788,0.5436609880343433,0.4341721775597436,0.0005653670103586417,-1.8927984066184385,-1.673318602180817
1773064048516286208,3.1847712993621826,1.9730385541915894,0.14381180703639984,-0.29538512229919434,-0.9489245414733887,0.0036331790033727884,0.3154820501804352,0.05330997705459595,-0.001466414425522089,-0.02916613221168518,-0.3970114883339062,0.5977840575185349,0.5480832516167304,0.4296984959635717,-0.003633186983399045,-1.891763157543759,-1.654869045115633
1773064048526342144,3.1948273181915283,1.90944242477417,0.14136740565299988,-0.34450629353523254,-0.949442446231842,0.006736022885888815,0.31386885046958923,0.08298736810684204,0.0002677803859114647,-0.04532948136329651,-0.4021451494096284,0.5932177276708035,0.5522926391999092,0.42584601658171944,-0.006736073612949334,-1.890068914106156,-1.6373511651164052
1773064048536397056,3.2048821449279785,1.8338168859481812,0.06098628416657448,-0.40530332922935486,-0.9497567415237427,0.009105059318244457,0.3128562867641449,0.10916543006896973,0.015232712030410767,-0.030599266290664673,-0.4067892090993778,0.5886874661804095,0.5566643563488486,0.42201225295429984,-0.009105185033679247,-1.8890087948259817,-1.6201129105162142
1773064048546452992,3.214938163757324,1.6248273849487305,0.17749281227588654,-0.4894120693206787,-0.9501436352729797,0.010271970182657242,0.3116430342197418,0.08454316854476929,0.033261366188526154,0.06244143843650818,-0.4108941202178269,0.5841232836419871,0.5609113199156286,0.4187414826916146,-0.01027215058861537,-1.8877353576341331,-1.6038929966991977
1773064048556508160,3.2249932289123535,1.4809868335723877,0.1852436661720276,-0.47866302728652954,-0.950793981552124,0.010408319532871246,0.30964896082878113,0.028491735458374023,0.02296263538300991,0.13030767440795898,-0.4145950598108977,0.5795729909011322,0.5647296893997135,0.41627692576944236,-0.010408507603565039,-1.885637773110008,-1.5891810193582558
1773064048566564096,3.235049247741699,1.3034077882766724,0.21210777759552002,-0.44399717450141907,-0.9514527320861816,0.010387318208813667,0.3076198697090149,0.02161252498626709,0.012394053861498833,0.20209994912147522,-0.41795783176518464,0.5753543182003233,0.5681349686308735,0.41412727102561936,-0.010387505198245647,-1.8835043255554815,-1.5758645976748322
1773064048576619264,3.2451043128967285,1.018534541130066,0.25531384348869324,-0.42065832018852234,-0.95223069190979,0.009833404794335365,0.30522164702415466,0.04231846332550049,0.05374995619058609,0.25338736176490784,-0.420823279862146,0.5715429240510883,0.5709198822763762,0.4126706265581241,-0.009833563177192469,-1.8809829599267283,-1.564712715881502
1773064048586675200,3.255160331726074,0.6736092567443848,0.2854696214199066,-0.3541724979877472,-0.9531042575836182,0.008731639012694359,0.3025161921977997,0.019617319107055664,0.06525823473930359,0.23306727409362793,-0.4229857927789307,0.568423091851047,0.5728466482668519,0.4120981999113222,-0.008731750084973514,-1.8781398593848657,-1.5566547918306246
1773064048596730112,3.2652151584625244,0.28177574276924133,0.21847006678581238,-0.2812700569629669,-0.9539199471473694,0.0071089062839746475,0.2999767065048218,0.024400413036346436,0.006273054983466864,0.19910773634910583,-0.42416656207257714,0.5663179946819681,0.5738225218943377,0.41242491306752754,-0.007108966149208893,-1.8754725431442278,-1.5524155863279887
1773064048606786048,3.27527117729187,-0.09006599336862564,0.16224168241024017,-0.21447986364364624,-0.95448237657547,0.0050603779964149,0.298224538564682,0.056792497634887695,-0.015436369925737381,0.221154123544693,-0.424177078349619,0.5654245355538966,0.5739402142316763,0.4134750145132946,-0.005060399815933183,-1.873632324263188,-1.5521279905601844
1773064048616840960,3.2853262424468994,-0.16677407920360565,0.1508510708808899,-0.23905684053897858,-0.9549590945243835,0.0024629109539091587,0.29672664403915405,0.08462846279144287,0.03609606996178627,0.2915911078453064,-0.42345408946322416,0.5651629518663824,0.5735452613513358,0.41511825435640154,-0.0024629134787300055,-1.8720604275568316,-1.554260175281609
1773064048626897152,3.295382261276245,0.15308916568756104,0.09627445042133331,-0.24462203681468964,-0.9553276300430298,-6.389526970451698e-05,0.2955484688282013,0.060460805892944336,0.08775615692138672,0.21519359946250916,-0.42294001973098894,0.5645865349728741,0.5735994123221833,0.41635012649200803,6.389526965228734e-05,-1.8708259537160554,-1.5550064361547504
1773064048636952064,3.3054373264312744,0.5686538815498352,0.12959592044353485,-0.2557029128074646,-0.9556083083152771,-0.0011355556780472398,0.29463768005371094,0.037975311279296875,0.10701630264520645,0.11953160166740417,-0.4236125122505366,0.5631941862258678,0.5745704035508142,0.416213366517584,0.0011355559464770334,-1.8698728844418393,-1.5516376575320965
1773064048647007488,3.315492630004883,0.37511032819747925,0.34858542680740356,-0.32899340987205505,-0.9563440084457397,-0.002628257730975747,0.2922310531139374,-0.006195545196533203,0.08287426084280014,0.17267364263534546,-0.4248737401005436,0.5610298144888659,0.5756397074085123,0.4163732301981328,0.0026282606542787955,-1.8673563223712264,-1.547036245738772
1773064048657062656,3.325547695159912,0.20881937444210052,0.31898733973503113,-0.24505804479122162,-0.9573183059692383,-0.00455393735319376,0.28900033235549927,-0.11270439624786377,0.09598459303379059,0.1808789074420929,-0.42584424719748165,0.5591696259126213,0.5760464387567443,0.41732075889751113,0.004553952899763665,-1.8639818701688262,-1.5444475804101423
1773064048667118592,3.335603713989258,-0.07388518750667572,0.24361398816108704,-0.21636183559894562,-0.9581412076950073,-0.006465281825512648,0.286223441362381,-0.04915261268615723,0.06609661877155304,0.053086310625076294,-0.42644987413682633,0.5577306531234552,0.5762362665191365,0.41836451757829507,0.006465326695464002,-1.8610855765919754,-1.5429768614199566
1773064048677173504,3.345658779144287,-0.47664329409599304,0.14704963564872742,-0.27145466208457947,-0.9586793780326843,-0.009567593224346638,0.28432783484458923,0.07597368955612183,-0.020919475704431534,0.09431898593902588,-0.4255142414436686,0.5575185101016911,0.5756188183202972,0.4204446669170744,0.009567738820030676,-1.8591151458014146,-1.5459938629536059
1773064048687229696,3.355714797973633,-0.6620088219642639,0.07347778975963593,-0.266166627407074,-0.958941638469696,-0.013890177011489868,0.2832634449005127,0.111544668674469,0.05026713013648987,0.1430824100971222,-0.42337739567290444,0.5580401823246748,0.5746502200620764,0.4232256057359247,0.013890623490852764,-1.8580200243698142,-1.5518508837149896
1773064048697284352,3.365769624710083,-0.6482203006744385,0.09809365123510361,-0.2864527106285095,-0.9591121077537537,-0.018353326246142387,0.28243109583854675,0.08383744955062866,0.07876285165548325,0.11156606674194336,-0.42096313011480063,0.5587847198052865,0.5735635888295362,0.42611566063723166,0.018354356249893303,-1.8571733519911966,-1.5584237666656087
1773064048707340544,3.3758256435394287,-0.5992446541786194,0.20965635776519775,-0.28056415915489197,-0.9594863057136536,-0.023027412593364716,0.2808130383491516,0.015196025371551514,0.07148930430412292,0.0930425226688385,-0.4187336889248526,0.5592664688426148,0.5723875715671425,0.42925009159464483,0.0230294474429548,-1.8555150308329402,-1.5648639679053855
1773064048717395456,3.385880708694458,-0.3247654139995575,0.22198998928070068,-0.1462779939174652,-0.9600642919540405,-0.026378758251667023,0.2785327732563019,-0.06517362594604492,0.11069882661104202,0.02035626769065857,-0.4174438522436361,0.5593735557180061,0.5712859340599543,0.4318265450577613,0.026381818592131803,-1.8531634093654694,-1.569541769521201
1773064048727451648,3.3959367275238037,-0.2853858768939972,0.22930052876472473,-0.10402835160493851,-0.960659384727478,-0.028293896466493607,0.2762839198112488,-0.03694486618041992,0.04369004815816879,0.015128463506698608,-0.4168709018460082,0.5593658049680827,0.570308559283255,0.43367800052672384,0.02829767263680919,-1.8508368557286667,-1.5727305263464864
