time,seconds_elapsed,rotationRateX,rotationRateY,rotationRateZ,gravityX,gravityY,gravityZ,accelerationX,accelerationY,accelerationZ,quaternionW,quaternionX,quaternionY,quaternionZ,pitch,roll,yaw
1773065132328002048,0.038951873779296875,-0.02175040915608406,-0.007268381770700216,-0.024072730913758278,-0.02833632007241249,0.19602026045322418,-0.9801903367042542,-0.04386827349662781,-0.030492916703224182,0.08079153299331665,-0.9615091424705704,0.09884537272951774,-0.011593968023218682,0.25611584435790985,-0.19729778386557986,-0.028900947628029305,-0.5235087069744847
1773065132338039040,0.04898881912231445,0.08728344738483429,-0.05154702812433243,0.5375734567642212,-0.028031980618834496,0.1961233913898468,-0.9801784753799438,-0.0008529089391231537,-0.011095315217971802,0.029983162879943848,-0.9618653954191331,0.09887280813992803,-0.011616135307785316,0.2547631599156804,-0.19740296050219772,-0.02859106092256159,-0.5206680157602553
1773065132348076800,0.05902671813964844,0.30263224244117737,-0.035167790949344635,0.4470363259315491,-0.02732853963971138,0.19421298801898956,-0.9805786609649658,0.09114079177379608,0.024125024676322937,-0.0013854503631591797,-0.9626362458859729,0.0978752196356026,-0.011450813581001487,0.25223174790428265,-0.19545509568192193,-0.02786259625083145,-0.5152537958292424
1773065132358115072,0.06906485557556152,0.2874908149242401,-0.055332448333501816,0.011339986696839333,-0.02735837548971176,0.19123737514019012,-0.9811624884605408,0.20248349010944366,0.06501871347427368,-0.01808983087539673,-0.9630859770860417,0.09643200497526479,-0.01093778280904872,0.25109104684932,-0.19242264099180464,-0.027876411454377786,-0.5127660492040635
1773065132368152832,0.07910275459289551,0.21331168711185455,-0.04544892534613609,-0.29687055945396423,-0.028158975765109062,0.18873360753059387,-0.9816245436668396,-0.007821248844265938,0.00041434168815612793,-0.0391121506690979,-0.9630036992269314,0.09529727728881467,-0.010303804033908065,0.25186542411649554,-0.18987241563888835,-0.0286782316393724,-0.5143538266496335
1773065132378191104,0.0891408920288086,0.19770556688308716,-0.04510883614420891,-0.23655423521995544,-0.029136328026652336,0.1866569072008133,-0.9819930195808411,-0.15808901190757751,0.0022621601819992065,0.019575417041778564,-0.9627430955890902,0.09439017226934857,-0.009694858568402734,0.2532236348180836,-0.18775814176008185,-0.029661904852748798,-0.5171882481425046
1773065132388228864,0.09917879104614258,0.1693575382232666,-0.04631391540169716,-0.10101398825645447,-0.029903016984462738,0.18474653363227844,-0.9823311567306519,-0.14154474437236786,0.031073778867721558,0.033387064933776855,-0.9626334115385478,0.09354529552326972,-0.009148355493131389,0.2539734438774296,-0.18581394914471114,-0.030431473546630085,-0.51874368724191
1773065132398266880,0.10921669006347656,0.010224921628832817,-0.009371214546263218,-0.10309697687625885,-0.030380815267562866,0.18375270068645477,-0.9825028777122498,-0.021926315501332283,0.04511384665966034,0.01564502716064453,-0.9625560276056938,0.09311573812327477,-0.008832254662220082,0.2544354790878505,-0.18480281318430267,-0.03091200797825932,-0.5197098230286763
1773065132408303872,0.11925387382507324,-0.16234524548053741,0.031007099896669388,-0.10241574048995972,-0.03046596609055996,0.18451090157032013,-0.9823581576347351,0.03907192125916481,0.016508370637893677,0.022809207439422607,-0.9623789596758202,0.09349323771839786,-0.00894064193807599,0.2549624877099748,-0.18557420117699752,-0.03100315645520234,-0.5208447706772773
1773065132418341888,0.12929177284240723,-0.25140127539634705,0.04674558341503143,0.0033895194064825773,-0.030158458277583122,0.1866043508052826,-0.9819721579551697,0.012504037469625473,-0.023579448461532593,0.05414623022079468,-0.9622080052439663,0.09447635779677714,-0.00938870542378919,0.25522911068691706,-0.1877046514325407,-0.030702481759285017,-0.5214555503037677
1773065132428379904,0.1393299102783203,-0.2745526432991028,0.04178145155310631,0.11127923429012299,-0.029610589146614075,0.18921612203121185,-0.9814888834953308,0.010689688846468925,-0.029380321502685547,0.055661916732788086,-0.962156776578999,0.09568801464446218,-0.009967458930997923,0.2549488855071667,-0.19036379280516394,-0.030159903163757974,-0.5209271138389012
1773065132438417920,0.1493678092956543,-0.27560555934906006,0.0461004339158535,0.15397676825523376,-0.028919808566570282,0.1919693946838379,-0.9809747338294983,0.02609693631529808,-0.02529764175415039,0.02902466058731079,-0.9621963571798952,0.09695550238867376,-0.010595866505464608,0.25429406575670027,-0.19316847165874174,-0.029472151732915796,-0.5196106661120592
1773065132448455936,0.15940570831298828,-0.270048588514328,0.04701549559831619,0.14608582854270935,-0.028145035728812218,0.19468697905540466,-0.9804615378379822,0.018150530755519867,-0.023391813039779663,0.019051015377044678,-0.9622548145211175,0.09819688365679878,-0.011251710997778951,0.2535674265932477,-0.1959383167050501,-0.028698024201278427,-0.5181338289564311
1773065132458493952,0.16944384574890137,-0.2698169946670532,0.03967955335974693,0.101388119161129,-0.027473310008645058,0.1973605751991272,-0.9799458980560303,0.004203660413622856,-0.01674230396747589,0.011089146137237549,-0.9622796508624148,0.09942990789618926,-0.01186299743576527,0.2529638885664857,-0.1986648049316698,-0.02802819520288269,-0.5169206686412853
1773065132468531968,0.17948174476623535,-0.2551778554916382,0.0354914627969265,0.028788752853870392,-0.026966096833348274,0.19999626278877258,-0.9794254899024963,-0.0006217975169420242,-0.007720276713371277,0.009042859077453613,-0.9622291608009387,0.10066303363287518,-0.012417670628094986,0.2526418296943499,-0.20135410245425758,-0.027525611113273934,-0.5163076851330668
1773065132478568704,0.18951869010925293,-0.2019241750240326,0.032799407839775085,-0.047993242740631104,-0.02665257453918457,0.2022479772567749,-0.9789716005325317,-0.004917861893773079,-0.005073904991149902,0.012922406196594238,-0.9620976995860315,0.10172820320327736,-0.012867446644412067,0.25269323249623615,-0.20365278910416007,-0.027218351600494954,-0.5164753116128067
1773065132488606976,0.19955682754516602,-0.14065416157245636,0.018497169017791748,-0.09193939715623856,-0.026538928970694542,0.20390813052654266,-0.9786302447319031,-0.013347547501325607,-0.004552051424980164,0.007438838481903076,-0.961918218310616,0.10252462246474034,-0.013174927734621804,0.2530384071304223,-0.20534827478363088,-0.027111797948760844,-0.5172505870224396
1773065132498644736,0.2095947265625,-0.08346903324127197,0.01914524845778942,-0.13691605627536774,-0.026601344347000122,0.20498763024806976,-0.9784030318260193,-0.016413182020187378,0.003844156861305237,-0.005254805088043213,-0.9617117992296547,0.10305537282134607,-0.013344919805667292,0.2535980221007911,-0.20645106535648644,-0.02718183792109851,-0.518466883545175
1773065132508683008,0.21963286399841309,-0.047793593257665634,0.01495290081948042,-0.16037558019161224,-0.02674882672727108,0.2055492103099823,-0.9782811403274536,-0.00852949544787407,0.0022144466638565063,-0.005788624286651611,-0.9614878711604644,0.10334019903128037,-0.013424711580218683,0.25432611204976774,-0.20702486274888893,-0.027335867658735052,-0.5200213855569931
1773065132518720768,0.22967076301574707,-0.04611464962363243,0.015100173652172089,-0.18396373093128204,-0.026953866705298424,0.20593410730361938,-0.9781945943832397,-0.008278677240014076,-0.008866831660270691,-0.003693222999572754,-0.9612449845223581,0.1035442168030863,-0.013464984121260426,0.2551574814990146,-0.20741817277517427,-0.027547737709933313,-0.521789996787913
1773065132528759040,0.23970890045166016,-0.08751242607831955,0.022462481632828712,-0.1814209520816803,-0.02713475003838539,0.20650456845760345,-0.9780693054199219,0.0006302352994680405,-0.015418753027915955,0.000118255615234375,-0.9609737650230417,0.10383531994036317,-0.013548911360201725,0.2560547176082855,-0.2080011647394425,-0.027736062902867648,-0.523701694515695
1773065132538796800,0.24974679946899414,-0.12696005403995514,0.030121466144919395,-0.1503213346004486,-0.0272224023938179,0.20752431452274323,-0.9778510332107544,-9.08244401216507e-05,-0.02371695637702942,0.008246541023254395,-0.9606990901035862,0.10433601391682958,-0.013729257441883547,0.2568709026137676,-0.20904350277322215,-0.027831819357554112,-0.5254547091859975
1773065132548834816,0.2597846984863281,-0.14332729578018188,0.03652983158826828,-0.11914505064487457,-0.0271771140396595,0.20881490409374237,-0.9775775074958801,0.007966304197907448,-0.02932576835155487,0.018043816089630127,-0.9604522702673502,0.10495447478526952,-0.013993439796715945,0.25752678163284215,-0.21036298657201236,-0.027793311986685828,-0.5268718282729469
1773065132558872064,0.2698218822479248,-0.14564098417758942,0.04245004057884216,-0.08057103306055069,-0.027012910693883896,0.21022261679172516,-0.9772802591323853,0.018284885212779045,-0.03570786118507385,0.02310246229171753,-0.9602432556448436,0.1056171241661197,-0.014313674252779698,0.25801748376203043,-0.21180266138519832,-0.027633868245967093,-0.5279374061388691
1773065132568909824,0.2798597812652588,-0.0995728150010109,0.03679082170128822,-0.03267380967736244,-0.026751484721899033,0.21144074201583862,-0.9770246744155884,0.01950356364250183,-0.03469818830490112,0.01794874668121338,-0.9601026100402363,0.10617700108423775,-0.014632827696041259,0.25829283156407234,-0.21304879354332268,-0.027373723120703828,-0.5285352733890187
1773065132578947840,0.2898976802825928,-0.04286901280283928,0.029836641624569893,-0.011495953425765038,-0.02646854892373085,0.2121347039937973,-0.9768819212913513,0.021646765992045403,-0.025916457176208496,0.011031091213226318,-0.9600370463207845,0.10647909106442147,-0.014874218108230702,0.25839884825011944,-0.21375886614937134,-0.027088303356822926,-0.5287548151958855
1773065132588985856,0.29993581771850586,-0.0032939051743596792,0.033700890839099884,-0.009152904152870178,-0.026173969730734825,0.2123594880104065,-0.9768410325050354,0.021687885746359825,-0.013934195041656494,0.0005684494972229004,-0.9600047371272565,0.10654955277050714,-0.015056015434029063,0.25847908499314465,-0.2139888819903374,-0.026788093366384068,-0.5288984168605015
1773065132599023872,0.30997371673583984,0.029078060761094093,0.03415096178650856,-0.0013578315265476704,-0.025863343849778175,0.21224026381969452,-0.9768751859664917,0.009536437690258026,-0.001516386866569519,0.0015944242477416992,-0.9600016939296906,0.10644945652382154,-0.015195817795713572,0.2585234660973808,-0.21386688824175,-0.026469402412760322,-0.528950355667304
1773065132609061888,0.32001185417175293,0.04038504138588905,0.033043887466192245,0.008862847462296486,-0.0255484227091074,0.21187780797481537,-0.976962149143219,0.01032014936208725,-0.0003299713134765625,0.0049468278884887695,-0.9600233058802882,0.10622994667430237,-0.015300822430412241,0.2585274561987278,-0.21349599950948037,-0.026144924387446703,-0.5289070990429027
1773065132619099904,0.3300497531890869,0.016970708966255188,0.03965358808636665,0.021746154874563217,-0.02515418641269207,0.21160343289375305,-0.9770318865776062,0.014366226270794868,-0.0027564018964767456,0.011425197124481201,-0.9600569584043239,0.10604429339505347,-0.015449230379792797,0.25846968059538433,-0.21321525819932421,-0.025739827585202824,-0.5287301524431325
1773065132629136896,0.3400866985321045,-0.00600012019276619,0.04527685046195984,0.03542601689696312,-0.024664726108312607,0.21158218383789062,-0.977048933506012,0.019751394167542458,-0.012012496590614319,0.02093327045440674,-0.9600927528194725,0.10597143466364899,-0.01567111849064122,0.25835349241791883,-0.21319351632563432,-0.025238744466556377,-0.5284319113704763
1773065132639174912,0.3501248359680176,0.02141006477177143,0.04202473163604736,0.03093472681939602,-0.02417454496026039,0.21154911816120148,-0.9770683646202087,0.02426609769463539,-0.014008834958076477,0.02598804235458374,-0.9601375643584148,0.10589328092350131,-0.01588828840743224,0.25820538360514483,-0.2131596779781889,-0.02473687153456428,-0.5280665755628983
1773065132649212928,0.36016273498535156,0.08557706326246262,0.03792212903499603,0.0238491203635931,-0.02371928095817566,0.21104086935520172,-0.9771894216537476,0.02373453788459301,-0.014690771698951721,0.01846444606781006,-0.9601966617584509,0.10558560352087629,-0.016030380427380003,0.25810297285758316,-0.21263968667156918,-0.024268195895410287,-0.5277802819743616
1773065132659250944,0.37020087242126465,0.15538743138313293,0.030884329229593277,0.035815633833408356,-0.02333035133779049,0.20987316966056824,-0.9774502515792847,0.01982082799077034,-0.017414063215255737,0.007723689079284668,-0.9602956020198087,0.10496305259611327,-0.016051282351063786,0.2579874655819391,-0.21144524391232922,-0.023864052086064808,-0.5274467048884219
1773065132669288960,0.38023877143859863,0.2397095113992691,0.0208458099514246,0.009720386005938053,-0.023008093237876892,0.20795461535453796,-0.977867841720581,0.023328527808189392,-0.023826822638511658,0.007881879806518555,-0.9604268638767874,0.10398019065749811,-0.015943735591059778,0.257903338372046,-0.209483400843943,-0.023524496293792274,-0.5271553965859626
1773065132679326976,0.3902769088745117,0.3814712166786194,-0.01780770905315876,-0.050025902688503265,-0.023022612556815147,0.2049454301595688,-0.9785025715827942,0.014355616644024849,-0.02074134349822998,0.003267645835876465,-0.9605613679005831,0.10250321890252771,-0.015549617813518718,0.25801793401812245,-0.20640794822011502,-0.023524072729657723,-0.5272712501548519
1773065132689364992,0.4003148078918457,0.5505251884460449,-0.06515498459339142,-0.1885984241962433,-0.023677624762058258,0.20030713081359863,-0.9794470071792603,0.00675562210381031,-0.0025990158319473267,-0.018020033836364746,-0.9606534376954253,0.10030503274076714,-0.014676505492110862,0.2585896946841453,-0.20167139936523357,-0.024169775206894225,-0.5283424000774065
1773065132699401728,0.4103517532348633,0.49800604581832886,-0.12010305374860764,-0.25304147601127625,-0.025056831538677216,0.1948256492614746,-0.9805178046226501,0.010164257138967514,0.026747211813926697,-0.036770403385162354,-0.9606281331232057,0.0977838640464081,-0.013394999638761961,0.25971595222938726,-0.19607969258385372,-0.025549133320183076,-0.5306086867814761
1773065132709440000,0.42038989067077637,-0.051460012793540955,-0.06835570186376572,-0.16712601482868195,-0.026304127648472786,0.1930578351020813,-0.9808347225189209,0.041349299252033234,0.08851258456707001,0.007858097553253174,-0.9604608456553388,0.09707036896175028,-0.012648293309508967,0.2606382870469582,-0.19427766186255885,-0.026811678148081473,-0.5325856146303202
1773065132719478016,0.43042778968811035,0.11890266090631485,-0.05485134571790695,-0.33146676421165466,-0.027267424389719963,0.19295066595077515,-0.9808295369148254,0.1467742621898651,0.15995460748672485,0.19121772050857544,-0.960156718170789,0.09713110266844642,-0.012279771375782803,0.2617515518702412,-0.19416843175199677,-0.027793211792141392,-0.5349990306726331
1773065132729515776,0.44046568870544434,0.43369975686073303,-0.14222246408462524,-0.5467718839645386,-0.029097307473421097,0.19006189703941345,-0.9813408255577087,0.1064593717455864,0.12260593473911285,0.09558337926864624,-0.9597119533362894,0.0959362368950337,-0.011217212144383655,0.26386219604895056,-0.19122519853077,-0.0296418775872793,-0.5394618520714526
1773065132739554048,0.4505038261413574,0.6888083219528198,-0.21503037214279175,-0.6806154251098633,-0.032005779445171356,0.18429310619831085,-0.9823501110076904,0.07019852846860886,0.12990061938762665,0.01454615592956543,-0.959170690783623,0.09347831324775586,-0.009314723479531899,0.266770970060415,-0.18535260692983954,-0.032569309127363305,-0.5455688850901044
1773065132749591808,0.4605417251586914,0.9456323981285095,-0.2778460681438446,-0.838520348072052,-0.03581106662750244,0.1759990006685257,-0.9837387204170227,0.10427725315093994,0.20692028105258942,0.04259192943572998,-0.9585391541614869,0.08992228614065,-0.006679047911710265,0.27031855110417274,-0.17692052299668112,-0.03638695777008868,-0.5529725937149392
1773065132759630080,0.4705798625946045,1.3199723958969116,-0.3361069858074188,-1.1255462169647217,-0.04050426185131073,0.16454073786735535,-0.9855383038520813,0.13565807044506073,0.26853421330451965,0.0528905987739563,-0.9577112325324519,0.08497256136155454,-0.003242129277220427,0.2748787820231701,-0.16529238514546143,-0.04107550034279916,-0.5624090368245229
1773065132769667840,0.4806177616119385,1.7356544733047485,-0.4459562599658966,-1.4443976879119873,-0.04641026258468628,0.14883610606193542,-0.9877721667289734,0.16387242078781128,0.3043041527271271,0.02401179075241089,-0.9565457848126269,0.07818064721737136,0.0013005006636063502,0.28090254655249575,-0.14939116786016704,-0.046950255300898636,-0.5747808795747457
1773065132779704832,0.49065470695495605,2.2114408016204834,-0.5458210706710815,-1.7420411109924316,-0.05351361259818077,0.1285008192062378,-0.9902645349502563,0.19607648253440857,0.3708430528640747,0.012191414833068848,-0.9549803697660629,0.06941103164846603,0.007060093979587363,0.28834834177116586,-0.12885711053005755,-0.053987204323427455,-0.5899583160537397
1773065132789742848,0.5006928443908691,2.7917113304138184,-0.6826529502868652,-2.0039942264556885,-0.06178152561187744,0.102566659450531,-0.9928056597709656,0.21310293674468994,0.450015127658844,-0.0006177425384521484,-0.9529949333873774,0.058256583015153324,0.014259352952492583,0.29699083019809625,-0.10274735163176041,-0.06214907996882683,-0.6073980970205096
1773065132799780864,0.5107307434082031,3.4254815578460693,-0.8627668023109436,-2.2829806804656982,-0.0713113397359848,0.07014482468366623,-0.9949846267700195,0.2347482144832611,0.5028989911079407,-0.01729869842529297,-0.9504807889339321,0.04438334426828042,0.02319067946891137,0.3067225574071332,-0.07020247307588022,-0.07154845210700035,-0.6268186608589271
1773065132809818880,0.5207688808441162,4.043014049530029,-1.0734926462173462,-2.5918805599212646,-0.0821770653128624,0.030926400795578957,-0.996137797832489,0.2581261694431305,0.5290711522102356,-0.029588520526885986,-0.9472014718171833,0.02775062563799487,0.03407359469524282,0.31761348647908944,-0.030931332489269422,-0.08230929799021704,-0.6483447940816938
1773065132819856896,0.5308067798614502,4.647197723388672,-1.3439140319824219,-2.8877429962158203,-0.09449346363544464,-0.014906062744557858,-0.9954138994216919,0.27541691064834595,0.5386945009231567,-0.032509684562683105,-0.9428931403567516,0.008566431177315075,0.0471134336749012,0.3296355070585748,0.014906614861844547,-0.09464520363563625,-0.6719310813845562
1773065132829894656,0.5408446788787842,5.273260116577148,-1.5775967836380005,-3.121591806411743,-0.10784400254487991,-0.06741157174110413,-0.9918797016143799,0.3237253427505493,0.5505048036575317,-0.04258990287780762,-0.937357163682345,-0.013179965837220997,0.062341282193304495,0.3424929463608299,0.06746273093788901,-0.10830147234868782,-0.6969647861980132
1773065132839932928,0.5508828163146973,5.93472957611084,-1.806288719177246,-3.307114839553833,-0.12148299068212509,-0.12671606242656708,-0.9844719171524048,0.3958207666873932,0.5806040167808533,-0.055597662925720215,-0.9304027867840712,-0.0376294116105632,0.07967481823040735,0.3557902187112401,0.12705764729820404,-0.12277846051758391,-0.7226726579137226
1773065132849970944,0.5609207153320312,6.608649730682373,-2.1174328327178955,-3.452850103378296,-0.1352997124195099,-0.19267158210277557,-0.9718907475471497,0.4295654594898224,0.6210163235664368,-0.06807196140289307,-0.9217553249051157,-0.0647311195784965,0.09932019897210034,0.3692052563011596,0.19388402244577585,-0.13832386266221813,-0.7484808431022133
1773065132860007936,0.5709578990936279,7.2633376121521,-2.5035336017608643,-3.5388858318328857,-0.14954838156700134,-0.2647095322608948,-0.9526616334915161,0.43471989035606384,0.6658326387405396,-0.08389842510223389,-0.9111086756482967,-0.09422798848144505,0.12161530405379903,0.3823764830990708,0.26790270545496,-0.15570881861007477,-0.7736915685236908
1773065132870045952,0.5809957981109619,7.861508369445801,-2.9175543785095215,-3.5997390747070312,-0.16425932943820953,-0.3416701555252075,-0.9253541827201843,0.43903958797454834,0.697306752204895,-0.09271222352981567,-0.89814147017749,-0.12568437189303253,0.14671857605312646,0.3949924337785735,0.348693418356971,-0.17567972516618668,-0.7976389322300907
1773065132880083712,0.5910336971282959,8.388388633728027,-3.3095574378967285,-3.5947089195251465,-0.17879804968833923,-0.4219634234905243,-0.8888071179389954,0.45814067125320435,0.6870238780975342,-0.10312098264694214,-0.8825746004235661,-0.1586629815900172,0.1744204717819612,0.40677449968352064,0.4356099137341164,-0.1985167586649286,-0.8196821568295766
1773065132890121984,0.601071834564209,8.770092964172363,-3.6804897785186768,-3.502506971359253,-0.1926702857017517,-0.5032610893249512,-0.8423813581466675,0.514005184173584,0.6522632241249084,-0.10877519845962524,-0.8643263851515799,-0.1924588353282114,0.20437441892623442,0.41728953683294956,0.527368494704933,-0.22485328144571715,-0.8386307935851041
1773065132900159744,0.611109733581543,8.915719985961914,-4.115642070770264,-3.2813642024993896,-0.20601749420166016,-0.5825349688529968,-0.7862631678581238,0.5982904434204102,0.6075441837310791,-0.04482203722000122,-0.8435099551189884,-0.22593265572930946,0.23626859115749926,0.42617196456556106,0.6218440297758685,-0.25626018748761725,-0.8529018097561338
1773065132910198016,0.621147871017456,8.846187591552734,-4.468001365661621,-2.9262349605560303,-0.21923932433128357,-0.656475841999054,-0.7217850089073181,0.7088938355445862,0.5329864621162415,0.059889256954193115,-0.8205537827572557,-0.25770874606077687,0.2696176830354803,0.4331096625443196,0.7161373798569592,-0.2948899542991266,-0.8602795619199215
1773065132920235776,0.63118577003479,8.684675216674805,-4.702113628387451,-2.48919939994812,-0.232127845287323,-0.7230287194252014,-0.6506505012512207,0.8308369517326355,0.4120699167251587,0.18071037530899048,-0.796043139289996,-0.2871256049929242,0.30369991285042314,0.43776766696404357,0.8081766014122828,-0.3426867776332948,-0.8578563720189775
1773065132930272768,0.6412227153778076,8.503633499145508,-4.891030788421631,-2.1700074672698975,-0.2441340833902359,-0.7814768552780151,-0.5741884708404541,0.8865443468093872,0.2678813338279724,0.24270659685134888,-0.7702373232527921,-0.3140921994497776,0.3380116278461535,0.44025966712297326,0.8970293068526013,-0.4020240422845466,-0.8430474620213909
1773065132940311040,0.6512608528137207,8.43945598602295,-5.046159744262695,-2.054542064666748,-0.253781259059906,-0.832064688205719,-0.49321749806404114,0.8419922590255737,0.138522207736969,0.24102020263671875,-0.7428699284129254,-0.3389459412588645,0.37216516058723775,0.4413083732166293,0.9828196892623439,-0.4752136350463132,-0.8142848627991262
1773065132950348800,0.6612987518310547,8.517659187316895,-5.109611988067627,-1.9949138164520264,-0.25932756066322327,-0.8756336569786072,-0.407449334859848,0.6980024576187134,0.04674571752548218,0.24799495935440063,-0.7135309618110356,-0.3626374079820798,0.4059180193425507,0.4411329185028053,1.0667462058783368,-0.5668018968571578,-0.766847662401223
1773065132960387072,0.6713368892669678,8.70350456237793,-5.1246657371521,-1.811388611793518,-0.2607499659061432,-0.9119271039962769,-0.31685730814933777,0.5306779146194458,0.029511332511901855,0.21801084280014038,-0.6822966519834942,-0.3855257041450516,0.4392508165297405,0.43920387721500836,1.147956077943252,-0.6885644253155369,-0.6882480916253232
1773065132970424832,0.6813747882843018,9.030628204345703,-5.183986663818359,-1.4635409116744995,-0.25939732789993286,-0.940139651298523,-0.22102180123329163,0.440168172121048,0.08926379680633545,0.21598637104034424,-0.6492725481724001,-0.40756777609360145,0.47262840442894793,0.4346908668272821,1.2230398248170662,-0.8651081661040013,-0.5537321915172946
1773065132980462848,0.6914126873016357,9.324302673339844,-5.17501163482666,-0.957074761390686,-0.25664907693862915,-0.9590381383895874,-0.11990466713905334,0.40531545877456665,0.1550525426864624,0.22010916471481323,-0.6145999153560432,-0.4284905483528531,0.5064025252033629,0.4268715131317545,1.2835869700395357,-1.1337370113237601,-0.32604379775730297
1773065132990500864,0.7014508247375488,9.143231391906738,-4.974034309387207,-0.3084714412689209,-0.2540455758571625,-0.967041015625,-0.017095405608415604,0.38583579659461975,0.18466204404830933,0.2919519543647766,-0.5794860150724729,-0.4471550624456541,0.5399117034760395,0.4156242673724393,1.313340954279013,-1.5036049545097878,0.00452283743159343
1773065133000538880,0.7114887237548828,8.207826614379883,-4.61666202545166,0.2552787661552429,-0.25239577889442444,-0.9643250107765198,0.07983627915382385,0.35261547565460205,0.10806268453598022,0.5073829889297485,-0.5461624910929564,-0.46204504317074546,0.571342733579337,0.4022293603525278,1.3028815230208857,-1.8771519606110636,0.34130579772064257
1773065133010576128,0.7215259075164795,6.1838459968566895,-4.421946048736572,0.5905539393424988,-0.2511206269264221,-0.9544265270233154,0.16127192974090576,0.24768739938735962,-0.17896592617034912,0.6925488710403442,-0.51672553823658,-0.47113735455725814,0.5988869351414166,0.3903317281038092,1.2677323893243282,-2.141675073953609,0.5695071516210757
1773065133020613888,0.7315638065338135,3.4974422454833984,-4.0164971351623535,0.7785611152648926,-0.2495017796754837,-0.9435021877288818,0.21806538105010986,0.06441269814968109,-0.6088507175445557,0.7973459959030151,-0.4935939220043832,-0.4731065795848364,0.6206471268794912,0.38383900094119633,1.2330450774734374,-2.2890615442203224,0.6799319518147423
1773065133030651904,0.7416017055511475,1.287990927696228,-3.4164223670959473,0.9346228837966919,-0.2488555908203125,-0.9358978271484375,0.24933092296123505,-0.1806640475988388,-0.9308470487594604,0.793363094329834,-0.47799991902603145,-0.4689083906954353,0.6362313933964444,0.3832108029778922,1.2107991887083764,-2.3571486353719626,0.7126106223255245
1773065133040689920,0.7516398429870605,0.18745726346969604,-2.9923486709594727,0.9776732921600342,-0.24966906011104584,-0.9317781329154968,0.26354265213012695,-0.44106578826904297,-0.8547055721282959,0.664313793182373,-0.4680650301963122,-0.46127962993125865,0.6472962503295271,0.38619135718502173,1.1992805945387552,-2.383220805542581,0.7064089149242206
1773065133050727936,0.7616777420043945,-0.1312301605939865,-2.789236307144165,0.9379173517227173,-0.25091755390167236,-0.9293830990791321,0.27071690559387207,-0.5932902097702026,-0.5255730152130127,0.36287379264831543,-0.4605155000318611,-0.4524817043304384,0.6562154821046009,0.3905983725519401,1.1927379579335105,-2.394132620149706,0.686987151935514
1773065133060765952,0.7717158794403076,-0.02654281258583069,-2.5191190242767334,0.7753825187683105,-0.2517162263393402,-0.9274660348892212,0.2764880955219269,-0.5807422399520874,-0.19718295335769653,0.13368341326713562,-0.45363826507070437,-0.4441174337901811,0.6640811382305312,0.3949281988095889,1.1875779328691765,-2.403058425954914,0.6678171241110638
1773065133070803968,0.7817537784576416,0.34759804606437683,-2.174095392227173,0.5116973519325256,-0.2510828673839569,-0.9254284501075745,0.2837950885295868,-0.5210270881652832,0.03217893838882446,0.05395814776420593,-0.44671986731054164,-0.4376291797569473,0.6711022575158765,0.39817562964515163,1.1821646807226014,-2.4172766676732826,0.6577242941192155
1773065133080840704,0.7917907238006592,0.9444352388381958,-1.8682204484939575,0.3279019594192505,-0.24904781579971313,-0.9225836396217346,0.294642835855484,-0.4931548833847046,0.15334242582321167,0.02020701766014099,-0.4393605834946429,-0.4335955437827724,0.6777287968377218,0.3995507129038954,1.1747246129058788,-2.4398607697995174,0.6602889753068081
1773065133090878976,0.8018288612365723,1.7990143299102783,-1.5932564735412598,0.26722344756126404,-0.24647682905197144,-0.9177297949790955,0.3114818036556244,-0.45834189653396606,0.2220969796180725,0.008372873067855835,-0.4310854236433355,-0.4321105037579488,0.6848513830657161,0.39802557980820863,1.1623268187171845,-2.4721766323778342,0.6765634590008088
1773065133100916736,0.8118667602539062,2.81571364402771,-1.3175235986709595,0.28013670444488525,-0.24424269795417786,-0.9095798134803772,0.33616942167282104,-0.42047595977783203,0.26361435651779175,-0.008181720972061157,-0.42160029202188515,-0.4332114804437842,0.6931179697365939,0.3926428558594069,1.1422717272309793,-2.51327156143411,0.7055679597173312
1773065133110955008,0.8219048976898193,3.7498326301574707,-1.1468600034713745,0.32550978660583496,-0.24267253279685974,-0.8971877694129944,0.36900463700294495,-0.38910239934921265,0.30555862188339233,-0.02594122290611267,-0.4107240313584029,-0.43663812346288916,0.7027442361080364,0.3831494958190312,1.1133601145842158,-2.559864706274059,0.7435426115939604
1773065133120993024,0.8319427967071533,4.694062232971191,-1.0838091373443604,0.33422842621803284,-0.24125084280967712,-0.879898726940155,0.4093605577945709,-0.3350430727005005,0.3265846371650696,-0.01643151044845581,-0.39807330149843234,-0.44191996835151137,0.7137135384901078,0.36994229183241717,1.075649022067007,-2.609051358321488,0.7862632870397848
1773065133131030784,0.8419806957244873,5.409180641174316,-1.0385500192642212,0.473003625869751,-0.24010612070560455,-0.856900691986084,0.45614734292030334,-0.26009225845336914,0.27221429347991943,-0.004121005535125732,-0.3836377688031217,-0.44853060536163575,0.725874627455439,0.353197443897116,1.029226823941651,-2.6570656929994496,0.8293223591804734
1773065133141069056,0.8520188331604004,5.602038383483887,-1.143251657485962,0.7134671211242676,-0.2398529201745987,-0.8287580013275146,0.5055992603302002,-0.1424407660961151,0.16966992616653442,-0.047622084617614746,-0.3681088243555342,-0.45491836765723187,0.7388158743775167,0.33420982051959075,0.9768845599070145,-2.6986394070369135,0.8656513101889294
1773065133151106816,0.8620567321777344,5.334475040435791,-1.2350212335586548,0.8908812999725342,-0.2401604801416397,-0.7975935935974121,0.5533241629600525,0.0048699527978897095,0.06630074977874756,0.02054375410079956,-0.3523691569214405,-0.45987761843089864,0.7517809893396388,0.31491898012333824,0.9232951779755145,-2.732096618433975,0.8920914510280572
1773065133161143808,0.872093677520752,4.638824939727783,-1.2728333473205566,1.0089397430419922,-0.24034325778484344,-0.766444742679596,0.5956490635871887,0.08023276925086975,-0.050571978092193604,0.02565830945968628,-0.33744849780803915,-0.4630016874655522,0.7638415936519929,0.297159969778344,0.8732876049698363,-2.758074333382502,0.9091408307676901
1773065133171181824,0.882131814956665,3.9537105560302734,-1.2179688215255737,1.1458088159561157,-0.24081742763519287,-0.7374849915504456,0.630969762802124,0.09392106533050537,-0.12219518423080444,0.05999398231506348,-0.32425540237133493,-0.4641550477529586,0.7746257052861456,0.2817331304216669,0.8293388463022648,-2.776993823076835,0.9177195975872036
1773065133181219840,0.892169713973999,3.500303030014038,-1.246425986289978,1.2764919996261597,-0.24152328073978424,-0.7104822993278503,0.6609700322151184,0.09674789011478424,-0.13515979051589966,0.10698950290679932,-0.31241791271701325,-0.46367705355807537,0.7845308222540515,0.2681604422964798,0.7901833337449189,-2.791258431517096,0.920245814780781
1773065133191257856,0.9022078514099121,3.278674840927124,-1.186644196510315,1.354752779006958,-0.24258007109165192,-0.6843849420547485,0.6875844597816467,0.07979927957057953,-0.11166614294052124,0.08333534002304077,-0.30150180139509347,-0.46205293165688743,0.7939139261544292,0.25554743849052947,0.753759777217783,-2.8024252322038468,0.9188116687495635
1773065133201294336,0.9122443199157715,3.1399965286254883,-1.0886932611465454,1.318446397781372,-0.24358338117599487,-0.658564567565918,0.7120115756988525,0.048896417021751404,-0.07724499702453613,0.07485389709472656,-0.29116877484627524,-0.46001604519678135,0.8027397051703471,0.24334161517025113,0.7189096773957027,-2.811967661582039,0.9159085539688655
1773065133211332608,0.9222824573516846,2.8826165199279785,-1.0529086589813232,1.230012059211731,-0.24412526190280914,-0.6335495710372925,0.7341784834861755,0.0017393827438354492,-0.056575000286102295,0.08164793252944946,-0.28142673750995506,-0.45790408798872967,0.8108101456878175,0.23175381539953055,0.6861324504013933,-2.820578893044173,0.9126630286024426
1773065133221370368,0.9323203563690186,2.444005012512207,-0.9857679605484009,1.1276860237121582,-0.2439257651567459,-0.6106896996498108,0.753364622592926,-0.014985352754592896,-0.048901915550231934,0.10575097799301147,-0.27249048301673623,-0.4556328778140168,0.8179737041446747,0.22150984372265692,0.6569312758454076,-2.828462947244187,0.9089481901613633
1773065133231407360,0.9423573017120361,1.9141013622283936,-0.9256372451782227,1.0001006126403809,-0.24299860000610352,-0.5914501547813416,0.768855094909668,-0.021970242261886597,-0.05727720260620117,0.10870826244354248,-0.2647238858678916,-0.4531412458354915,0.8240695103336593,0.21329239347136444,0.6328560753521812,-2.835474589848124,0.9045691017663312
1773065133241445632,0.9523954391479492,1.43758225440979,-0.8601799607276917,0.9165764451026917,-0.24167028069496155,-0.576139509677887,0.7808067202568054,-0.033720359206199646,-0.08879280090332031,0.0903787612915039,-0.2582496681774376,-0.4504242786903148,0.8291690542905968,0.2071324733909223,0.6139976199629954,-2.8414308196635716,0.8994463188579983
1773065133251483392,0.9624333381652832,1.1463618278503418,-0.8383534550666809,0.8361513614654541,-0.23999468982219696,-0.5639360547065735,0.790176272392273,-0.026530563831329346,-0.10143864154815674,0.042572081089019775,-0.2527274351314531,-0.4475319932469801,0.8335485954504954,0.20258496686755298,0.5991443335366946,-2.8467238010486606,0.893782728851658
1773065133261521664,0.9724714756011963,1.0931408405303955,-0.790407121181488,0.7507057785987854,-0.23791925609111786,-0.5531900525093079,0.7983577251434326,-0.004329293966293335,-0.08769434690475464,-0.001528620719909668,-0.24761064945855465,-0.4447690210010086,0.8374720229971887,0.19877139968131927,0.586188747038923,-2.851961774345573,0.8884449370662476
1773065133271559424,0.9825093746185303,1.1468373537063599,-0.7455602884292603,0.6775756478309631,-0.23568561673164368,-0.5425421595573425,0.806287944316864,0.01978902518749237,-0.0733635425567627,-0.014372050762176514,-0.24261951790595207,-0.4423715770939485,0.841101280886335,0.19491482156709825,0.5734604518151896,-2.8572062208826443,0.8839998696577054
1773065133281597696,0.9925475120544434,1.2458202838897705,-0.6885150671005249,0.6354644298553467,-0.233336940407753,-0.531245231628418,0.8144524097442627,0.0480952113866806,-0.05589777231216431,0.0029762983322143555,-0.23753849491761309,-0.44034113687437404,0.8445862248435616,0.1906550742543764,0.5600696885727726,-2.8625709061399274,0.8804675473508088
1773065133291635456,1.0025854110717773,1.1855145692825317,-0.5747861266136169,0.5807647109031677,-0.23132163286209106,-0.5197327136993408,0.8224163055419922,0.06478717923164368,-0.048413097858428955,0.06953632831573486,-0.2326998400433952,-0.43859185531130757,0.8478474688770892,0.1861255629748567,0.5465380251177111,-2.8674059944291694,0.8774881766835883
1773065133301673472,1.0126233100891113,0.8985781073570251,-0.4271094799041748,0.5226549506187439,-0.23003756999969482,-0.5096980333328247,0.8290297985076904,0.044505998492240906,-0.03397256135940552,0.19427025318145752,-0.2287625237076121,-0.4370051512469846,0.850612364078979,0.18207895865729884,0.5348337694873969,-2.870924074982318,0.8746005797942928
1773065133311710720,1.022660493850708,0.4390733540058136,-0.23478183150291443,0.4574953615665436,-0.2297791838645935,-0.5029765963554382,0.8331964015960693,-0.0009642541408538818,-0.026015162467956543,0.3481544256210327,-0.22633213795053952,-0.43537999780704234,0.8526678460077268,0.17937559108153292,0.5270392454356956,-2.872501113016173,0.871189694325407
1773065133321748480,1.032698392868042,-0.0050455546006560326,-0.03972485661506653,0.42245522141456604,-0.23083552718162537,-0.5001984238624573,0.8345757126808167,-0.05186408758163452,-0.0379791259765625,0.4562568664550781,-0.22567790895245704,-0.43362258532593423,0.853966815808716,0.17827411201037677,0.5238279159194454,-2.871748584146817,0.8669480589495111
1773065133331786752,1.042736530303955,-0.3914571702480316,0.09672832489013672,0.41210857033729553,-0.233217254281044,-0.500903844833374,0.8334898352622986,-0.09229850769042969,-0.05471450090408325,0.4653688669204712,-0.22663270820480383,-0.43163683651255963,0.8546546486742547,0.17858547236299757,0.524642776577733,-2.8687618569437263,0.8616649191390331
1773065133341824512,1.052774429321289,-0.6663592457771301,0.10399994999170303,0.41563713550567627,-0.2361648678779602,-0.5044825673103333,0.8304962515830994,-0.1020766943693161,-0.04121750593185425,0.3932589292526245,-0.2286271799443076,-0.42934220094123926,0.8549347320802059,0.1802266024501414,0.5287825674583136,-2.8645400035286888,0.8553471003002644
1773065133351862528,1.062812328338623,-0.7399501204490662,0.12135843932628632,0.4955255687236786,-0.23944608867168427,-0.5094491243362427,0.8265150189399719,-0.08803802728652954,-0.003963291645050049,0.2930070161819458,-0.23110339189062787,-0.4266567186196169,0.855114932062532,0.18257515599700783,0.5345444764492638,-2.8596067442036217,0.8479180380449935
1773065133361900544,1.0728504657745361,-0.5418980121612549,0.15951408445835114,0.5986127853393555,-0.24348725378513336,-0.5135756731033325,0.8227719664573669,-0.08222682774066925,0.045436084270477295,0.19498908519744873,-0.23365209379841628,-0.42367811895990914,0.8555015027182584,0.1844468375575943,0.5393468301713925,-2.8538691056709764,0.8396246600452194
1773065133371938560,1.0828883647918701,-0.2460613250732422,0.19297243654727936,0.655501127243042,-0.24830445647239685,-0.5153343677520752,0.8202289938926697,-0.10948364436626434,0.09930342435836792,0.1171032190322876,-0.23589887533161036,-0.4206584000103747,0.8562482222287637,0.1850331817370359,0.541397751653073,-2.8476370317445245,0.8311739467603751
1773065133381975296,1.0929253101348877,-0.01976875215768814,0.21823664009571075,0.6721699833869934,-0.2535037398338318,-0.5147423148155212,0.81900954246521,-0.1559353768825531,0.1506827473640442,0.07669675350189209,-0.23770809341582075,-0.41781911648669723,0.8572817197204742,0.18436431543450488,0.5407070265726033,-2.841420604597303,0.823225580867987
1773065133392013568,1.1029634475708008,0.08433794230222702,0.3102477788925171,0.6369693875312805,-0.25915849208831787,-0.5128161907196045,0.8184474110603333,-0.20563945174217224,0.16789138317108154,0.09532511234283447,-0.2394418234659819,-0.4152829480348843,0.8583494534992672,0.1828765606157706,0.5384619723318479,-2.834934695840243,0.8159990294093227
1773065133402051328,1.1130013465881348,0.09864164888858795,0.41190266609191895,0.6096748113632202,-0.26548245549201965,-0.5104981064796448,0.8178693652153015,-0.25063076615333557,0.14842242002487183,0.14459383487701416,-0.2414706097206841,-0.4130051974429652,0.8592795752808052,0.18098933075084134,0.53576396325432,-2.827720302424492,0.8092707161711735
1773065133412089600,1.1230394840240479,0.14330819249153137,0.4980444610118866,0.5729939937591553,-0.2723556458950043,-0.5079823136329651,0.817175567150116,-0.2647842466831207,0.1333485245704651,0.16716855764389038,-0.24379282832575128,-0.4109925948174065,0.8600423617149899,0.17882154756706853,0.5328407373570082,-2.8198819635755843,0.8030777339295346
1773065133422127360,1.1330773830413818,0.27774837613105774,0.5444915890693665,0.5430177450180054,-0.27962547540664673,-0.504826009273529,0.8166764378547668,-0.24672645330429077,0.13022273778915405,0.15195155143737793,-0.2462172945556073,-0.4092920442433325,0.8607079806483953,0.17617848825253604,0.5291804075693353,-2.8117093780940476,0.7976227529456288
1773065133432165632,1.143115520477295,0.4875628352165222,0.5610034465789795,0.53617924451828,-0.28698447346687317,-0.5001739859580994,0.8169862031936646,-0.2045927345752716,0.11604911088943481,0.10342413187026978,-0.24834431007129812,-0.4078780810903418,0.8614688465323804,0.17271987492484056,0.5237996868237098,-2.8037849987207766,0.7930365442209121
1773065133442203648,1.153153419494629,0.6984803080558777,0.525111198425293,0.4973554313182831,-0.294094443321228,-0.4938153326511383,0.8183246850967407,-0.14021646976470947,0.1111249029636383,0.04443800449371338,-0.2499621761223108,-0.40683131916992227,0.8623518032397263,0.1683944038674006,0.5164719235451859,-2.796580747978172,0.7896394945778618
1773065133452241408,1.163191318511963,0.9001638889312744,0.48684239387512207,0.43823620676994324,-0.30065464973449707,-0.4858456552028656,0.8207080364227295,-0.09149631857872009,0.11968031525611877,-0.0061782002449035645,-0.25095981963576897,-0.4062201344836897,0.8633303044007352,0.1632954389200134,0.5073304388919865,-2.7904396384142967,0.7876662221019205
1773065133462278656,1.1732285022735596,1.0996646881103516,0.48651695251464844,0.40589237213134766,-0.30671364068984985,-0.476306676864624,0.8240503668785095,-0.055972546339035034,0.11088913679122925,-0.013549208641052246,-0.2513776683172463,-0.40606448703649245,0.8643707628632412,0.1574298957316157,0.49644952226911615,-2.785276809553494,0.7871488035501871
1773065133472316416,1.1832664012908936,1.2491748332977295,0.49780556559562683,0.4484507441520691,-0.31287872791290283,-0.4652021527290344,0.8280665874481201,-0.01735207438468933,0.06336182355880737,-0.007921755313873291,-0.25147719520275646,-0.40609143309976514,0.8655189500934231,0.15075156701566247,0.4838629574130296,-2.7803323047013615,0.7873241445313525
1773065133482354432,1.1933043003082275,1.266094446182251,0.5134260654449463,0.48870280385017395,-0.3192971646785736,-0.45318490266799927,0.8322696089744568,0.04144987463951111,0.024962246417999268,-0.021997451782226562,-0.2514669629529902,-0.4060113359232653,0.8667696420437359,0.14362986613073367,0.47033494963816236,-2.77526331165092,0.787420730950521
1773065133492392448,1.2033424377441406,1.268476128578186,0.5053566694259644,0.4545757472515106,-0.32579174637794495,-0.44110777974128723,0.8362318873405457,0.08171215653419495,0.013953208923339844,-0.02196180820465088,-0.25150284968921277,-0.40588779886129267,0.8679694880167651,0.1364932144293179,0.45683264338113627,-2.7700881792513496,0.7875177743218513
1773065133502430464,1.2133803367614746,1.4423530101776123,0.4796421527862549,0.3994279205799103,-0.3319358229637146,-0.4284646809101105,0.8403787016868591,0.08997726440429688,0.0023936033248901367,-0.04058939218521118,-0.2512806992276747,-0.4060220412323829,0.8691003766524722,0.12910687375166377,0.4427928873621605,-2.765418211603415,0.7884570013085563
1773065133512468480,1.2234184741973877,1.7790063619613647,0.4762599468231201,0.38950181007385254,-0.33767831325531006,-0.41358453035354614,0.8455301523208618,0.10151806473731995,-0.008763492107391357,-0.09226477146148682,-0.2503655296378917,-0.40663302692155184,0.8702957285274319,0.12063184068257797,0.42638759551038746,-2.7616305729247546,0.7909766497361898
1773065133522506496,1.2334563732147217,2.1510913372039795,0.4297201335430145,0.45467281341552734,-0.3433764576911926,-0.39534658193588257,0.851935088634491,0.12380251288414001,-0.021553993225097656,-0.1753758192062378,-0.24862688764279234,-0.4075253533240678,0.8717170631048953,0.11053073127159956,0.4064451282990114,-2.7584556889199963,0.7947283167315291
1773065133532543488,1.2434933185577393,2.4000401496887207,0.3703843653202057,0.5319651961326599,-0.34873273968696594,-0.37392690777778625,0.8593977093696594,0.16266706585884094,-0.04314160346984863,-0.2073436975479126,-0.24594777164564954,-0.4084174471308217,0.8734380625937631,0.09905005744355594,0.3832394737340472,-2.7561071359281755,0.7990944800628447
1773065133542581504,1.2535314559936523,2.334989547729492,0.4349198341369629,0.5734025239944458,-0.35437771677970886,-0.35129910707473755,0.8666055798530579,0.18650054931640625,-0.10562530159950256,-0.17373454570770264,-0.2431476200039064,-0.40909978040333056,0.8751800747247329,0.08704255747198911,0.35895827992717155,-2.753415046820629,0.8032392049415766
1773065133552619520,1.2635693550109863,2.248514413833618,0.3453747630119324,0.660872220993042,-0.3599364757537842,-0.3292015492916107,0.8729671835899353,0.18209537863731384,-0.15547853708267212,-0.12662941217422485,-0.2404605539708334,-0.40932183927705984,0.8768918001711804,0.07546542548766523,0.3354578546632231,-2.750516148973455,0.8064032494778138
1773065133562657536,1.2736074924468994,2.030346632003784,0.3211783468723297,0.7442059516906738,-0.3650900423526764,-0.307600736618042,0.8786871433258057,0.2093435823917389,-0.209031343460083,-0.13089966773986816,-0.23771554075585538,-0.4089304745107107,0.8787032678827277,0.06440312718330403,0.3126704810295441,-2.7478003578464603,0.8082751408466302
1773065133572695552,1.2836453914642334,1.5935277938842773,0.29765409231185913,0.7892895340919495,-0.37018510699272156,-0.2887786030769348,0.8829328417778015,0.2442237138748169,-0.18795180320739746,-0.1401195526123047,-0.23563493271557773,-0.40777409470266823,0.880446888350738,0.054862453253394824,0.29295083461438803,-2.744587434566564,0.8081267838701881
1773065133582733568,1.2936835289001465,1.3780931234359741,0.2693884074687958,0.7326731085777283,-0.37484753131866455,-0.272889643907547,0.8860141634941101,0.24060064554214478,-0.04652264714241028,-0.02149665355682373,-0.23408045153930387,-0.4061777386244248,0.8820582401904623,0.04689775140111763,0.2763953925090475,-2.741356419057958,0.8066771354563306
1773065133592771584,1.3037214279174805,1.224471092224121,0.2235705554485321,0.6704787611961365,-0.37894850969314575,-0.2585645616054535,0.8885618448257446,0.21244466304779053,-0.02176988124847412,0.02063298225402832,-0.232677139461452,-0.4046861524479667,0.8834647893994596,0.03975377393997703,0.2615359261439993,-2.7384741799604986,0.8053500024974042
1773065133602808576,1.313758373260498,0.6988278031349182,0.22950181365013123,0.6265018582344055,-0.3825184106826782,-0.24722999334335327,0.8902565836906433,0.1698872447013855,-0.08994342386722565,-0.02844029664993286,-0.23174289711849363,-0.40300486278422837,0.8847120235304162,0.034159685364797805,0.24982046093052965,-2.735771353629626,0.803215177169889
1773065133612846592,1.3237965106964111,-0.09955643862485886,0.2757715880870819,0.5459327101707458,-0.3862245976924896,-0.24237334728240967,0.8899922370910645,0.16268324851989746,-0.09170264005661011,0.04888129234313965,-0.2323795731536724,-0.4007555904292984,0.8856585475048421,0.03168180618642529,0.2448113983593898,-2.732153975502671,0.7987788561447292
1773065133622884608,1.3338344097137451,-0.3328297734260559,0.3926493227481842,0.3493049740791321,-0.39028677344322205,-0.24297462403774261,0.8880541920661926,0.15524032711982727,-0.028189390897750854,0.23014068603515625,-0.23445708044100577,-0.3984673268420861,0.8861438264921929,0.0316696030299355,0.24543119297905622,-2.7275170533177877,0.7933487364279512
1773065133632922368,1.343872308731079,0.07817241549491882,0.48088571429252625,0.18078626692295074,-0.39485326409339905,-0.24340613186359406,0.8859144449234009,0.12738198041915894,0.06617529690265656,0.3187211751937866,-0.23678939548330924,-0.39720809825513403,0.8861055004880759,0.03120215725643338,0.24587606739415896,-2.722319232357623,0.7902503168672277
1773065133642960640,1.3539104461669922,0.8423174023628235,0.660895824432373,0.09327466785907745,-0.4002322554588318,-0.23879460990428925,0.8847549557685852,0.09224885702133179,0.22406989336013794,0.1818038821220398,-0.2384234200450234,-0.397233904815702,0.8857667362919716,0.027871265842065555,0.2411243632316446,-2.7167736743756263,0.7909075454931581
1773065133652998400,1.3639483451843262,1.5257083177566528,0.8867561221122742,0.03380867838859558,-0.4072648882865906,-0.22795239090919495,0.884405255317688,0.12615227699279785,0.32983535528182983,0.15857857465744019,-0.23949639324205704,-0.39848756657754864,0.8851046690429742,0.020946516251384543,0.22997418530973823,-2.7100447747920344,0.7954459517676754
1773065133663036672,1.3739864826202393,1.937212586402893,0.9818875789642334,-0.056690461933612823,-0.4156758487224579,-0.21239113807678223,0.8843663334846497,0.166087806224823,0.3202555179595947,0.24763751029968262,-0.24018770575201245,-0.4006945640158926,0.8840967347151687,0.011258565248386424,0.21402127763503573,-2.7022098523956313,0.8031008774251083
1773065133673074432,1.3840243816375732,1.6201534271240234,0.7512195110321045,-0.1619902402162552,-0.4232890009880066,-0.19655582308769226,0.8844159841537476,0.23694875836372375,0.2796705365180969,0.27337491512298584,-0.24039491036551955,-0.4034521914948814,0.8828557761899567,0.0014612299973538222,0.19784396977015595,-2.695204234768325,0.8122502054000483
1773065133683111424,1.3940613269805908,1.037257194519043,0.6266770958900452,-0.15646378695964813,-0.42889007925987244,-0.1857377141714096,0.884056031703949,0.32744961977005005,0.2239609658718109,0.0307999849319458,-0.24071233858964133,-0.40574581306623975,0.8817019648692817,-0.005443071660782913,0.18682258625322004,-2.689904343148083,0.8195387837799148
1773065133693149440,1.404099464416504,1.0845814943313599,0.4989740252494812,0.0007601804099977016,-0.4337948262691498,-0.17694011330604553,0.8834670782089233,0.43204015493392944,0.01756209135055542,-0.08572238683700562,-0.24112996177986096,-0.40736889574226137,0.8807860782713269,-0.011079638415270432,0.17787663281019647,-2.6851595343313095,0.8249927737493957
1773065133703187456,1.414137363433838,0.8827461004257202,0.20359006524085999,0.36466434597969055,-0.43714824318885803,-0.1670571267604828,0.8837379813194275,0.49618464708328247,-0.35232147574424744,-0.1696268916130066,-0.24053527264796554,-0.4078271790523327,0.8806508819670613,-0.016542606759475876,0.16784408540006812,-2.682227593746154,0.8280536582452219
1773065133713225728,1.424175500869751,0.26057493686676025,0.15460175275802612,0.6365541815757751,-0.43947869539260864,-0.15961869060993195,0.8839575052261353,0.5129649043083191,-0.531665563583374,-0.13438451290130615,-0.24003806484134277,-0.4062147200419006,0.8814580817201093,-0.02007769667426436,0.1603043831972046,-2.6802102029303994,0.8259429638034511
1773065133723263488,1.434213399887085,-0.2773444354534149,0.26392531394958496,0.6203110814094543,-0.4423714876174927,-0.15713348984718323,0.8829590678215027,0.3459511399269104,-0.36557161808013916,0.1354736089706421,-0.24098889750492206,-0.4032592146151306,0.8825313193657341,-0.02109188754260969,0.1577874051290575,-2.677137205506933,0.8198226610713405
1773065133733301504,1.444251298904419,-0.09707188606262207,0.31306490302085876,0.2596742808818817,-0.445679634809494,-0.15715955197811127,0.8812888860702515,0.03442487120628357,-0.008444041013717651,0.25716912746429443,-0.2427042470979813,-0.4009616764528731,0.883104847611341,-0.021215292702889684,0.15781379657752867,-2.673384742673286,0.8147021128143062
1773065133743339520,1.454289436340332,0.6649903655052185,0.2583251893520355,-0.002663845894858241,-0.4484098255634308,-0.1543625295162201,0.8803980350494385,-0.22447222471237183,0.3029373586177826,-0.030697226524353027,-0.24345005758693608,-0.40076358031620046,0.8829425696836596,-0.023087177853990764,0.1549822166695153,-2.6705119131673283,0.8149119428237938
1773065133753376512,1.4643263816833496,1.2464321851730347,0.1224033311009407,0.025942232459783554,-0.45011869072914124,-0.14535288512706757,0.8810596466064453,-0.28628578782081604,0.363614559173584,-0.35464656352996826,-0.24225308850245195,-0.4019933173475588,0.8825707860234598,-0.02799512626395642,0.145869635255855,-2.6692763162042183,0.8196414369262544
1773065133763414528,1.4743645191192627,0.8271947503089905,0.031632278114557266,0.10244379937648773,-0.4508897364139557,-0.13553255796432495,0.8822295665740967,-0.13716867566108704,0.14102576673030853,-0.3729371428489685,-0.24041009019947776,-0.40295959208987214,0.8824615344699446,-0.032986446235900066,0.13595096635816029,-2.669120540554195,0.8239344468899322
1773065133773452544,1.4844024181365967,0.3492390513420105,0.009577043354511261,0.06176694110035896,-0.45116668939590454,-0.13011877238750458,0.8829027414321899,0.007807433605194092,-0.06578879058361053,-0.06480300426483154,-0.23932827469154846,-0.40327576022162515,0.8825078003354451,-0.03564377026217695,0.13048877043914717,-2.669180775145366,0.8258122111099945
1773065133783490304,1.4944403171539307,0.15991121530532837,0.013068980537354946,0.06291689723730087,-0.45133551955223083,-0.12773731350898743,0.8831644058227539,0.04595533013343811,-0.18226021528244019,0.1039876937866211,-0.23888093045047698,-0.4032995593547572,0.8825710497795277,-0.03679240916871637,0.1280872711597938,-2.6691492426284387,0.8263809100632756
1773065133793528576,1.5044784545898438,0.14339828491210938,0.023860907182097435,0.07481003552675247,-0.4515734910964966,-0.12612150609493256,0.8832749724388123,0.08717834949493408,-0.18474580347537994,0.04517650604248047,-0.23864643992014598,-0.4031462793359797,0.8826723904081644,-0.037554899749761006,0.12645828007327184,-2.6689863488057077,0.8263894703884579
1773065133803566336,1.5145163536071777,0.21843765676021576,0.06848509609699249,0.012211905792355537,-0.4520365297794342,-0.12432017177343369,0.8832935094833374,0.10917156934738159,-0.10254750400781631,0.03145557641983032,-0.23847655417242244,-0.40315118857002313,0.8826754010393372,-0.03849888850632881,0.1246426552624628,-2.668579351601966,0.8268080715475216
1773065133813604608,1.5245544910430908,0.25807985663414,0.0856475755572319,-0.06413719058036804,-0.4526885449886322,-0.12229837477207184,0.8832416534423828,0.06482547521591187,-0.045105770230293274,0.03314000368118286,-0.23833515976150027,-0.40353471163363014,0.882485444503931,-0.03969167235112099,0.1226053113590505,-2.6679707258849863,0.828142975824649
1773065133823642368,1.5345923900604248,0.25181010365486145,0.11490493267774582,-0.12531119585037231,-0.45345744490623474,-0.12043187767267227,0.8831037282943726,0.030285537242889404,-0.024862289428710938,-0.00045925378799438477,-0.238269995076601,-0.4042599823200243,0.8821143503266703,-0.04093243123745848,0.12072491537655614,-2.6672180788193267,0.8302278284580181
1773065133833679360,1.5446293354034424,0.23211364448070526,0.16617371141910553,-0.12743745744228363,-0.4545632004737854,-0.11887254565954208,0.8827463984489441,0.02748510241508484,-0.047768644988536835,0.03908264636993408,-0.23843456948078304,-0.4050878250163968,0.8816331683788167,-0.04213846446696678,0.11915430012695215,-2.666063004113569,0.8325004007194154
1773065133843717632,1.5546674728393555,0.14798074960708618,0.21071109175682068,-0.11046354472637177,-0.4560810327529907,-0.11771593987941742,0.8821187019348145,0.04462772607803345,-0.10255996137857437,0.1132274866104126,-0.23889739295254445,-0.4058154887321814,0.8811203858799433,-0.04322938686906127,0.11798951163144038,-2.664414756728258,0.8344852969366273
1773065133853755392,1.5647053718566895,0.025314748287200928,0.25387638807296753,-0.0717635527253151,-0.4580305516719818,-0.11734011769294739,0.8811581134796143,0.07006052136421204,-0.14813232421875,0.12013900279998779,-0.23976211546007256,-0.4062758611663562,0.8806355473411928,-0.04399038808887987,0.11761107329258084,-2.662226716312936,0.8357217640397283
1773065133863793664,1.5747435092926025,-0.033775560557842255,0.287873238325119,-0.05455314368009567,-0.460379421710968,-0.11778781563043594,0.8798733949661255,0.09535861015319824,-0.13399749994277954,0.10323524475097656,-0.2410241952033135,-0.40646501495723464,0.8801834421082257,-0.04439301450240659,0.11806189229950599,-2.659531302868028,0.8361874447281173
1773065133873831424,1.5847814083099365,0.045479316264390945,0.30398350954055786,-0.07194145768880844,-0.46291375160217285,-0.11801755428314209,0.8785119652748108,0.0922929048538208,-0.0633026659488678,0.15594267845153809,-0.24232970067722184,-0.4066812315243781,0.8796967340246985,-0.044949765778133845,0.11829325030258801,-2.6566343598872195,0.8367746598016984
1773065133883869440,1.5948193073272705,0.08324818313121796,0.3130425214767456,-0.07317130267620087,-0.46555295586586,-0.11782032996416092,0.8771422505378723,0.050391942262649536,-0.01412239670753479,0.15195608139038086,-0.2435859575859911,-0.4070293742989804,0.8791463043830241,-0.04576766850141355,0.11809463324520056,-2.653640102928716,0.8377651299968066
1773065133893907456,1.6048574447631836,0.03542792424559593,0.39328914880752563,-0.010795274749398232,-0.4684809148311615,-0.11743105202913284,0.8756343722343445,0.008443713188171387,-0.024613015353679657,0.09606057405471802,-0.2449520822688969,-0.4072268711595442,0.8786258884498739,-0.04670422964337961,0.11770263499314594,-2.6503239640402945,0.8384772266674856
1773065133903944448,1.6148943901062012,-0.00327868084423244,0.4097026288509369,0.04845912754535675,-0.4719736576080322,-0.11698511242866516,0.873816728591919,-0.009471714496612549,-0.06810402125120163,0.1394890546798706,-0.24660572124665425,-0.4071253108493311,0.8781556534413707,-0.047721465635805226,0.11725360257804936,-2.646359619290669,0.8385610494459744
1773065133913982720,1.6249325275421143,-0.15012165904045105,0.5105831623077393,0.12164252996444702,-0.4759902060031891,-0.11735990643501282,0.8715851306915283,-0.09549739956855774,-0.10155799984931946,0.24328333139419556,-0.24873807060071873,-0.4065123352323617,0.8778042334169572,-0.0483423753303694,0.11763099449872345,-2.6417330759205018,0.8373312838514235
1773065133924020480,1.6349704265594482,-0.10197547823190689,0.5713573694229126,0.154482901096344,-0.4809476435184479,-0.11783301830291748,0.8687950372695923,-0.21016868948936462,-0.06168663501739502,0.18590772151947021,-0.25138695784778947,-0.4056097270000026,0.8774270709790254,-0.04906218222948899,0.11810741269165982,-2.6360049606576186,0.835481564289159
1773065133934058496,1.6450083255767822,-0.08867298811674118,0.6415489912033081,0.20796982944011688,-0.48636147379875183,-0.11783955246210098,0.8657750487327576,-0.22439298033714294,-0.018558785319328308,0.2324763536453247,-0.2541786217461141,-0.40453130393194225,0.8770643860753142,-0.0500572520475214,0.11811399405651281,-2.6297622539980994,0.8333740429843853
1773065133944096512,1.6550464630126953,0.03151125833392143,0.6365258693695068,0.24292634427547455,-0.492363303899765,-0.11701086908578873,0.8624889850616455,-0.21840640902519226,0.035116925835609436,0.1964406967163086,-0.2570970353527944,-0.4033217498113131,0.8766846938466855,-0.05154349533163193,0.11727953399914427,-2.6228727744670124,0.8312139431215938
1773065133954134528,1.6650843620300293,-0.07271900773048401,0.5865240097045898,0.2554889917373657,-0.49771082401275635,-0.11619041115045547,0.8595253229141235,-0.23219332098960876,0.09040305018424988,0.08564984798431396,-0.2597029559158174,-0.40201156504209046,0.8764413129150106,-0.05283683614869506,0.11645344505273847,-2.6167176782003545,0.828791669225777
1773065133964172544,1.6751224994659424,0.27389249205589294,0.6856465935707092,0.2281029224395752,-0.5035573244094849,-0.11435112357139587,0.8563609719276428,-0.2519358992576599,0.16856560111045837,-0.13706159591674805,-0.2623328148059597,-0.40089316839304545,0.8760508883514876,-0.05478206040271282,0.11460181181279837,-2.610028625212847,0.8271065826689442
1773065133974210560,1.6851603984832764,0.3901123106479645,0.560587465763092,0.2882770597934723,-0.5091428756713867,-0.10977868735790253,0.8536521792411804,-0.012280464172363281,0.07355431467294693,-0.060744524002075195,-0.2642064264304571,-0.4001139726197713,0.8756340054800538,-0.058041760647610505,0.11000038853063816,-2.6038030511576156,0.8268828452765052
1773065133984247552,1.695197343826294,0.0046025896444916725,0.6181465983390808,0.30701106786727905,-0.5143221616744995,-0.1066843792796135,0.8509352207183838,0.30202674865722656,-0.08763625472784042,0.033479273319244385,-0.2662467990104603,-0.3988581754117175,0.8754311875503378,-0.060373132547747864,0.10688779463111249,-2.5979295980282817,0.8252052092695672
1773065133994285568,1.705235481262207,-0.010950004681944847,0.6091272830963135,0.26525774598121643,-0.519944429397583,-0.10541266947984695,0.8476711511611938,0.32673752307891846,-0.11638911813497543,0.05297905206680298,-0.26894840607594783,-0.39738828136282844,0.8751674837823058,-0.06189742196780992,0.10560887161728338,-2.5913930535811733,0.8226344029825668
1773065134004323584,1.715273380279541,0.001356195891276002,0.6437388062477112,0.25864484906196594,-0.5253617167472839,-0.10401825606822968,0.84449702501297,0.2374284267425537,-0.13259978592395782,0.16752690076828003,-0.27151917295202094,-0.3960646461518603,0.87486072942579,-0.06347298122417003,0.10420674829139932,-2.585081324027924,0.8204296074435053
1773065134014361600,1.725311517715454,-0.03961893543601036,0.7472356557846069,0.2658558785915375,-0.531523585319519,-0.10274511575698853,0.8407890200614929,0.11927682161331177,-0.12087243795394897,0.1710517406463623,-0.2745176857473207,-0.3946854408274797,0.8744243401467615,-0.0651578118570328,0.10292675100601392,-2.577852324838721,0.818149007202077
1773065134024399616,1.735349416732788,-0.12406492233276367,0.825847864151001,0.25978946685791016,-0.5383756756782532,-0.10214695334434509,0.8364913463592529,0.026687443256378174,-0.1080734133720398,0.16253221035003662,-0.27805285033952787,-0.3931287149096633,0.8738967256405147,-0.06664069470801402,0.10232542245613316,-2.5697213837163657,0.8153634900420109
1773065134034437376,1.745387315750122,-0.10091859847307205,0.8387485146522522,0.2372189164161682,-0.5455561280250549,-0.10187656432390213,0.83185875415802,0.027337253093719482,-0.08527244627475739,0.1755262017250061,-0.2818468994606935,-0.39161528346334734,0.8732507384570877,-0.06806437929180204,0.10205362275905319,-2.561131444004213,0.8126358294470404
1773065134044475648,1.7554254531860352,-0.04836524277925491,0.8425154089927673,0.22804394364356995,-0.5527501702308655,-0.10121171176433563,0.827177882194519,0.045685410499572754,-0.04331951588392258,0.1590738296508789,-0.28557104574833886,-0.390217152917237,0.8725362534154698,-0.06971499849960293,0.10138531404857755,-2.552504275520184,0.8103011066967277
1773065134054512384,1.7654623985290527,-0.050836123526096344,0.8232863545417786,0.2225082963705063,-0.5598688721656799,-0.1002890020608902,0.8224890828132629,0.06553006172180176,0.0011984631419181824,0.10049951076507568,-0.2892134611116858,-0.3888786130700716,0.8717900996421268,-0.07149017708501985,0.10045788341218839,-2.543937045062809,0.8081903511612016
1773065134064550400,1.7755002975463867,-0.015774410218000412,0.8276641964912415,0.2133154571056366,-0.5668052434921265,-0.09937594830989838,0.817836344242096,0.048830389976501465,0.029826387763023376,0.016041159629821777,-0.29278006400139217,-0.3875566401365668,0.8710442076136727,-0.07322347600600006,0.09954024355500457,-2.535543239122484,0.8061202703674722
1773065134074588416,1.7855384349822998,0.07961975783109665,0.856475293636322,0.19779056310653687,-0.5739377737045288,-0.09797130525112152,0.813016951084137,0.01850271224975586,0.04160536080598831,0.08860945701599121,-0.2963459986695935,-0.3864113473591865,0.8701693774946591,-0.07530235360886961,0.0981287173744383,-2.526894010890125,0.8046446973202437
1773065134084626432,1.7955763339996338,0.007059222552925348,0.845815896987915,0.2528347671031952,-0.5810346603393555,-0.0963217169046402,0.8081588745117188,0.004588186740875244,0.01580110192298889,0.07105255126953125,-0.29986768212868015,-0.3851634907414091,0.8693264680495055,-0.07745907721270756,0.09647128312972504,-2.518254250251335,0.8030330371404301
1773065134094664448,1.8056144714355469,-0.03225808963179588,0.8876885175704956,0.2576305866241455,-0.5882588624954224,-0.09494393318891525,0.8030796647071838,0.055635690689086914,-0.008281759917736053,0.05002385377883911,-0.30355974748186354,-0.3836868327119202,0.8685184256920871,-0.07944553352586095,0.09508716143412277,-2.50938350170711,0.8008591218924328
1773065134104702464,1.8156523704528809,-0.03117520362138748,0.8835245370864868,0.2818257808685303,-0.5956231951713562,-0.09357501566410065,0.7977948188781738,0.08846688270568848,-0.042823292315006256,0.1401628851890564,-0.307359812080688,-0.38213086308859767,0.8676827811997138,-0.08144008856754592,0.09371211791895867,-2.5002794926730667,0.7985465683540254
1773065134114740736,1.825690507888794,-0.06952019780874252,0.8819798827171326,0.3499414622783661,-0.6029257774353027,-0.0920138731598854,0.792473316192627,0.12109905481338501,-0.0738949403166771,0.08228254318237305,-0.31113283321384216,-0.380324757709213,0.8669427479936517,-0.08342486461090376,0.09214421331850639,-2.4912056264303937,0.7957414263917586
1773065134124778496,1.835728406906128,-0.07387913018465042,0.868972897529602,0.34932827949523926,-0.6101965308189392,-0.09051191061735153,0.7870627641677856,0.1604437232017517,-0.06241166591644287,0.053788065910339355,-0.3149514997649454,-0.37827928857781123,0.8662771850552657,-0.08528872125012413,0.09063595471051097,-2.4821056997662603,0.7923932268517808
1773065134134815488,1.8457653522491455,-0.04497051239013672,0.8774529099464417,0.31660255789756775,-0.6173507571220398,-0.089014932513237,0.781636118888855,0.15104204416275024,-0.022572621703147888,0.06414347887039185,-0.3187233962741719,-0.37635165630218814,0.8655504011791895,-0.0871637413634501,0.08913290870051427,-2.4730907817583896,0.7893319212658597
1773065134144853504,1.8558034896850586,-0.01712179370224476,0.8786330819129944,0.32119718194007874,-0.6244933009147644,-0.0872708410024643,0.7761392593383789,0.12939131259918213,-0.010919474065303802,0.061782002449035645,-0.32244877981511516,-0.3745504374118387,0.8647436604889952,-0.08920321047384928,0.08738200163523613,-2.4640440221086553,0.7866741634727978
1773065134154891520,1.8658413887023926,-0.07607698440551758,0.856178343296051,0.33479100465774536,-0.6314793229103088,-0.08548083901405334,0.7706664204597473,0.1430302858352661,-0.03306468576192856,0.06638491153717041,-0.3261112732793531,-0.37268758623422055,0.8639659520802053,-0.09120406322007385,0.08558528076341569,-2.455137551804193,0.7839024983927146
1773065134164929536,1.8758795261383057,-0.17797720432281494,0.8337552547454834,0.30947619676589966,-0.6382129192352295,-0.08443257212638855,0.7652162313461304,0.17509323358535767,-0.06052595376968384,0.047055065631866455,-0.3298381563430815,-0.3706828165264928,0.863251039155052,-0.09272974613819146,0.0845332153387817,-2.4464436556261275,0.7805480214788589
1773065134174967552,1.8859174251556396,-0.1836705058813095,0.796499490737915,0.24928851425647736,-0.6446762681007385,-0.08408541232347488,0.7598171830177307,0.18064123392105103,-0.052724890410900116,0.06800258159637451,-0.3335824842907518,-0.36877726907397745,0.8625032819974017,-0.09388362328820317,0.08418481092994892,-2.4379919484081247,0.7771669712172656
1773065134185005312,1.8959553241729736,-0.11747431755065918,0.7679404020309448,0.21401506662368774,-0.650789737701416,-0.08385679125785828,0.7546129822731018,0.1628442406654358,-0.03323914855718613,0.05799388885498047,-0.33714916316066984,-0.36714935107600155,0.8616889549425729,-0.0949944867151816,0.08395538490350957,-2.429934918362804,0.774354268741805
1773065134195043584,1.9059934616088867,-0.10432948917150497,0.711600124835968,0.2052849680185318,-0.6565523147583008,-0.08328269422054291,0.7496688365936279,0.1651124358177185,-0.02740459144115448,0.030680954456329346,-0.340440893812414,-0.365721215466369,0.8608614290847644,-0.09625836247676713,0.08337926861894346,-2.422315495239959,0.7720908164041034
1773065134205082112,1.916032075881958,-0.17750868201255798,0.6298564076423645,0.16055969893932343,-0.6616602540016174,-0.08308841288089752,0.7451862096786499,0.18952268362045288,-0.019740603864192963,-0.06690233945846558,-0.3434525327461568,-0.3643785524548125,0.8601286998541705,-0.09719769934554066,0.08318431282793391,-2.415495921661705,0.7698075966909503
1773065134215120128,1.926069974899292,-0.13941961526870728,0.5985440015792847,0.0891483724117279,-0.6662347912788391,-0.08355362713336945,0.7410467267036438,0.1997583508491516,0.008541405200958252,-0.12378281354904175,-0.3462905890403599,-0.3632836948831826,0.8593883367328753,-0.09777292675929948,0.08365114779539513,-2.409305079592033,0.7677912443008535
1773065134225158144,1.936108112335205,-0.107618048787117,0.5550763010978699,0.09484579414129257,-0.670526385307312,-0.0838906466960907,0.7371274828910828,0.17342549562454224,0.016141608357429504,-0.06773966550827026,-0.3489223668237855,-0.36243691138992357,0.8586053894622508,-0.09843523465212192,0.08398935555043359,-2.403472771920653,0.7663604271058417
1773065134235196160,1.946146011352539,-0.1430007964372635,0.5136801600456238,0.1349884271621704,-0.6745073199272156,-0.08403966575860977,0.7334696054458618,0.17403411865234375,-0.003393225371837616,-0.06830829381942749,-0.35136076548489487,-0.36145292597148765,0.8579548887376767,-0.09905012991170672,0.08413890687661016,-2.3980473745293907,0.7646358023022956
1773065134245234176,1.9561841487884521,-0.1521535962820053,0.47990044951438904,0.11962611228227615,-0.6782656311988831,-0.08430895209312439,0.7299638986587524,0.20573163032531738,0.0019878223538398743,-0.04312020540237427,-0.3537172750843466,-0.3603779220809208,0.8573853868728258,-0.09950883518460148,0.08440914971455858,-2.3928895527677447,0.7626240795434798
1773065134255272192,1.9662220478057861,-0.09888824820518494,0.42468008399009705,0.11052635312080383,-0.6816319823265076,-0.08448756486177444,0.726801335811615,0.2093571424484253,0.026809319853782654,0.0045372843742370605,-0.3558173438454284,-0.35945644518875636,0.856849893160027,-0.09996739805923008,0.08458840480194196,-2.388254167350847,0.760945319879322
1773065134265309952,1.9762599468231201,-0.05496637523174286,0.3812251687049866,0.13988544046878815,-0.6846456527709961,-0.08418039232492447,0.7239985466003418,0.21334749460220337,0.04090648144483566,-0.019408762454986572,-0.3576060662917282,-0.35859528940837776,0.8563928286408052,-0.1005912845038878,0.08428013250339121,-2.384123914671832,0.759536064323457
1773065134275347200,1.9862971305847168,-0.05383879318833351,0.3404468595981598,0.14437685906887054,-0.6873788833618164,-0.08356115967035294,0.7214762568473816,0.22076505422592163,0.04790136218070984,-0.028803527355194092,-0.3591724911289591,-0.3577021520536067,0.8560299605872147,-0.10127705272200276,0.08365871385536582,-2.38039195685291,0.7581289348389093
1773065134285385216,1.9963350296020508,-0.05584002658724785,0.2817721962928772,0.1415063738822937,-0.6897402405738831,-0.08299434185028076,0.7192846536636353,0.20695215463638306,0.046937815845012665,-0.030869126319885254,-0.3605352835719614,-0.3568298768998432,0.8557539097964136,-0.10184305200067953,0.08308991672875529,-2.3771593842513545,0.7566943569667044
1773065134295422976,2.0063729286193848,-0.06552141159772873,0.25212857127189636,0.1563124805688858,-0.6917576193809509,-0.08240501582622528,0.7174127101898193,0.19277989864349365,0.03623190522193909,-0.07504814863204956,-0.36169706342181746,-0.35594223612125564,0.8555766951974028,-0.10231783139615515,0.08249856823891347,-2.3743982851002032,0.755179021544135
1773065134305461248,2.016411066055298,-0.0635126382112503,0.2353356033563614,0.1567549705505371,-0.693631649017334,-0.08177000284194946,0.7156738042831421,0.1889013648033142,0.02757076919078827,-0.06789237260818481,-0.3627713573363715,-0.3550252508504359,0.8554495795266831,-0.10276232911482792,0.08186140066745862,-2.371833663843844,0.7535915971240968
1773065134315499008,2.026448965072632,-0.09140392392873764,0.19387151300907135,0.15882079303264618,-0.6953001618385315,-0.08119773864746094,0.714117705821991,0.17587590217590332,0.013708151876926422,-0.009207665920257568,-0.3637408977932604,-0.35411011811094717,0.8553741074346716,-0.10311916250699496,0.08128723091659754,-2.3695449608599044,0.7519524851580215
1773065134325537280,2.036487102508545,-0.1049770787358284,0.17058376967906952,0.17123004794120789,-0.6967239379882812,-0.08077375590801239,0.7127770781517029,0.16954809427261353,0.002877652645111084,-0.01816648244857788,-0.3646095496199373,-0.35311879064999185,0.8553921061552043,-0.10330187340387688,0.08086184456961296,-2.367583237538876,0.7500387824622159
1773065134335575040,2.046525001525879,-0.044961147010326385,0.14731945097446442,0.14406287670135498,-0.6979849934577942,-0.08021458983421326,0.7116055488586426,0.17335736751556396,0.018263913691043854,0.015506207942962646,-0.3653442787476356,-0.3522122848666013,0.8554234476821644,-0.10354105866758741,0.08030085948625934,-2.365856957425633,0.748349492115899
1773065134345612032,2.0565619468688965,-0.016856186091899872,0.10062919557094574,0.1158783808350563,-0.6989780068397522,-0.07949800044298172,0.7107106447219849,0.1620822548866272,0.03051730990409851,0.03533726930618286,-0.36585862524349866,-0.35154543942179034,0.8554362119383639,-0.10388492927921346,0.079581977637424,-2.36451715612646,0.747237363310944
1773065134355650304,2.0666000843048096,-0.03758489713072777,0.05572989210486412,0.10810301452875137,-0.6996135711669922,-0.0789073184132576,0.7101510763168335,0.1513652205467224,0.0214579775929451,-0.011146008968353271,-0.36617734386809353,-0.3509758462331463,0.855506574124475,-0.10410877639276736,0.0789894355985556,-2.3636690058206233,0.7462438544681278
1773065134365688064,2.0766379833221436,-0.058163147419691086,0.005157527979463339,0.09487482160329819,-0.699902355670929,-0.07849999517202377,0.7099112272262573,0.15401935577392578,0.0015194416046142578,0.00621408224105835,-0.36632611598774384,-0.35044074997484814,0.8556558356732832,-0.10416057206456274,0.07858084212275153,-2.363293806410194,0.7452008550449442
1773065134375726336,2.0866761207580566,-0.11432068794965744,-0.056289851665496826,0.055926363915205,-0.6997725963592529,-0.07859757542610168,0.7100288271903992,0.14584797620773315,-0.023514248430728912,0.01068955659866333,-0.3663283863687016,-0.34996056697786304,0.8558866902552036,-0.10387087817945821,0.07867872488751378,-2.3634693201940173,0.7440185005611859
1773065134385764096,2.0967140197753906,-0.18121644854545593,-0.11611110717058182,0.02316974848508835,-0.699181079864502,-0.07938981801271439,0.7105229496955872,0.1370168924331665,-0.03054974228143692,-0.02401489019393921,-0.3661956450090963,-0.3495627723270121,0.8561935230545705,-0.10314660469011297,0.07947345307854072,-2.364239875002325,0.7426805348008299
1773065134395802368,2.1067521572113037,-0.1976175308227539,-0.1744614988565445,-0.0031622564420104027,-0.6981473565101624,-0.08070331066846848,0.7113913893699646,0.1281093955039978,-0.022293560206890106,-0.03071194887161255,-0.36590263260390365,-0.3492419035286801,0.8565779530112171,-0.10207696578794762,0.08079116853867167,-2.3655902162641453,0.7412475763859905
1773065134405840128,2.1167900562286377,-0.16427795588970184,-0.20288115739822388,-0.020243771374225616,-0.6967594027519226,-0.08209110051393509,0.7125920057296753,0.11912268400192261,-0.009644746780395508,-0.016806483268737793,-0.3653980813140613,-0.3490668346106973,0.8569996177924458,-0.10093680163574256,0.0821835844111584,-2.3674279710603536,0.7400712556668975
1773065134415878144,2.1268279552459717,-0.09663765877485275,-0.22809970378875732,-0.036611028015613556,-0.6951934099197388,-0.0832524225115776,0.7139854431152344,0.11093437671661377,0.007004253566265106,0.024997711181640625,-0.364721447455522,-0.3490488372978344,0.857413336122736,-0.09992775015876985,0.08334889421681212,-2.369529156592904,0.7393244777061141
1773065134425915136,2.1368651390075684,-0.04377634823322296,-0.24629294872283936,-0.04839644581079483,-0.6934375762939453,-0.0840461328625679,0.7155983448028564,0.10923951864242554,0.024262182414531708,0.04001694917678833,-0.36383117566190976,-0.3492339564142496,0.8578081438884669,-0.0991353775108183,0.08414539623260703,-2.3719208019418256,0.739166370507486
1773065134435953152,2.1469030380249023,-0.0685994103550911,-0.26687705516815186,-0.051802363246679306,-0.6915373802185059,-0.08476869016885757,0.717349648475647,0.12000411748886108,0.014257818460464478,0.022686302661895752,-0.36283537800368226,-0.3494787554481163,0.8582187531609181,-0.09836526072790787,0.08487054035925577,-2.37451347533678,0.7391554164265013
1773065134445990912,2.1569409370422363,-0.11414141952991486,-0.28847023844718933,-0.0679837316274643,-0.6894935965538025,-0.08584662526845932,0.7191864252090454,0.13006055355072021,-0.011657051742076874,0.012930333614349365,-0.36183488805331293,-0.34971009375980994,0.8586594541372093,-0.09737736938465487,0.08595242197114537,-2.3772698417944067,0.7389595333724042
1773065134456029184,2.1669790744781494,-0.15078197419643402,-0.32592493295669556,-0.06992863863706589,-0.687210202217102,-0.087264783680439,0.7211982011795044,0.12248247861862183,-0.02978537231683731,-0.00830763578414917,-0.3607727903622452,-0.3499065765631568,0.8591649945435145,-0.09614495714740592,0.08737591770378005,-2.380322004667103,0.7385224888251438
1773065134466067200,2.1770169734954834,-0.16583780944347382,-0.3663620948791504,-0.08741015940904617,-0.6846296787261963,-0.08896167576313019,0.7234420776367188,0.11451548337936401,-0.0206880122423172,-0.049430787563323975,-0.3595982563062257,-0.3501080152496003,0.8597356651866038,-0.09470049667605782,0.08907943759236576,-2.383751714353984,0.7379551755650138
1773065134476105216,2.1870551109313965,-0.10588819533586502,-0.4007139205932617,-0.12114255130290985,-0.6817421913146973,-0.09069312363862991,0.7259494662284851,0.10375446081161499,0.0077615827322006226,-0.05009192228317261,-0.35823563867959707,-0.35048654820556574,0.8603103540121004,-0.09323404163766377,0.09081791342590494,-2.387588235964708,0.737751656500561
1773065134486143232,2.1970930099487305,-0.08269139379262924,-0.4357021749019623,-0.12765544652938843,-0.6785436272621155,-0.09219963848590851,0.7287509441375732,0.09527641534805298,0.014746017754077911,-0.03450655937194824,-0.3566282249836501,-0.35104890258877036,0.8608949673198903,-0.09187430799564728,0.09233076553168347,-2.3918558438433046,0.7380252182321893
1773065134496179968,2.207129955291748,-0.051301777362823486,-0.4537237584590912,-0.15780536830425262,-0.6751523613929749,-0.09367834031581879,0.7317062020301819,0.10548067092895508,0.016239970922470093,-0.014222562313079834,-0.3548956172459495,-0.35173780344735645,0.8614717771988539,-0.090532314453835,0.09381590043068871,-2.396371510514688,0.7385872750026884
1773065134506218240,2.217168092727661,-0.015009993687272072,-0.480487197637558,-0.1789170354604721,-0.6715471148490906,-0.0950496569275856,0.7348399758338928,0.10834527015686035,0.013445675373077393,0.04801207780838013,-0.353001123786916,-0.35263804933553383,0.8620129940439657,-0.08927568401165911,0.0951933610963591,-2.401168022387062,0.7396612139365832
1773065134516256000,2.227205991744995,-0.06024111807346344,-0.5103601217269897,-0.17819905281066895,-0.6677069664001465,-0.09646692872047424,0.7381476759910583,0.11254626512527466,-0.010939717292785645,0.0528375506401062,-0.3509857265982487,-0.353572066286607,0.8625894950800462,-0.08795062211697445,0.0966171798764011,-2.406257886732157,0.74077676807345
1773065134526294272,2.237244129180908,-0.1194538027048111,-0.5322834253311157,-0.22728310525417328,-0.6636273860931396,-0.09851507097482681,0.7415481805801392,0.11812561750411987,-0.027858249843120575,0.028013527393341064,-0.34897764799885134,-0.35450789918547276,0.863190734571593,-0.08625880200104588,0.09867512009000345,-2.4115904638236603,0.7416515427437144
1773065134536332032,2.247282028198242,-0.11984075605869293,-0.5751408934593201,-0.2664981484413147,-0.6592361927032471,-0.10109791159629822,0.745108962059021,0.09925371408462524,-0.029257960617542267,0.01831895112991333,-0.3469000000803184,-0.35561353784814287,0.8637670293566845,-0.08429747396153647,0.10127092895720356,-2.4172663280187843,0.7427077414588675
1773065134546370048,2.257319927215576,-0.14484761655330658,-0.6136186122894287,-0.2945972979068756,-0.6544755101203918,-0.1038961112499237,0.7489110827445984,0.08239293098449707,-0.029145292937755585,-0.026758253574371338,-0.3446584901687325,-0.3568438089858026,0.8643599023683385,-0.08218936484071077,0.10408394402114209,-2.4233844213134716,0.7439537838976282
1773065134556408064,2.2673580646514893,-0.12368826568126678,-0.6273946166038513,-0.3571597635746002,-0.64946448802948,-0.10707006603479385,0.7528160810470581,0.0744064450263977,-0.02026454359292984,-0.041374921798706055,-0.34235345272643103,-0.35826187806283394,0.8649025780988235,-0.079913230662867,0.10727570121568718,-2.4297639750609923,0.7455007576318365
1773065134566445056,2.277395009994507,-0.11441323161125183,-0.6377121210098267,-0.3783833980560303,-0.6442537307739258,-0.11037539690732956,0.7568051815032959,0.05450165271759033,-0.020789124071598053,-0.005554080009460449,-0.339958628139608,-0.3599276434851579,0.8653638945173188,-0.07762376991563993,0.1106007500173687,-2.436355468415203,0.7475833728271051
1773065134576483328,2.28743314743042,-0.14938026666641235,-0.5970461964607239,-0.3899915814399719,-0.6391205191612244,-0.11387170106172562,0.7606303691864014,0.05632627010345459,-0.024800211191177368,0.018239378929138184,-0.33766745162478723,-0.3616059060740556,0.8657692305348968,-0.07527028340504993,0.11411923727393622,-2.4427856099655294,0.7496728464942293
1773065134586521088,2.297471046447754,-0.14167946577072144,-0.6046945452690125,-0.4030056893825531,-0.6340598464012146,-0.11752913147211075,0.7643002867698669,0.060726165771484375,-0.021920926868915558,0.06203943490982056,-0.3354694425757061,-0.3633079560863354,0.8661163195970396,-0.07287029319585914,0.11780140410429504,-2.4490645700907816,0.7518054925591543
1773065134596559104,2.307508945465088,-0.19476772844791412,-0.6192151308059692,-0.40452608466148376,-0.628873884677887,-0.12136101722717285,0.7679769992828369,0.052931010723114014,-0.037849150598049164,0.052655696868896484,-0.33325946634701115,-0.36499728478390286,0.8664672485379613,-0.0703526783359366,0.12166092031477303,-2.455450621096746,0.7538724687202818
1773065134606597120,2.317547082901001,-0.2097216546535492,-0.6335304379463196,-0.41955429315567017,-0.62352454662323,-0.12556637823581696,0.7716544270515442,0.04820704460144043,-0.037077099084854126,0.010267078876495361,-0.3310624066693185,-0.36665550249511814,0.8668281018688939,-0.06760586517404153,0.12589870768068084,-2.4619709145224387,0.7557661244112422
1773065134616635136,2.327584981918335,-0.17894695699214935,-0.6610283851623535,-0.4555248022079468,-0.6179416179656982,-0.12981504201889038,0.7754330635070801,0.026907622814178467,-0.019217565655708313,-0.017971396446228027,-0.32875467945274783,-0.3684557270168217,0.867154496072341,-0.06483737617604551,0.13018244334179685,-2.4687456234262157,0.7579917672091077
1773065134626673152,2.337623119354248,-0.16573785245418549,-0.6892887353897095,-0.47774675488471985,-0.6120302677154541,-0.13402339816093445,0.7793951630592346,-0.0015867352485656738,-0.0005743801593780518,-0.055411338806152344,-0.32626621508799014,-0.3704207644939177,0.8674595243885307,-0.0620709992310529,0.1344279084151069,-2.4759024415694366,0.7606228592709019
1773065134636710144,2.3476600646972656,-0.15938115119934082,-0.7031204104423523,-0.5024904608726501,-0.60587078332901,-0.13833889365196228,0.7834428548812866,-0.023554205894470215,0.016939997673034668,-0.08311033248901367,-0.3236823801518346,-0.3724829228058477,0.8677429924034992,-0.05923033678712403,0.13878398944703327,-2.4833180275932905,0.7634675126313332
1773065134646748160,2.3576979637145996,-0.07717829197645187,-0.6957281827926636,-0.5209760665893555,-0.599651038646698,-0.14235863089561462,0.7874974608421326,-0.03751009702682495,0.02204310894012451,-0.030814290046691895,-0.3210128296450406,-0.3747277296712259,0.8679446254352084,-0.05658551461311519,0.14284390939609065,-2.4907948218117952,0.7668665687569546
1773065134656786176,2.3677361011505127,-0.08037648350000381,-0.7229866981506348,-0.4932944178581238,-0.5933093428611755,-0.1459367275238037,0.7916353940963745,-0.03747373819351196,-0.004408121109008789,0.014135479927062988,-0.31819932677449053,-0.3770352077410616,0.8681371690089753,-0.05414349771559176,0.14645977668214533,-2.4984289190358853,0.7705789057872926
1773065134666824192,2.3777740001678467,-0.1888202577829361,-0.758733332157135,-0.4616681933403015,-0.5867056846618652,-0.14982514083385468,0.7958193421363831,-0.012873053550720215,-0.028229638934135437,-0.030591249465942383,-0.3153555983746225,-0.37907474798760515,0.8684538073582199,-0.051391074465476756,0.15039141352872734,-2.506311511158093,0.7736032634516815
1773065134676862208,2.3878121376037598,-0.17785070836544037,-0.826352059841156,-0.5038633346557617,-0.579646646976471,-0.15419122576713562,0.8001468181610107,-0.0032085776329040527,-0.012816235423088074,-0.03530001640319824,-0.3124027003611016,-0.3810613983288534,0.8688300337764291,-0.04828216940216802,0.15480883367462664,-2.5146612382752616,0.7763806927448519
1773065134686900224,2.3978500366210938,-0.08520323783159256,-0.9072136282920837,-0.5331056118011475,-0.5718158483505249,-0.15826745331287384,0.8049711585044861,-0.04352539777755737,0.0010866224765777588,-0.04683798551559448,-0.3089813030789151,-0.3833322075184406,0.8692191807167372,-0.04522306453921695,0.15893574981127453,-2.5239502870363832,0.7799003788354304
1773065134696937984,2.4078879356384277,-0.013105079531669617,-0.9783046245574951,-0.5642364025115967,-0.5633065700531006,-0.16178183257579803,0.8102548122406006,-0.07644879817962646,0.003929600119590759,-0.05517345666885376,-0.3050891296742874,-0.3858476857061279,0.8696257638170732,-0.04234812048771695,0.1624960090283408,-2.5340809258456596,0.7841583082493759
1773065134706975232,2.4179251194000244,0.009836189448833466,-1.0736310482025146,-0.5996992588043213,-0.553963840007782,-0.165036141872406,0.8160188794136047,-0.08823269605636597,-0.004412665963172913,-0.022119462490081787,-0.30071934795167615,-0.388615322999043,0.870050319467717,-0.0394759636380482,0.16579465722860065,-2.5451948603405334,0.7890779165260752
1773065134717013248,2.4279630184173584,-0.0068860650062561035,-1.116332769393921,-0.6331679821014404,-0.543875515460968,-0.16843640804290771,0.8220881819725037,-0.09536105394363403,-0.03401726484298706,-0.02419072389602661,-0.2960257832303269,-0.3915250195160231,0.8704896613570808,-0.03639709397176155,0.16924320300691462,-2.5571212031758264,0.794307195660287
1773065134727051264,2.4380011558532715,0.03435462713241577,-1.1089650392532349,-0.6720945239067078,-0.5335443019866943,-0.171885684132576,0.8281220197677612,-0.09983283281326294,-0.055073559284210205,0.05542302131652832,-0.29125803772770864,-0.39459070175876365,0.8708382163219217,-0.03328387711016531,0.17274352219708436,-2.569247495572784,0.7999389388331855
1773065134737089280,2.4480390548706055,0.005635895766317844,-1.0988569259643555,-0.6772104501724243,-0.523139238357544,-0.17520636320114136,0.8340429663658142,-0.10585850477218628,-0.07972216606140137,0.11561805009841919,-0.2864671374920434,-0.3977850614285974,0.8710846793996605,-0.030248681690751723,0.17611537596979443,-2.5813892341339306,0.8059659746808631
1773065134747127040,2.4580769538879395,-0.17481963336467743,-1.0930869579315186,-0.6453566551208496,-0.512740433216095,-0.17932084202766418,0.8396078944206238,-0.08607548475265503,-0.10745285451412201,0.052237868309020996,-0.28192269092183336,-0.40071537877745383,0.8713387063367083,-0.0267523249742063,0.18029606096484577,-2.5933496672749192,0.8112610867126405
1773065134757165312,2.4681150913238525,-0.2676691710948944,-1.0861411094665527,-0.628004252910614,-0.5023623704910278,-0.18451239168643951,0.8447407484054565,-0.06076318025588989,-0.1001097559928894,0.002808511257171631,-0.27769876364899093,-0.4033030923392723,0.8716174511229241,-0.022648208195905732,0.18557571406438408,-2.6050836553089955,0.8155937573416734
1773065134767203072,2.4781529903411865,-0.16584691405296326,-1.0652055740356445,-0.6157348155975342,-0.492024302482605,-0.18956299126148224,0.8496931791305542,-0.08298802375793457,-0.06365667283535004,-0.025428473949432373,-0.27350997404041466,-0.4058199406955329,0.8718696904903229,-0.01859716757625357,0.1907170468539416,-2.616711654204816,0.8198926607103567
1773065134777241344,2.4881911277770996,-0.06639834493398666,-1.0597835779190063,-0.581902801990509,-0.4817732870578766,-0.1934363842010498,0.8546792268753052,-0.12012481689453125,-0.009642794728279114,-0.0376628041267395,-0.2691309564692121,-0.40839163587636035,0.8720985488861821,-0.015127464872036474,0.1946634810122391,-2.6283004162642234,0.8246753335781911
1773065134787278080,2.498228073120117,-0.04016586020588875,-1.058510661125183,-0.5383338332176208,-0.47154900431632996,-0.19658607244491577,0.8596487045288086,-0.1269160807132721,0.030982375144958496,-0.09495431184768677,-0.26463738887921257,-0.41082149769149806,0.8723818177155824,-0.01195083826130125,0.1978748230992467,-2.6398734428835344,0.8293652848952081
1773065134797316096,2.508265972137451,0.050769638270139694,-1.030208706855774,-0.5431495904922485,-0.46142956614494324,-0.19902117550373077,0.8645656704902649,-0.11103448271751404,0.048096463084220886,-0.056902527809143066,-0.26006551365940483,-0.41324735320304185,0.8726450858262734,-0.009122605933424078,0.20035901428192232,-2.651340102335472,0.834262102328556
1773065134807354112,2.5183041095733643,-0.031305696815252304,-1.0028380155563354,-0.5234786868095398,-0.4514842927455902,-0.20132224261760712,0.8692704439163208,-0.11222109198570251,0.011075690388679504,-0.04596734046936035,-0.2555854364882226,-0.415663481067035,0.8728454023513906,-0.006388770197588631,0.20270761991473502,-2.6625591506688937,0.8392188749855075
1773065134817392128,2.5283420085906982,-0.12372803688049316,-0.9362017512321472,-0.5162090063095093,-0.44193994998931885,-0.20432253181934357,0.8734651803970337,-0.10742229223251343,-0.03891785442829132,-0.07234823703765869,-0.2515076794033591,-0.417865373276021,0.8729954924308909,-0.003362087451478168,0.20577158325045297,-2.6731870638737805,0.8435985512908618
1773065134827430144,2.5383801460266113,-0.16904935240745544,-0.9152581095695496,-0.4948995113372803,-0.4327484965324402,-0.20786841213703156,0.8772227168083191,-0.1153777539730072,-0.08015649020671844,-0.059824585914611816,-0.24776740626216004,-0.41990715612653473,0.873091818773448,-0.00012037533629925595,0.20939526930052924,-2.683306072759123,0.8475630540903659
1773065134837468160,2.5484180450439453,-0.13103778660297394,-0.8673161864280701,-0.46805670857429504,-0.4238538444042206,-0.21130067110061646,0.8807386159896851,-0.1275072991847992,-0.09242558479309082,-0.04504501819610596,-0.24417536895939737,-0.4218156339190006,0.8731786081658373,0.003038726427612241,0.21290549298772815,-2.6930587271586632,0.8513022631945426
1773065134847505920,2.5584559440612793,-0.03979390487074852,-0.8588533997535706,-0.4505046010017395,-0.41525667905807495,-0.21398739516735077,0.8841782212257385,-0.13695880770683289,-0.04919618368148804,-0.0014420747756958008,-0.2405770601044195,-0.4237201966482829,0.873241270990591,0.005790309444219814,0.21565509291471346,-2.702516272731197,0.8552208465382704
1773065134857543168,2.568493127822876,-0.008450095541775227,-0.8871647119522095,-0.42380213737487793,-0.406541645526886,-0.2160215526819229,0.8877264857292175,-0.14620792865753174,0.0104246586561203,-0.07124412059783936,-0.2367868542096616,-0.4255864108097476,0.8733495510767034,0.008287071720009576,0.21773796816974939,-2.712140388806974,0.8592124091969369
1773065134867581184,2.57853102684021,-0.0012677721679210663,-0.9126405715942383,-0.41861602663993835,-0.39754530787467957,-0.21775470674037933,0.8913697600364685,-0.14496558904647827,0.050579458475112915,-0.12583661079406738,-0.23280814667865346,-0.4273745886997583,0.8735192316840208,0.010739390552653624,0.21951337404670632,-2.722075361926126,0.8631188651428732
1773065134877618944,2.588568925857544,0.08721522241830826,-0.8818408846855164,-0.4197950065135956,-0.38855016231536865,-0.2189899981021881,0.8950265049934387,-0.16090363264083862,0.05065499246120453,-0.1006690263748169,-0.22873355103707163,-0.42922539478944804,0.8736582891154623,0.01295329075211346,0.22077922164301386,-2.7320215265324346,0.8672872484185209
1773065134887657216,2.598607063293457,0.004696732386946678,-0.8713749647140503,-0.4038754403591156,-0.3797439932823181,-0.22005289793014526,0.8985384702682495,-0.16763454675674438,0.0005704760551452637,-0.03943812847137451,-0.2247309239041294,-0.4310353392353352,0.8737721447442724,0.015060536427861468,0.2218686937719446,-2.7417361418471753,0.8714169444574656
1773065134897694976,2.608644962310791,-0.13979466259479523,-0.8682600855827332,-0.40940842032432556,-0.3709598779678345,-0.22223535180091858,0.9016653895378113,-0.13613545894622803,-0.05147680640220642,-0.043114304542541504,-0.22102784351102336,-0.4326660100379178,0.8738608745619761,0.01772186428627566,0.22410656493501524,-2.7512835187511353,0.8749938283172222
1773065134907733248,2.618683099746704,-0.18536721169948578,-0.8731741905212402,-0.4106888771057129,-0.36213359236717224,-0.22527511417865753,0.9044947624206543,-0.11360499262809753,-0.07216449081897736,-0.07307374477386475,-0.21753085540979977,-0.43419924551029093,0.873909837119988,0.020809721766706337,0.22722539283261148,-2.760766394791417,0.8782640750527135
1773065134917771008,2.628720998764038,-0.08961459249258041,-0.8691802620887756,-0.438957542181015,-0.353270560503006,-0.22810642421245575,0.9072858691215515,-0.1159677505493164,-0.06513701379299164,-0.03329288959503174,-0.21398780479081472,-0.4357987450685989,0.873912111971333,0.023798269775676766,0.23013239076675493,-2.7702828876754952,0.881767381357502
1773065134927808000,2.6387579441070557,-0.017770536243915558,-0.8678416013717651,-0.4478537142276764,-0.3443072438240051,-0.23012591898441315,0.9102166295051575,-0.1307750940322876,-0.03975622355937958,-0.05761665105819702,-0.2102251619524652,-0.4375906731086608,0.8738550889939378,0.026400703846531023,0.23220707271385038,-2.7799585973455834,0.8858729978473481
1773065134937846272,2.6487960815429688,0.06174905225634575,-0.8475102186203003,-0.45400428771972656,-0.33541741967201233,-0.2314709573984146,0.9131898880004883,-0.1295483112335205,-0.014622718095779419,-0.09718066453933716,-0.2063559871563546,-0.4394453540369406,0.8737749794843707,0.028672481706670014,0.23358942910466943,-2.7895870146790944,0.8902472856977506
1773065134947884032,2.6588339805603027,0.03495161607861519,-0.8511912822723389,-0.4774115979671478,-0.3265605568885803,-0.23247478902339935,0.9161404371261597,-0.1111224889755249,-0.009178608655929565,-0.016726553440093994,-0.20244388440812355,-0.44143209257413873,0.8736177270146492,0.030759636238412255,0.2346214073319406,-2.7991811122227888,0.8949973498098128
1773065134957922304,2.668872117996216,-0.10146348178386688,-0.8478822708129883,-0.46701860427856445,-0.31759920716285706,-0.23430679738521576,0.9188206195831299,-0.09064969420433044,-0.04146532714366913,-0.06541168689727783,-0.19870253179533118,-0.44333846277892175,0.8734193194009607,0.03327259275784642,0.23650545803988562,-2.8087897238961514,0.8994984817590327
1773065134967960064,2.67891001701355,-0.1400764286518097,-0.8508246541023254,-0.4863854944705963,-0.30865877866744995,-0.23697209358215332,0.9211808443069458,-0.06615814566612244,-0.06496885418891907,-0.02548980712890625,-0.19519246200594612,-0.4451403543079137,0.8731783763158936,0.03618734442422653,0.23924798307612904,-2.8182811628268354,0.9037043986606185
1773065134977998336,2.688948154449463,-0.1933140903711319,-0.8700073957443237,-0.49015572667121887,-0.29952406883239746,-0.23996572196483612,0.9234184622764587,-0.06522202491760254,-0.07653208076953888,-0.024904727935791016,-0.1916939516046793,-0.44697380792085845,0.8728823740915899,0.03929588928368818,0.24233054867048065,-2.827935734648433,0.9080053653130187
1773065134988036096,2.698986053466797,-0.08088426291942596,-0.9094966053962708,-0.5049065947532654,-0.2900826334953308,-0.24281269311904907,0.9256855249404907,-0.053606271743774414,-0.057159796357154846,-0.04154568910598755,-0.1880366996076191,-0.4488072674514674,0.8725908563249477,0.042418628189283644,0.24526426417368874,-2.8379148357009876,0.9123909614319052
1773065134998073088,2.7090229988098145,-0.07037995755672455,-0.955268383026123,-0.5269972681999207,-0.28013142943382263,-0.24481797218322754,0.9282192587852478,-0.024922341108322144,-0.02039511501789093,-0.00039315223693847656,-0.18396374628641105,-0.45082794964000217,0.8722750670454545,0.04525290858984425,0.24733193955959284,-2.8484903853705728,0.9173681379931526
1773065135008111360,2.7190611362457275,-0.17824086546897888,-1.0030629634857178,-0.5017785429954529,-0.26979145407676697,-0.24747851490974426,0.9305735230445862,-0.012953907251358032,-0.0028266608715057373,-0.1862344741821289,-0.17988927816013026,-0.4527292433467105,0.8719650177944618,0.04850896838550405,0.2500769543403478,-2.859409440267973,0.9220855436621509
1773065135018149120,2.7290990352630615,-0.10794752091169357,-1.041304349899292,-0.5189687609672546,-0.25886431336402893,-0.25022807717323303,0.9329389929771423,-0.001435399055480957,0.022856861352920532,-0.1783308982849121,-0.1755842603390603,-0.45456327523047096,0.8716890001069902,0.05196793728199376,0.2529158135309528,-2.870929835187904,0.9267386791137735
1773065135028187136,2.7391369342803955,-0.06635347008705139,-1.0352476835250854,-0.5705613493919373,-0.24774019420146942,-0.2523896396160126,0.9353740215301514,-0.03767547011375427,0.021066367626190186,-0.15783178806304932,-0.1710789444510193,-0.45659148845697867,0.8713272788033075,0.05518205562971254,0.2551490546259241,-2.882680714996011,0.9319597576269525
1773065135038225152,2.7491750717163086,-0.14324505627155304,-1.0631523132324219,-0.5966693758964539,-0.23634614050388336,-0.25473231077194214,0.9376845955848694,-0.07383452355861664,0.020494580268859863,-0.14740121364593506,-0.1665312014838358,-0.4587727687524054,0.8708443228509667,0.058525004856497254,0.2575708579893188,-2.8946827553694034,0.9375996333091002
1773065135048263168,2.7592129707336426,-0.21569399535655975,-1.0915799140930176,-0.575616717338562,-0.2246994823217392,-0.25793829560279846,0.9396691918373108,-0.0562606155872345,0.026309847831726074,-0.18355035781860352,-0.16210569687089402,-0.4608554615796656,0.8703142233302446,0.062347429911196336,0.2608876862548456,-2.9068740938513393,0.9430474413004456
1773065135058301184,2.7692511081695557,0.06622183322906494,-1.1184431314468384,-0.6095262169837952,-0.2127416878938675,-0.26002591848373413,0.9418747425079346,-0.028255656361579895,0.03926166892051697,-0.14809703826904297,-0.15728972762883087,-0.4630016557997257,0.8698085133722732,0.06574728672226622,0.26304903386496004,-2.9194498532008106,0.9488035421793781
1773065135068339200,2.7792890071868896,0.0719074159860611,-1.1349318027496338,-0.6545789241790771,-0.20036377012729645,-0.26039421558380127,0.9444834589958191,-0.02818235754966736,0.026812702417373657,-0.12021905183792114,-0.15190216962232714,-0.465477998542396,0.8692364223201414,0.06843935872587638,0.2634304678124141,-2.9325506717486305,0.9554947977211701
1773065135078375936,2.7893259525299072,-0.10873080044984818,-1.1814948320388794,-0.6645889282226562,-0.18766742944717407,-0.26195287704467773,0.9466580152511597,-0.026703283190727234,0.007085353136062622,-0.24302959442138672,-0.14669848831713217,-0.4679210863819728,0.8685498682014627,0.07176688815980337,0.26504518392853516,-2.9458880047040346,0.9621414842436542
1773065135088414208,2.7993640899658203,-0.03138408437371254,-1.2397515773773193,-0.71734219789505,-0.17433810234069824,-0.2639297544956207,0.948655366897583,-0.01123926043510437,0.017912358045578003,-0.14526504278182983,-0.14135294338001556,-0.4704445857054932,0.8677612398507379,0.07544257644342073,0.26709415029142725,-2.9598466588165824,0.9690877994227644
1773065135098451968,2.8094019889831543,-0.09809760004281998,-1.2960907220840454,-0.7205238342285156,-0.16032829880714417,-0.2656208574771881,0.9506529569625854,-0.022151604294776917,-0.015140950679779053,-0.1625819206237793,-0.13566943517428864,-0.4730513454886373,0.8669192081580804,0.07916748699376458,0.26884784659235056,-2.9745141723117228,0.9763774993676413
1773065135108490240,2.8194401264190674,-0.1936596781015396,-1.3744702339172363,-0.7598945498466492,-0.14560475945472717,-0.26821470260620117,0.9522924423217773,-0.009790793061256409,-0.01666700839996338,-0.1737581491470337,-0.1299277473914209,-0.4756040667388436,0.8659947961944331,0.08350302117432593,0.2715393426102431,-2.9898685129762845,0.9836911177681334
1773065135118528000,2.8294780254364014,-0.17610758543014526,-1.4117918014526367,-0.799651026725769,-0.13009876012802124,-0.27121350169181824,0.9536865949630737,-0.0008216649293899536,0.018619447946548462,-0.14303267002105713,-0.12398916678499497,-0.47825284294641024,0.8649378635135735,0.08822434375930131,0.2746535555734724,-3.006012857761393,0.9914200139723567
1773065135128566016,2.8395159244537354,0.05970374867320061,-1.4353731870651245,-0.8626524806022644,-0.11425354331731796,-0.2728058695793152,0.9552608132362366,-0.01230284571647644,0.038659751415252686,-0.0589900016784668,-0.11760824955255256,-0.48116778173387237,0.8637754118304457,0.09240091521026031,0.276308334502325,-3.0225535776483,0.9999121547369045
1773065135138603264,2.849553108215332,0.020926523953676224,-1.4818365573883057,-0.9054590463638306,-0.0977981686592102,-0.2730906307697296,0.9570045471191406,-0.00941012054681778,0.011203944683074951,0.015499472618103027,-0.1106931739787349,-0.484371156913723,0.8624887558908289,0.09615050858596332,0.276604321782631,-3.03975421834846,1.0092197348927878
1773065135148641024,2.859591007232666,-0.13190177083015442,-1.549690842628479,-0.8601910471916199,-0.08079633116722107,-0.274558961391449,0.9581699967384338,0.024827077984809875,-0.0247575044631958,-0.07029139995574951,-0.10387141896832232,-0.4874113065770794,0.8611127782203397,0.100627214708399,0.27813101517993166,-3.0574680815738824,1.0183447004523238
1773065135158679296,2.869629144668579,-0.1019771620631218,-1.5908913612365723,-0.8587609529495239,-0.0633169561624527,-0.27640700340270996,0.9589526653289795,0.057778023183345795,-0.01840806007385254,-0.05612063407897949,-0.09695892363912433,-0.4902253706890167,0.8597414837824646,0.1054640010577897,0.28005343490470563,-3.0756611536517906,1.0271440336707867
1773065135168717056,2.879667043685913,0.013533055782318115,-1.600311040878296,-0.8982189893722534,-0.0455063171684742,-0.2772901952266693,0.9597078561782837,0.0241897813975811,-0.0104752779006958,-0.10149264335632324,-0.08970490911578725,-0.4931192175539724,0.8583049410038379,0.10999572964897182,0.28097254322908083,-3.094211299570089,1.036255386662673
1773065135178755072,2.889704942703247,-0.10143560916185379,-1.6418979167938232,-0.9373906254768372,-0.02736997790634632,-0.27790355682373047,0.9602192044258118,-0.027637962251901627,0.012095391750335693,-0.08936941623687744,-0.08230250314062502,-0.49615410149723177,0.8567033939078535,0.1145286197562001,0.2816110144627647,-3.1130964831519092,1.0458458124748709
1773065135188793088,2.89974308013916,-0.26633402705192566,-1.676836609840393,-0.9499375820159912,-0.008672229945659637,-0.27998295426368713,0.9599655866622925,-0.03644801676273346,0.02922007441520691,-0.13593018054962158,-0.075088540256906,-0.4991634285635344,0.8548793294393259,0.11991168147634386,0.28377634061459284,-3.1325590028563655,1.0557026745816758
1773065135198831104,2.909780979156494,-0.12850823998451233,-1.6980953216552734,-0.9280815124511719,0.010249866172671318,-0.28205108642578125,0.9593449234962463,-0.04221701622009277,0.04209128022193909,-0.11686110496520996,-0.06781222356600787,-0.5020742535226776,0.8529911597876642,0.12541603151225375,0.2859313138293874,3.130908825668211,1.0655343853452606
1773065135208868608,2.91981840133667,0.013917838223278522,-1.728482961654663,-0.9071588516235352,0.02932315319776535,-0.28226152062416077,0.9588896036148071,-0.03933291882276535,0.04060807824134827,-0.05994826555252075,-0.06000840420742009,-0.5048850275560358,0.8511967433660331,0.13020892096327094,0.2861506593599054,3.1110218577736344,1.0751354882781967
1773065135218905344,2.9298553466796875,-0.04184289649128914,-1.7164047956466675,-0.8763548731803894,0.0484548956155777,-0.2820238173007965,0.9581829309463501,-0.016289371997117996,0.054759442806243896,-0.04550904035568237,-0.05208059574744121,-0.5075495039205163,0.8494027088965096,0.13489294392365422,0.2859029103715748,3.0910661275690963,1.0844868521647393
1773065135228943360,2.9398932456970215,0.007447955198585987,-1.7377907037734985,-0.8636528849601746,0.06747523695230484,-0.281780481338501,0.9571031332015991,-0.0014047026634216309,0.09316664934158325,0.015125632286071777,-0.04421316917364279,-0.5100456684432565,0.847587739534054,0.1396191817746455,0.2856492832266585,3.0712096609089827,1.0935527506856475
1773065135238981376,2.9499313831329346,0.07098884880542755,-1.792083740234375,-0.843004584312439,0.08681216090917587,-0.2806198000907898,0.9558852314949036,-0.004536762833595276,0.07389369606971741,0.04347407817840576,-0.03598207559973869,-0.5124406073182401,0.845782030329136,0.14409294051006943,0.2844397876628762,3.051022513262963,1.1024377191025796
1773065135249019392,2.9599692821502686,-0.09033230692148209,-1.82103431224823,-0.7960528135299683,0.10638901591300964,-0.2798897624015808,0.9541189670562744,-0.01727769523859024,0.026380270719528198,-0.1277335286140442,-0.02775607668820742,-0.5145828285578634,0.8439573476735335,0.14889624788904826,0.2836792838368453,3.0305463869422455,1.1109539621055895
1773065135259057408,2.9700071811676025,-0.0890638455748558,-1.8561197519302368,-0.8038633465766907,0.1262521594762802,-0.2799728214740753,0.9516701698303223,-0.044114068150520325,0.05182334780693054,-0.12764954566955566,-0.019627212774791403,-0.5165324917912123,0.84203875477594,0.15420705675495208,0.28376579926078993,3.009699034602763,1.1193401325431274
1773065135269095424,2.9800453186035156,0.029960455372929573,-1.8786470890045166,-0.8358303308486938,0.14640308916568756,-0.27913111448287964,0.9490271210670471,-0.08852648735046387,0.08145347237586975,-0.09523665904998779,-0.01116250250896432,-0.5185307219088164,0.8400234865537671,0.15925441653657638,0.2828891258390943,2.9885327321548565,1.1278958806296169
1773065135279133440,2.9900832176208496,0.06585853546857834,-1.9322062730789185,-0.8317290544509888,0.16683369874954224,-0.27721133828163147,0.9462139010429382,-0.10344867408275604,0.07074463367462158,-0.021622657775878906,-0.0023058906217214258,-0.5205005177185478,0.837965495326152,0.16397507078721976,0.28089047773372544,2.967069300453229,1.1363840213820873
1773065135289170432,3.0001204013824463,0.011488947086036205,-1.9588271379470825,-0.8150193095207214,0.187539741396904,-0.2754945755004883,0.9428320527076721,-0.052529916167259216,0.055462777614593506,0.03397488594055176,0.006615516784330741,-0.5223215445067456,0.8358206995975024,0.16893900759535027,0.2791041592329523,2.94524435918863,1.144751834627711
1773065135299208448,3.0101583003997803,0.08666598796844482,-1.985242486000061,-0.774845540523529,0.20841039717197418,-0.2735002636909485,0.9390225410461426,-0.0176449716091156,0.056917011737823486,0.009967565536499023,0.01569765318123208,-0.523961542893565,0.8336519456600162,0.173903634421202,0.2770301808630752,2.9231888780386863,1.152810415108687
1773065135309246208,3.0201961994171143,0.15262357890605927,-1.9913043975830078,-0.742752730846405,0.22920623421669006,-0.27058130502700806,0.9350135922431946,-0.019184261560440063,0.03526026010513306,0.019866228103637695,0.025037205064236186,-0.5253609935175013,0.8315663732646594,0.1785115825862451,0.27399682208696363,2.9011963361070454,1.160208631188158
1773065135319284480,3.0302343368530273,0.049334194511175156,-2.014784336090088,-0.6955894827842712,0.24987690150737762,-0.2679082751274109,0.9304764866828918,-0.0287008136510849,0.032709360122680664,-0.023906171321868896,0.034295048963058274,-0.5265193297838986,0.829467084710554,0.18326362201370094,0.2712212806043315,2.8792353513744002,1.167186630015803
1773065135329322240,3.0402722358703613,0.062209781259298325,-2.0139718055725098,-0.7058660984039307,0.27056360244750977,-0.26563188433647156,0.9253297448158264,-0.042490482330322266,0.06336137652397156,-0.01634836196899414,0.04347134347915137,-0.5275389174456997,0.8272651076670374,0.18826946828870827,0.26885928238721996,2.857125645619222,1.1740753767757104
1773065135339360512,3.0503103733062744,0.05256061628460884,-2.0254199504852295,-0.6919878125190735,0.29108577966690063,-0.2630588412284851,0.919820249080658,-0.06652218103408813,0.05412024259567261,0.051584839820861816,0.05266784698723058,-0.5285035488820643,0.8249812950714254,0.19317354243611135,0.2661913348388817,2.8351047124272974,1.1808659778045347
1773065135349398272,3.0603482723236084,-0.007078700698912144,-2.047955274581909,-0.6676375865936279,0.31161215901374817,-0.2607945203781128,0.9137201905250549,-0.056866616010665894,0.022711575031280518,0.033072590827941895,0.061813016345097636,-0.5293144300899284,0.8226094703375744,0.198290666873819,0.26384510979981207,2.812925123981541,1.1875265384455962
1773065135359435264,3.070385217666626,-0.15403592586517334,-2.048018455505371,-0.5893864631652832,0.3319845497608185,-0.25947681069374084,0.9068945050239563,-0.027556508779525757,0.022202670574188232,0.0015067458152770996,0.07068484706834863,-0.5298858611139409,0.8201635382535781,0.20385361186032916,0.2624804049267272,2.7906761636630053,1.1940130790988002
1773065135369473536,3.080423355102539,0.09317439794540405,-2.076447010040283,-0.5764786601066589,0.3522682189941406,-0.258053183555603,0.899619996547699,-0.030887573957443237,0.05695757269859314,0.02938103675842285,0.07964198346725919,-0.5301061644972113,0.8178003820800916,0.20939743640080866,0.26100660473591564,2.7683706999924094,1.1997830527324103
1773065135379511296,3.090461254119873,0.20471903681755066,-2.0451059341430664,-0.632361114025116,0.3724072575569153,-0.2540789842605591,0.8926124572753906,-0.06111270189285278,0.10757935047149658,0.19892513751983643,0.08926629181394248,-0.5303493211909781,0.8154972849833301,0.2138349278928987,0.25689530516694725,2.746338268387334,1.2049406338953395
1773065135389549568,3.100499391555786,0.07916546612977982,-2.0975637435913086,-0.5434772968292236,0.3923366665840149,-0.2506900727748871,0.8850007653236389,-0.05932891368865967,0.09035074710845947,-0.004934847354888916,0.09868357085279048,-0.5304692743275492,0.8130822401832465,0.21854325257769971,0.25339302236087236,2.72430943967479,1.2100708553579853
1773065135399587328,3.11053729057312,0.06485363841056824,-2.165910482406616,-0.4865330457687378,0.412534236907959,-0.24786654114723206,0.8765717148780823,0.005556643009185791,0.06013762950897217,0.081207275390625,0.10819467421029365,-0.5301462205602769,0.8106977514956187,0.22362497746250992,0.2504774492834183,2.701722151657085,1.2145518946535319
1773065135409625344,3.120575189590454,-0.08917716145515442,-2.197235584259033,-0.4311988353729248,0.4327250123023987,-0.24621012806892395,0.8672540783882141,0.02572527527809143,-0.009817078709602356,-0.02234441041946411,0.11747872506296031,-0.5295303559045751,0.8082231372879433,0.22928521326097265,0.24876805665224544,2.678777468757722,1.21891795895814
1773065135419663360,3.130613327026367,0.11087896674871445,-2.262566089630127,-0.4724559783935547,0.45318716764450073,-0.24411608278751373,0.8573382496833801,-0.028474032878875732,-0.003823980689048767,0.09328436851501465,0.12708752064456952,-0.528741047964789,0.805668681433526,0.23490354246912099,0.24660808827286074,2.655329359659104,1.2230099628400548
1773065135429700352,3.1406502723693848,-0.003962403163313866,-2.2868824005126953,-0.47016724944114685,0.4737948775291443,-0.24131479859352112,0.8469271063804626,-0.05954933166503906,0.009900033473968506,0.12804841995239258,0.13701493562861705,-0.5279064505558563,0.8029808991227069,0.24034004400582357,0.2437204553888395,2.6315397533513263,1.2269994685189856
1773065135439738624,3.150688409805298,0.016427291557192802,-2.3524489402770996,-0.45337069034576416,0.4944731891155243,-0.23913800716400146,0.8356488347053528,-0.050091564655303955,0.04239121079444885,0.08596664667129517,0.14687593750538225,-0.5269463073568486,0.8000950054795408,0.2461766837202621,0.24147800061956684,2.607280926202567,1.2311916287729114
1773065135449776384,3.160726308822632,-0.07724642753601074,-2.398977279663086,-0.41134190559387207,0.5152848958969116,-0.23705895245075226,0.8235805630683899,-0.028819382190704346,0.041364967823028564,0.09809625148773193,0.15689895734160358,-0.5257236625328354,0.7971229013710898,0.25217563577146906,0.23933739395604062,2.5825158380516506,1.2350916675404888
1773065135459814400,3.170764207839966,-0.16205957531929016,-2.4248147010803223,-0.40488773584365845,0.5360686779022217,-0.23599562048912048,0.8105160593986511,-0.03291010856628418,-0.01006762683391571,0.0853121280670166,0.16671763705297907,-0.5243643680727272,0.7939143778882408,0.2587415023167956,0.23824300134604112,2.5572507499797124,1.2393823862050533
1773065135469852416,3.180802345275879,-0.034879039973020554,-2.454958200454712,-0.41286349296569824,0.5567473769187927,-0.23464901745319366,0.7968515157699585,-0.062133729457855225,-0.008530303835868835,0.2200247049331665,0.17668333369308922,-0.5228606048515007,0.7905963309114923,0.26524947402244764,0.2368574838077642,2.5317504826462924,1.2434883521837696
1773065135479890432,3.190840244293213,0.026198960840702057,-2.448249578475952,-0.4483082890510559,0.5772180557250977,-0.23210203647613525,0.7829100489616394,-0.057290077209472656,0.014496460556983948,0.20866715908050537,0.18701082939939898,-0.5212579951258707,0.7872389338227656,0.2712415493448615,0.23423817906362074,2.5062870322309334,1.247046579103878
1773065135489928448,3.200878381729126,-0.10421904921531677,-2.464141607284546,-0.41678231954574585,0.5973453521728516,-0.22975338995456696,0.768369734287262,-0.020837724208831787,0.03769098222255707,0.04884529113769531,0.1972041683355161,-0.519656760228699,0.7836719480437855,0.27735479441025646,0.23182428236429,2.480772987443703,1.2508929020954973
1773065135499966464,3.21091628074646,-0.09917742013931274,-2.5238540172576904,-0.3758476674556732,0.6172124743461609,-0.22841382026672363,0.7529114484786987,0.008641958236694336,0.023412004113197327,-0.07613849639892578,0.20716845911057957,-0.517770065731057,0.7799806876990413,0.28394617989002835,0.23044811992075448,2.454913930581296,1.2547684944089386
1773065135510003456,3.2209532260894775,0.05951816961169243,-2.509788751602173,-0.47226595878601074,0.6370761394500732,-0.2257959097623825,0.7369875311851501,-0.021475374698638916,-0.007434725761413574,0.1349150538444519,0.21763059729372372,-0.5157906795042259,0.7761789347155873,0.2900745901261708,0.22775996376603522,2.4287791149945965,1.2581511345138754
1773065135520041472,3.2309913635253906,-0.0657995343208313,-2.4572432041168213,-0.4404635429382324,0.6562328338623047,-0.22270642220973969,0.7209439277648926,-0.06768614053726196,-0.04314744472503662,0.12063926458358765,0.2279639071309937,-0.5139266193532944,0.7722379130098653,0.295906128057582,0.22458973688836953,2.4031481953208176,1.2616140209872073
1773065135530079488,3.2410292625427246,-0.10534889996051788,-2.419680595397949,-0.39909854531288147,0.6745938658714294,-0.22074589133262634,0.7044107913970947,-0.014483332633972168,-0.03340451419353485,0.09914761781692505,0.23770438249837117,-0.5120365612788385,0.7681301664424837,0.30214447135437683,0.22257916696613125,2.377813194983656,1.265614450976617
1773065135540117504,3.2510673999786377,0.0435234010219574,-2.407104015350342,-0.38359761238098145,0.692437469959259,-0.21814104914665222,0.6877101063728333,0.03893160820007324,-0.013624727725982666,0.2792089581489563,0.24762047949959803,-0.5098316017338316,0.76415103058448,0.3079434019945613,0.21990923476517193,2.3527692715658644,1.2685625353506358
1773065135550155520,3.2611052989959717,-0.08791735768318176,-2.3592915534973145,-0.36725884675979614,0.7094385027885437,-0.21560288965702057,0.6709784865379333,0.09047287702560425,-0.02751535177230835,0.049083709716796875,0.2572340621050009,-0.5076125906992877,0.7601438653077496,0.3135941838044261,0.21730920134123768,2.328340531525509,1.2714325757030116
1773065135560193280,3.2711431980133057,0.01608414202928543,-2.3928658962249756,-0.3487142026424408,0.7260372042655945,-0.21343500912189484,0.6536940336227417,0.06346797943115234,0.021891385316848755,0.10129576921463013,0.2667143194229275,-0.5052475407643366,0.7560237643367571,0.31940035064560635,0.21508963927686087,2.3038096461129487,1.2743236941087766
1773065135570231552,3.2811813354492188,0.07722246646881104,-2.3282089233398438,-0.3819705545902252,0.7421011328697205,-0.21030011773109436,0.6364428997039795,0.039087772369384766,0.05444687604904175,0.11468619108200073,0.27639867423057735,-0.5027517326515955,0.7519721677886406,0.32462633972403626,0.21188193483931805,2.2796992393667757,1.276353380173366
1773065135580268288,3.2912182807922363,-0.02456621453166008,-2.386808156967163,-0.35662126541137695,0.7577047944068909,-0.2073320597410202,0.6187862753868103,0.03088456392288208,-0.016392305493354797,-0.06325972080230713,0.28593794576929815,-0.5002361100408694,0.7477680025993104,0.3299185219892861,0.208846964345662,2.255612855635914,1.2785590537604246
1773065135590306304,3.3012561798095703,-0.019357604905962944,-2.390880823135376,-0.3495819866657257,0.7731077075004578,-0.2048543393611908,0.6002825498580933,0.07106953859329224,-0.0974527895450592,0.05592167377471924,0.2954078852021136,-0.4976006922388518,0.7433268603719929,0.335548669436449,0.20631489052626528,2.23101411025771,1.2811018833665646
1773065135600344320,3.3112943172454834,0.03758716955780983,-2.2818987369537354,-0.40800055861473083,0.7878000736236572,-0.20186330378055573,0.5819125175476074,0.1039997935295105,-0.10706612467765808,0.2374386191368103,0.3048065108615806,-0.49497744999056026,0.73888671162001,0.34078837661211325,0.20326002087113623,2.2069970307090023,1.2832932865834148
1773065135610382336,3.3213322162628174,0.07655534148216248,-2.187274694442749,-0.39434945583343506,0.8014744520187378,-0.19829818606376648,0.5641955137252808,0.1295863389968872,-0.04167678952217102,0.25164610147476196,0.3138922806978533,-0.4925818025171311,0.7344800278335408,0.3455052627555254,0.1996213141009699,2.184166345928955,1.2853663527893922
1773065135620420352,3.3313703536987305,0.04895460605621338,-2.048466444015503,-0.27629712224006653,0.813933253288269,-0.1950693577528,0.5472297668457031,0.1922159194946289,-0.009352624416351318,0.1259574294090271,0.3224534861983646,-0.4900274676612184,0.7304026079447639,0.34986970517160965,0.19632816783714077,2.162707786895366,1.286675610243587
1773065135630458368,3.3414082527160645,-0.036946628242731094,-1.9599541425704956,-0.2208823263645172,0.8252530097961426,-0.19317194819450378,0.5306997299194336,0.24440348148345947,-0.02791266143321991,0.006836950778961182,0.3301952807552687,-0.4873439499923301,0.726529933020492,0.35443088460409417,0.1943939637037308,2.1422880819623904,1.2880392438811563
1773065135640496384,3.3514463901519775,0.05263332277536392,-1.8155940771102905,-0.277942419052124,0.8356466889381409,-0.19106844067573547,0.5149634480476379,0.21600419282913208,-0.014558985829353333,0.09023064374923706,0.3375222738275864,-0.4848635946472536,0.7227648349215834,0.358604171300615,0.192250528566992,2.1230754186894885,1.2893581460612242
1773065135650533376,3.361483335494995,0.08266809582710266,-1.6642495393753052,-0.28785285353660583,0.8450371026992798,-0.18821501731872559,0.5004878044128418,0.18363434076309204,-0.04332186281681061,0.011475324630737305,0.3445166750948919,-0.48263892544350767,0.7192381770061752,0.3620284297614916,0.18934436691119214,2.105510550580877,1.2901886258837416
1773065135660571392,3.371521234512329,0.019102435559034348,-1.510926365852356,-0.2638508379459381,0.8534318804740906,-0.18560494482517242,0.48703649640083313,0.2199016809463501,-0.08092032372951508,0.026986300945281982,0.3508893638674065,-0.4806029025409384,0.7159183628187168,0.365182583059729,0.1866874641182011,2.0893779421617533,1.2910385334649968
