time,seconds_elapsed,rotationRateX,rotationRateY,rotationRateZ,gravityX,gravityY,gravityZ,accelerationX,accelerationY,accelerationZ,quaternionW,quaternionX,quaternionY,quaternionZ,pitch,roll,yaw
1773062287317751296,0.15704131126403809,-0.16569414734840393,-0.016769669950008392,0.11239206045866013,-0.00406944565474987,-0.3900955617427826,-0.9207653999328613,0.038371212780475616,-0.04377281665802002,0.05556154251098633,0.9701382358972243,0.1967353677112612,-0.030207615877059852,-0.13861686707249624,0.40073538923503327,-0.004419604900556823,-0.28294846269297674
1773062287327807232,0.1670973300933838,-0.15437304973602295,-0.00809468887746334,0.14650823175907135,-0.004693850874900818,-0.38865575194358826,-0.9213711023330688,0.03954492136836052,-0.03381434082984924,0.06169092655181885,0.9703790494568623,0.1959515123031881,-0.03028969317788461,-0.13802168616282692,0.39917219877189863,-0.005094375743868207,-0.2815437391210945
1773062287337862144,0.17715239524841309,-0.15307015180587769,0.015598785132169724,0.16416394710540771,-0.005237068049609661,-0.38726311922073364,-0.921954333782196,0.03544946759939194,-0.03493228554725647,0.06360173225402832,0.9706341102820167,0.19520331423303242,-0.030306552473514693,-0.13728270820923286,0.3976612215902458,-0.005680337167207888,-0.27986375425642435
1773062287347918080,0.1872081756591797,-0.1644200086593628,0.01834636926651001,0.18008139729499817,-0.005710205528885126,-0.38583841919898987,-0.9225487112998962,0.039310045540332794,-0.048564016819000244,0.07385486364364624,0.9709041059877658,0.19444656038606284,-0.030268641400073376,-0.13645314864612226,0.39611645250633387,-0.006189519066151758,-0.2780134564619201
1773062287357972992,0.19726324081420898,-0.20265960693359375,0.03286106884479523,0.21405519545078278,-0.006232257001101971,-0.38417693972587585,-0.9232384562492371,0.04462336748838425,-0.06778839230537415,0.09000176191329956,0.971215300787514,0.19356625174432057,-0.030213937645573084,-0.13549939550096363,0.3943161973482594,-0.006750327853919483,-0.27589266087084324
1773062287368029184,0.2073192596435547,-0.24800606071949005,0.05701993405818939,0.24706214666366577,-0.006709106732159853,-0.38216450810432434,-0.9240699410438538,0.042933475226163864,-0.09230750799179077,0.10119396448135376,0.9715882111580892,0.19251125415269804,-0.030073927751126852,-0.1343553679557793,0.3921374774340364,-0.007260260613718083,-0.2733835693794541
1773062287378084096,0.21737432479858398,-0.31650060415267944,0.07122620940208435,0.2747874855995178,-0.007077812682837248,-0.37961527705192566,-0.9251173734664917,0.043393731117248535,-0.10897114872932434,0.1205672025680542,0.9720348516228731,0.19118702348409783,-0.029813376756293374,-0.13306726855931816,0.3893804007607034,-0.007650569159315108,-0.27059118935431303
1773062287388140288,0.2274303436279297,-0.3981323540210724,0.11120132356882095,0.31539270281791687,-0.007292960770428181,-0.3763467073440552,-0.9264501929283142,0.04070970416069031,-0.12533175945281982,0.1362280249595642,0.9725767895985128,0.18950208457460402,-0.029391585271952087,-0.13160326588165325,0.3858499305417119,-0.007871777991814653,-0.2674563955184115
1773062287398194944,0.23748517036437988,-0.47460171580314636,0.1529446840286255,0.3784320652484894,-0.007342590484768152,-0.3723203241825104,-0.9280752539634705,0.03317571431398392,-0.14176353812217712,0.15096038579940796,0.9732288628595276,0.18744050838376208,-0.028782557410427356,-0.12985837843159873,0.38150785423712363,-0.00791146749829185,-0.2637662030055062
1773062287408251136,0.24754118919372559,-0.557158887386322,0.19025184214115143,0.45577213168144226,-0.007265912368893623,-0.36750927567481995,-0.9299914836883545,0.03300749137997627,-0.14594897627830505,0.1568591594696045,0.9740018973406087,0.18498870864931913,-0.027990026581189896,-0.127734189785005,0.3763294551171961,-0.007812721663671347,-0.25931132782928235
1773062287418306048,0.2575962543487549,-0.6092495322227478,0.23169048130512238,0.5274442434310913,-0.007098338566720486,-0.361991286277771,-0.9321544766426086,0.03908075392246246,-0.14540919661521912,0.16089898347854614,0.9748843074800608,0.18218566623060933,-0.027039955785181504,-0.12521105459136705,0.3704031784649267,-0.007614833739634519,-0.2540483871884497
1773062287428362240,0.2676522731781006,-0.6206819415092468,0.2648199200630188,0.6024364829063416,-0.00679235253483057,-0.3561500906944275,-0.9344040751457214,0.048433590680360794,-0.1453452706336975,0.1571824550628662,0.9758300647269247,0.1792341373840533,-0.02594387960964885,-0.12230170923098307,0.3641445645694404,-0.007269053348765951,-0.24802335548740262
1773062287438417152,0.2777073383331299,-0.5848223567008972,0.2966637909412384,0.6787779331207275,-0.006427174899727106,-0.3504006564617157,-0.9365778565406799,0.05940568819642067,-0.1381095051765442,0.15364938974380493,0.9767972170210351,0.1763449333159434,-0.024769711004046003,-0.11897930278940069,0.3579988359608695,-0.006862295768774988,-0.24117523363670773
1773062287448473088,0.2877633571624756,-0.5033903121948242,0.3341943919658661,0.7424205541610718,-0.005953749641776085,-0.3452052175998688,-0.9385083317756653,0.07026954740285873,-0.12533006072044373,0.15751779079437256,0.9777350249625756,0.1737588170850713,-0.023530854576991535,-0.11527510530503543,0.35245742334491015,-0.006343757801629648,-0.23358705926557727
1773062287458528000,0.2978181838989258,-0.39901497960090637,0.3926612436771393,0.810488760471344,-0.005197507329285145,-0.3408907949924469,-0.9400885105133057,0.07554052770137787,-0.11031156778335571,0.15636664628982544,0.9787903173729247,0.1716885121027787,-0.021881208677617787,-0.10960757491342217,0.34786428965704314,-0.005528686201188094,-0.22206475602466327
1773062287468583936,0.3078742027282715,-0.30628371238708496,0.45190513134002686,0.9043673276901245,-0.0041207741014659405,-0.3375427722930908,-0.941301167011261,0.08450407534837723,-0.10886836051940918,0.1520097851753235,0.9797694645555717,0.1701373152888927,-0.020067535778425367,-0.1034527411474802,0.344305241779574,-0.004377714672343697,-0.20963697018548236
1773062287478639104,0.3179292678833008,-0.27346402406692505,0.5088233947753906,1.0347156524658203,-0.0028510449919849634,-0.33479708433151245,-0.94228595495224,0.09913401305675507,-0.12549957633018494,0.1540321707725525,0.9807134224278927,0.16890630865818015,-0.018102110461359754,-0.0966657810591418,0.34138987140057553,-0.0030256592683298223,-0.19597736299569446
1773062287488695040,0.3279852867126465,-0.31065213680267334,0.5566518902778625,1.1601063013076782,-0.0014767476823180914,-0.3320605754852295,-0.9432569146156311,0.11643646657466888,-0.1513531506061554,0.1636090874671936,0.9816742397693028,0.16767914963169583,-0.01597642211707202,-0.08913015270677348,0.3384872567629429,-0.00156558241942082,-0.1808240046366838
1773062287498750208,0.3380403518676758,-0.44832050800323486,0.5870692133903503,1.2840615510940552,-0.00010703953012125567,-0.32849210500717163,-0.9445067048072815,0.1345674991607666,-0.18003758788108826,0.1822996735572815,0.9825592715678202,0.16598250468057538,-0.014016062778898553,-0.08264782300979531,0.33470662773232124,-0.00011332849956673285,-0.16781547109358252
1773062287508805120,0.348095178604126,-0.6357660293579102,0.6166430711746216,1.4162918329238892,0.0011982850264757872,-0.32337430119514465,-0.9462704062461853,0.15554000437259674,-0.20288607478141785,0.2060818076133728,0.9837095735690661,0.16348953270771516,-0.011661112562468465,-0.07382913369615053,0.3292932125767385,0.001266323437749109,-0.15003304604961668
1773062287518861056,0.3581511974334717,-0.869280993938446,0.6817324161529541,1.530617117881775,0.0026282856706529856,-0.3162625730037689,-0.9486680626869202,0.16930775344371796,-0.21018090844154358,0.21864181756973267,0.984986814729512,0.15994692356242188,-0.009107854424979377,-0.06430420210365856,0.32178723929501307,0.002770493656199067,-0.1308332774607536
1773062287528916224,0.368206262588501,-1.1287671327590942,0.7071235179901123,1.6244785785675049,0.004308812785893679,-0.3067700266838074,-0.9517739415168762,0.1673830896615982,-0.21846801042556763,0.24402552843093872,0.9862825073152853,0.15514251547193073,-0.006621314320366462,-0.055980095503408885,0.31179756264794145,0.0045271079371391795,-0.11410724455567764
1773062287538972160,0.3782622814178467,-1.3616442680358887,0.7449944019317627,1.7210839986801147,0.006227611098438501,-0.29490742087364197,-0.9555055499076843,0.15322673320770264,-0.23481670022010803,0.2600252032279968,0.9876884465931561,0.1491022898962917,-0.003967101760155882,-0.047162697666559304,0.29935862462784146,0.006517516497341818,-0.0964115712611921
1773062287549027328,0.388317346572876,-1.58741295337677,0.7872339487075806,1.8300954103469849,0.008453423157334328,-0.28085264563560486,-0.9597136974334717,0.12869258224964142,-0.24795591831207275,0.2631347179412842,0.9891551476702083,0.1419219470304624,-0.0011507613197005797,-0.0378024197469548,0.2846824036369864,0.008808048361167872,-0.07765887357628971
1773062287559083264,0.3983733654022217,-1.7949156761169434,0.8313506245613098,1.9486581087112427,0.011077064089477062,-0.2646558880805969,-0.964279294013977,0.11471639573574066,-0.2521440386772156,0.26727306842803955,0.9906385121546748,0.13363001871569619,0.001835526774288097,-0.027839466440224687,0.26784706669800645,0.011486896676740656,-0.05773795600949609
1773062287569138176,0.4084281921386719,-1.973602056503296,0.910006046295166,2.085705518722534,0.01431960891932249,-0.24659502506256104,-0.9690127968788147,0.10906296223402023,-0.25049054622650146,0.2829471230506897,0.9920739909559242,0.12437030514959473,0.005061289258696957,-0.01719567262291757,0.24916520038593326,0.014776447170793475,-0.03651314586815825
1773062287579194112,0.4184842109680176,-2.2026357650756836,1.040399432182312,2.2646849155426025,0.01872911863029003,-0.2265799194574356,-0.9738125205039978,0.09215650707483292,-0.2436654418706894,0.310085654258728,0.9934152644454184,0.11409122774753368,0.008771895126568246,-0.0057009146203898685,0.22856483645426323,0.019230405353665023,-0.01368466254099268
1773062287589249024,0.4285392761230469,-2.3910748958587646,1.0883594751358032,2.4795782566070557,0.02409299463033676,-0.20449881255626678,-0.978570282459259,0.08956973254680634,-0.22917123138904572,0.33725863695144653,0.994604555005494,0.10271562424724366,0.012820540733497669,0.006862353834694045,0.20595167318578342,0.024615634529111734,0.011255003742115336
1773062287599305216,0.4385952949523926,-2.531214714050293,1.0723745822906494,2.7043635845184326,0.02971109189093113,-0.18089492619037628,-0.9830535650253296,0.11256185919046402,-0.20097152888774872,0.3290466070175171,0.9955427026990379,0.0905061377474247,0.01678882490455615,0.020533924362542328,0.18189631797444428,0.03021407162079879,0.03849015407239306
1773062287609360128,0.4486503601074219,-2.598635673522949,1.083844780921936,2.970916986465454,0.035580310970544815,-0.15631617605686188,-0.9870660305023193,0.11145338416099548,-0.15645848214626312,0.30605101585388184,0.9961313855740456,0.07772808713443342,0.020623844449110435,0.035429967534108896,0.1569598728677955,0.0360309358468521,0.06827132708617333
1773062287619416320,0.4587063789367676,-2.472395420074463,1.0983673334121704,3.167807102203369,0.04197521507740021,-0.13223262131214142,-0.9903295636177063,0.10084705054759979,-0.12155155837535858,0.2647741436958313,0.9962480074978853,0.06510165110614478,0.024433584546213694,0.05152406129522687,0.13262103764707028,0.0423597456680849,0.10053070493110336
1773062287629470976,0.4687612056732178,-2.3666977882385254,1.100653052330017,3.2854959964752197,0.049027565866708755,-0.10965286195278168,-0.9927600622177124,0.08155715465545654,-0.09617293626070023,0.2053912878036499,0.9958465142969585,0.05311581811417855,0.028260877190753667,0.06833582515218871,0.10987380268320454,0.04934502091385993,0.13431273521237386
1773062287639527168,0.4788172245025635,-2.335007667541504,1.0753648281097412,3.431819200515747,0.05654998496174812,-0.08796510100364685,-0.9945170879364014,0.06704621016979218,-0.05874815583229065,0.17467761039733887,0.9949402710243905,0.041449153270641026,0.031990983154814696,0.08574662096157157,0.0880789414262134,0.056800588829396245,0.16943676635719648
1773062287649582080,0.4888722896575928,-2.3532891273498535,1.0869839191436768,3.6018834114074707,0.06468281894922256,-0.06664425134658813,-0.9956780076026917,0.08195413649082184,-0.026647984981536865,0.15053945779800415,0.9934996452721485,0.029809303325281665,0.03567080141050805,0.10391110058575445,0.06669368080240454,0.06487243757587116,0.20625932125149646
1773062287659638272,0.4989283084869385,-2.3458807468414307,1.107411503791809,3.7388339042663574,0.07358182966709137,-0.045674167573451996,-0.9962427616119385,0.09547028690576553,-0.0006820335984230042,0.11346077919006348,0.9914810178392819,0.018157690036459062,0.03935646768402985,0.12282808584927701,0.04569006448083195,0.07372547389426808,0.2448256150210689
1773062287669693184,0.5089833736419678,-2.4265694618225098,1.1137309074401855,3.8323874473571777,0.08332903683185577,-0.02481677383184433,-0.9962130188941956,0.09309308230876923,0.02474047988653183,0.06715112924575806,0.9888762529950248,0.006356320141149151,0.043047447742963686,0.14223312997090415,0.024819322581077892,0.08345153883000396,0.2846704474319318
1773062287679749376,0.5190393924713135,-2.50730037689209,1.1436625719070435,3.9396560192108154,0.0940764844417572,-0.003510985989123583,-0.9955587983131409,0.1003815233707428,0.033097777515649796,0.04659944772720337,0.9856527386337594,-0.005906500538641555,0.04675170804636615,0.16207432273071576,0.003510993186304112,0.09421638915607702,0.3257846382328316
1773062287689804032,0.5290942192077637,-2.4909565448760986,1.180057406425476,4.055034160614014,0.10594671964645386,0.01751081831753254,-0.9942176342010498,0.10679131746292114,-0.02350752428174019,0.056778669357299805,0.9817569686686175,-0.01830983220032642,0.05055633771605968,0.1823786415498434,-0.017511713337115757,0.10616226866542704,0.3682781424101236
1773062287699859968,0.5391502380371094,-2.5753047466278076,1.3563841581344604,4.211364269256592,0.11966439336538315,0.03799283877015114,-0.992087185382843,0.13131216168403625,-0.07270658016204834,0.08557778596878052,0.9771013473677069,-0.030845248088690876,0.05481768924180479,0.20326493221683636,-0.03800198526499067,0.12003892192487423,0.41249035429724074
1773062287709915136,0.5492053031921387,-2.826105833053589,1.4976584911346436,4.208088397979736,0.13603255152702332,0.0594039261341095,-0.9889218211174011,0.145690456032753,-0.1119857132434845,0.13671845197677612,0.9716332555085779,-0.04437327116616834,0.05975043707458189,0.22447671756018428,-0.05943892115773907,0.13669854903069528,0.4581635699477978
1773062287719971072,0.5592613220214844,-3.224090099334717,1.517235517501831,4.034571647644043,0.1540321260690689,0.08329278975725174,-0.9845488667488098,0.1671653836965561,-0.13173943758010864,0.17844229936599731,0.9655012067237402,-0.05954754729933689,0.0646503674484702,0.24511592848436226,-0.08338939968801055,0.15519142857055032,0.5037308290386723
1773062287730026240,0.5693163871765137,-3.7578012943267822,1.3994215726852417,3.8788652420043945,0.17244599759578705,0.11125104874372482,-0.9787163138389587,0.21740080416202545,-0.07656782865524292,0.22651904821395874,0.9587400906066362,-0.07699080142334767,0.06866054584206453,0.2649067592997695,-0.11148182672702717,0.17440599774911708,0.5489184353825184
1773062287740081920,0.5793721675872803,-4.208771228790283,1.2241864204406738,3.8217084407806396,0.19024594128131866,0.14341725409030914,-0.971204400062561,0.27165287733078003,-0.03544607758522034,0.24914324283599854,0.9512293134908133,-0.09663587167356888,0.07112883513928547,0.2841919700634548,-0.14391351384130055,0.1934372737333091,0.5946294467769907
1773062287750137088,0.5894272327423096,-4.436771392822266,1.0672061443328857,3.8668437004089355,0.20758366584777832,0.17790327966213226,-0.9619040489196777,0.3193786144256592,-0.004685506224632263,0.23647069931030273,0.9428081911256604,-0.11759702388639451,0.07224197620757815,0.3034218698296325,-0.17885533377882396,0.21254542875932753,0.6418499430207235
1773062287760193024,0.5994832515716553,-4.527254104614258,1.0827161073684692,3.9000680446624756,0.2254292070865631,0.21266904473304749,-0.9507647156715393,0.2730754315853119,0.011741966009140015,0.2062426209449768,0.9334067657177569,-0.13904923535927025,0.07268388525508931,0.32269844154852095,-0.2143056783926928,0.23280399937262053,0.6908696478328096
1773062287770248192,0.6095383167266846,-4.494419574737549,1.1233482360839844,3.9338467121124268,0.24492549896240234,0.24629276990890503,-0.9377374053001404,0.22277164459228516,0.018004730343818665,0.20354551076889038,0.9230617273144105,-0.16052661632960433,0.07322920616435889,0.3417979617822196,-0.24885332033927143,0.255480258414348,0.7413909388571472
1773062287780304128,0.6195943355560303,-4.450764179229736,1.1989108324050903,3.983863115310669,0.266193151473999,0.27792975306510925,-0.9229822754859924,0.23273873329162598,0.030465632677078247,0.23024851083755493,0.9117973954097757,-0.18171565222711433,0.07408295954350329,0.3607170211917348,-0.2816382726474363,0.280785982680078,0.7934957700484075
1773062287790359040,0.6296491622924805,-4.622766017913818,1.3457860946655273,4.01910400390625,0.2897253632545471,0.30832746624946594,-0.9060868620872498,0.2529534697532654,0.03221818804740906,0.25410932302474976,0.8994926193391833,-0.20317264612094907,0.07534888457154464,0.3794158200876143,-0.3134343456323748,0.3094802507358747,0.8476186834233569
1773062287800414976,0.6397051811218262,-4.976656436920166,1.3378580808639526,3.936720371246338,0.3149120509624481,0.33936914801597595,-0.8863740563392639,0.2694690525531769,0.009568840265274048,0.2900910973548889,0.8860241317457729,-0.22578927010017855,0.07636864043865157,0.3976786000294038,-0.34624615046348345,0.3413718995289009,0.9040345702587603
1773062287810470144,0.6497602462768555,-5.598352909088135,1.0837517976760864,3.763612747192383,0.33947697281837463,0.3731004297733307,-0.863453209400177,0.32751521468162537,0.012489169836044312,0.2925150990486145,0.8713752296328172,-0.2501152022060481,0.07560274675960639,0.41524916161588515,-0.3823485169112881,0.37459766834753006,0.9627414893390719
1773062287820526080,0.6598162651062012,-6.1452789306640625,0.7486231327056885,3.6716222763061523,0.3618653118610382,0.41037964820861816,-0.8370436429977417,0.3922392725944519,0.044439107179641724,0.2740248441696167,0.855337281773146,-0.2762387938619181,0.07190482434425441,0.4323425513084675,-0.42287034249546795,0.40804895760055937,1.024781727111217
1773062287830581248,0.6698713302612305,-6.4051079750061035,0.5559474229812622,3.70615553855896,0.38312360644340515,0.4486120939254761,-0.8074425458908081,0.41111162304878235,0.07688531279563904,0.2061547040939331,0.8377819417010237,-0.3031713003303874,0.06607489656701702,0.4492689486256551,-0.4652117775114056,0.44303234367168337,1.091067703215337
1773062287840637184,0.6799273490905762,-6.394155979156494,0.38055452704429626,3.7091548442840576,0.4043097198009491,0.485025554895401,-0.7754249572753906,0.3836541473865509,0.1338403820991516,0.17889785766601562,0.8188631394673584,-0.32982886707268605,0.059164561541446475,0.46602099902929023,-0.5063923807111981,0.4806238659911877,1.1614310577475186
1773062287850692096,0.6899821758270264,-6.00911283493042,0.1601323038339615,3.613196611404419,0.4249192178249359,0.5172469019889832,-0.7428992390632629,0.3662794828414917,0.22492527961730957,0.19098889827728271,0.7993313820002618,-0.35478165378175935,0.05177221477893151,0.4822020709657879,-0.5436309358194379,0.5195573523337457,1.2335068607826447
1773062287860748032,0.7000381946563721,-5.373219013214111,0.032489463686943054,3.453173875808716,0.444419264793396,0.5435181260108948,-0.7120952010154724,0.3463674783706665,0.34759509563446045,0.2659739851951599,0.780110847767664,-0.3767832832152259,0.044573009630665544,0.49746830139847803,-0.5746227112967761,0.5579525060806281,1.3042241802170802
1773062287870803200,0.7100932598114014,-4.605505466461182,0.09612356126308441,3.2577569484710693,0.46344417333602905,0.5632259249687195,-0.6841024160385132,0.30288273096084595,0.4569157361984253,0.2703298330307007,0.7618967413549345,-0.39554660061846947,0.03862223057529563,0.5114338989897789,-0.5982846406276605,0.595429878065071,1.3710489199301672
1773062287880859136,0.7201492786407471,-3.976651430130005,0.25523075461387634,3.034830093383789,0.4827514588832855,0.5771171450614929,-0.6587008237838745,0.21329346299171448,0.4588630199432373,0.2913760542869568,0.7449880140932348,-0.4116474195642398,0.03458303909707064,0.5237777841483386,-0.6151942039583018,0.6324567201854107,1.4327164872209055
1773062287890914304,0.7302043437957764,-3.620511531829834,0.32235628366470337,2.7972142696380615,0.501712441444397,0.5872874855995178,-0.6351204514503479,0.14893758296966553,0.3328785300254822,0.2850685715675354,0.7292302832003733,-0.4259483646613207,0.03174544043826204,0.5345870480074362,-0.6277034008448151,0.6685818529854408,1.4896954469356818
1773062287900968960,0.7402591705322266,-3.656060218811035,0.3164350986480713,2.6755244731903076,0.5199998021125793,0.5959200859069824,-0.6119471788406372,0.17677748203277588,0.19800984859466553,0.259957492351532,0.7139217784841765,-0.4395237470856073,0.029073685634808537,0.5443245390544489,-0.6384109396586332,0.704346696916712,1.544568911562092
1773062287911025152,0.7503151893615723,-4.100489139556885,0.16450385749340057,2.6065750122070312,0.5374377369880676,0.6051409244537354,-0.5873372554779053,0.23345154523849487,0.11463135480880737,0.32543545961380005,0.6979375166578722,-0.45353589423377294,0.02523022293617712,0.5536711497718683,-0.6499428874701004,0.7410632150801173,1.601566837764318
1773062287921080064,0.7603702545166016,-4.599645614624023,-0.1414669156074524,2.580554723739624,0.5534215569496155,0.6161186099052429,-0.5604662299156189,0.2747949957847595,0.10514909029006958,0.3335832953453064,0.6805639466268076,-0.46840619723938043,0.01903983111069312,0.5630859884455915,-0.6638053674051927,0.7790738584992771,1.6635338811994023
1773062287931136256,0.7704262733459473,-4.840173244476318,-0.3185138702392578,2.693373680114746,0.5685451030731201,0.6273046731948853,-0.5322078466415405,0.2485019564628601,0.12858515977859497,0.2557796835899353,0.6617248248910883,-0.4835032405339525,0.010985639647381414,0.5729084136076407,-0.6780873670231745,0.8183974252324613,1.7307001176081576
1773062287941190912,0.7804811000823975,-4.916923522949219,-0.3063713610172272,2.722412586212158,0.5842013359069824,0.6369503736495972,-0.5029940605163574,0.13566255569458008,0.11709320545196533,0.22375822067260742,0.6417680132533353,-0.4984945792579408,0.002475549026188379,0.5827785406086391,-0.6905358432615175,0.8599540067465042,1.8014710095984987
1773062287951247104,0.7905371189117432,-4.8923492431640625,-0.22441335022449493,2.5266520977020264,0.5998423099517822,0.6453596353530884,-0.4729694724082947,0.007365882396697998,0.06600505113601685,0.20948073267936707,0.6215028474161031,-0.513300075460211,-0.006188595704564841,0.5917929766288854,-0.7014940128543239,0.9031133799738793,1.8730583492960686
1773062287961302016,0.8005921840667725,-5.0473809242248535,-0.09202252328395844,2.315347671508789,0.6148890256881714,0.6533464193344116,-0.441644549369812,-0.03769481182098389,0.051716387271881104,0.1804293692111969,0.6013151200232495,-0.5281552249232222,-0.01515845016393191,0.5993683075748634,-0.7119963596923398,0.9479261821245418,1.9445058618473816
1773062287971357952,0.8106482028961182,-5.44265604019165,-0.14391234517097473,2.211653232574463,0.629385232925415,0.6616147756576538,-0.40760278701782227,0.015451133251190186,0.08850723505020142,0.17632535099983215,0.5803329653173278,-0.5436545037259105,-0.02526628017680682,0.6058176113997049,-0.7229702027071063,0.9960956727072363,2.0193072026503196
1773062287981413120,0.8207032680511475,-5.647905349731445,-0.39000633358955383,2.1951870918273926,0.6430999636650085,0.6693554520606995,-0.3720024526119232,0.09626466035842896,0.08949470520019531,0.13477405905723572,0.5581150892844973,-0.559136020184356,-0.036955119092010526,0.6119713131855765,-0.7333408775321548,1.0463716649063461,2.0987722072015247
1773062287991468800,0.8307590484619141,-5.493899822235107,-0.6397604942321777,2.156128406524658,0.6559940576553345,0.6750513315200806,-0.3376055359840393,0.11732131242752075,0.10621392726898193,0.0740862488746643,0.5353378546033324,-0.5733677567200517,-0.04946360815920155,0.6182363416329473,-0.7410342742650212,1.0954997196879477,2.179620422996464
1773062288001523968,0.8408141136169434,-5.191044807434082,-0.6864157319068909,2.044201135635376,0.6681236624717712,0.6783343553543091,-0.3057340979576111,0.050015926361083984,0.17438781261444092,0.053368985652923584,0.5130033928536448,-0.5859289981645279,-0.06180742892614282,0.62425526738422,-0.7454933100550123,1.1416393714812438,2.2578298894263966
1773062288011579904,0.8508701324462891,-4.962944030761719,-0.5987862944602966,1.8852262496948242,0.6796613931655884,0.6797969937324524,-0.27556583285331726,-0.03734266757965088,0.1803104281425476,0.09453552961349487,0.491532386317986,-0.5973346706100148,-0.07354168797739233,0.6294274196158086,-0.747485781628048,1.1856041741851033,2.332151374953621
1773062288021635072,0.8609251976013184,-5.140939712524414,-0.5686996579170227,1.7083549499511719,0.6904449462890625,0.6805572509765625,-0.24520990252494812,-0.07957452535629272,0.10902410745620728,0.19661065936088562,0.47037836506107206,-0.6083559111019313,-0.08542912132378593,0.6335213716284314,-0.7485229364880652,1.2295429956944905,2.405284095536483
1773062288031691008,0.8709812164306641,-5.4984517097473145,-0.5843307971954346,1.542646884918213,0.7002367377281189,0.6814967393875122,-0.21267488598823547,-0.012263774871826172,0.04010659456253052,0.21114899218082428,0.4484793506277224,-0.6196032081697302,-0.09876447587833338,0.6365561104983576,-0.7498059324672189,1.2759315302825807,2.481794770206503
1773062288041745920,0.8810360431671143,-5.667346954345703,-0.7325996160507202,1.461092472076416,0.7092296481132507,0.681891143321991,-0.17893502116203308,0.11125063896179199,0.028908967971801758,0.10926337540149689,0.425753110201393,-0.6306105665777223,-0.11341430267491064,0.6389067190675485,-0.7503449836152521,1.3236589409042026,2.5613664101458533
1773062288051801856,0.89109206199646,-5.777754306793213,-0.9141302108764648,1.3893171548843384,0.7176781296730042,0.6809626817703247,-0.1456981748342514,0.14886850118637085,0.10918319225311279,0.0989452600479126,0.4023757529398856,-0.6407177496771824,-0.12896384821429302,0.6410482426422177,-0.7490763848048244,1.370505078730135,2.642318128556312
1773062288061857024,0.9011471271514893,-6.044148921966553,-1.010658621788025,1.2537740468978882,0.7254701256752014,0.6790173649787903,-0.11237674206495285,0.059487760066986084,0.16795223951339722,0.13003116846084595,0.3782805687586718,-0.6500810356449538,-0.14562375450019305,0.6427224692087862,-0.746423289020136,1.4171157713245357,2.7252024156772956
1773062288071912960,0.911203145980835,-6.465632915496826,-1.0072718858718872,1.129109263420105,0.7326189279556274,0.6762344241142273,-0.07730931043624878,-0.05132925510406494,0.1379745602607727,0.13958042860031128,0.35312135613304974,-0.6591957332986745,-0.16372639169477873,0.643397270710543,-0.7426390404558458,1.465660829852896,2.811849535298706
1773062288081968128,0.9212582111358643,-7.063323974609375,-1.0078328847885132,1.0346988439559937,0.7393197417259216,0.6722349524497986,-0.038810987025499344,-0.0802316665649414,0.10034799575805664,0.21997857093811035,0.32614050187316573,-0.6684462419769752,-0.18377738974250546,0.6426801483185557,-0.7372234845714083,1.5183489357778304,2.9050159300878966
1773062288092024064,0.93131422996521,-7.2522053718566895,-0.9897273182868958,0.9731401205062866,0.7459253072738647,0.6660259366035461,0.0021350011229515076,-0.0318293571472168,0.1179094910621643,0.216904878616333,0.2975833080162718,-0.6774893590585684,-0.20512354546498396,0.6406063854070457,-0.7288683817848587,1.5736585372069458,3.002621045705237
1773062288102078976,0.9413690567016602,-7.04852294921875,-1.058961033821106,0.8130441904067993,0.7521323561668396,0.6576661467552185,0.04209741950035095,0.0215798020362854,0.2574949860572815,0.18242037296295166,0.26906089360280044,-0.685378507962204,-0.22650609480388947,0.6376186305580116,-0.7177163853560312,1.6267087510478286,3.098261365637416
1773062288112134912,0.9514250755310059,-6.792770862579346,-1.1249362230300903,0.588388204574585,0.7574260830879211,0.6480914950370789,0.07926622778177261,0.03125488758087158,0.48322558403015137,0.23646867275238037,0.2415371625038155,-0.6916098445160896,-0.24760641808315048,0.6340557232113919,-0.7050757132805731,1.6750688698985814,-3.0940434646324357
1773062288122190080,0.9614801406860352,-6.440753936767578,-1.1531044244766235,0.35691532492637634,0.7615910768508911,0.6380704045295715,0.113336943089962,-0.0029393434524536133,0.594916045665741,0.2866722345352173,0.21547028731463275,-0.6961946007497566,-0.26829377145822314,0.6300032825521245,-0.6919896289647157,1.7185281267364816,-3.008632056811094
1773062288132246016,0.9715361595153809,-6.161428928375244,-1.0432934761047363,0.17577670514583588,0.7646925449371338,0.6278862357139587,0.14492863416671753,-0.04353165626525879,0.6190467476844788,0.3585197925567627,0.19097590584721852,-0.6994882341340194,-0.2884103450957963,0.6253510569595871,-0.678834359215967,1.7581001323718763,-2.928465150591849
1773062288142301184,0.9815912246704102,-5.713099956512451,-0.8498877286911011,0.046289991587400436,0.7668817043304443,0.6174657344818115,0.1750105619430542,-0.039190053939819336,0.631145715713501,0.3313676118850708,0.1682717756242556,-0.7021085746065162,-0.30748794008324176,0.6198220658046838,-0.6655168058774363,1.795164600900977,-2.853909205543998
1773062288152357120,0.9916472434997559,-5.171846866607666,-0.8773755431175232,-0.06314489245414734,0.7684788107872009,0.6071691513061523,0.20195572078227997,0.0025172829627990723,0.5811853408813477,0.2739201784133911,0.1476705496535961,-0.7037758694749179,-0.32508057949684555,0.6141788192860262,-0.6524929898983831,1.8277846693490307,-2.7866065429571116
1773062288162412032,1.001702070236206,-4.547896385192871,-0.9068149924278259,-0.200113445520401,0.7696122527122498,0.597772479057312,0.2244212031364441,-0.04546076059341431,0.4385891556739807,0.2161153256893158,0.12935084395216534,-0.7041553577336953,-0.34113902042711475,0.6091450448122241,-0.6407195907246713,1.8545317073619363,-2.727111437206629
1773062288172467968,1.0117580890655518,-4.1506781578063965,-0.8176371455192566,-0.2692733407020569,0.7702480554580688,0.5893683433532715,0.24364417791366577,-0.1768491268157959,0.30118024349212646,0.07140392065048218,0.11319332350753447,-0.7037594394033128,-0.3557312755977129,0.6044542998394195,-0.6302767265377004,1.8771567424791398,-2.674384712121679
1773062288182523136,1.021813154220581,-3.8875226974487305,-0.7078134417533875,-0.38678234815597534,0.7702317833900452,0.5817936658859253,0.26126474142074585,-0.23965317010879517,0.1695948839187622,-0.06735599040985107,0.09867187040165518,-0.7029705184614199,-0.36941145142160003,0.5996928696213324,-0.6209322652494308,1.8978200262969451,-2.6259871817930835
1773062288192579072,1.0318691730499268,-3.8668525218963623,-0.6396477222442627,-0.3030608296394348,0.7699568867683411,0.5740641951560974,0.2785975933074951,-0.16355741024017334,0.014360427856445312,-0.123858243227005,0.08480604021865448,-0.7020694437409051,-0.3826189946026511,0.5945663121886096,-0.611460797416981,1.9179757139878648,-2.579481114663862
1773062288202633984,1.041924238204956,-3.7551143169403076,-0.6903035044670105,-0.1149265468120575,0.7706652283668518,0.5646651387214661,0.295344740152359,-0.05415827035903931,-0.048506081104278564,-0.19602525234222412,0.070673034721094,-0.7011908216138971,-0.39497316130351257,0.5893496536282394,-0.6000274857830643,1.936765795533496,-2.534838543707352
1773062288212690176,1.0519802570343018,-3.5470504760742188,-0.7332387566566467,0.039478473365306854,0.7726664543151855,0.5537261962890625,0.3104412257671356,-0.022376537322998047,-0.0028533935546875,-0.244431734085083,0.056362926480692965,-0.7001699334634186,-0.40618059650612465,0.5844677628401629,-0.5868324403759132,1.9528354609221705,-2.493148077156284
1773062288222744832,1.062035083770752,-3.290886640548706,-0.7208633422851562,0.14792943000793457,0.775521993637085,0.5421180129051208,0.3235330283641815,-0.034112751483917236,0.022014617919921875,-0.2707681953907013,0.04265747584702326,-0.6991286100704971,-0.41591549694526303,0.5800119024322126,-0.572955588369295,1.9660255889344107,-2.455921622119564
1773062288232801024,1.0720911026000977,-3.412799835205078,-0.788283109664917,0.03699280321598053,0.7785453200340271,0.5302935242652893,0.3356424868106842,-0.0148124098777771,0.017069697380065918,-0.2549234926700592,0.029052797154831035,-0.697742224327914,-0.42541395419640765,0.5756167493766999,-0.5589467376378705,1.9778349412023095,-2.419745459816466
1773062288242855936,1.082146167755127,-3.5525269508361816,-0.8212705850601196,0.05864937976002693,0.7815455794334412,0.517983078956604,0.3476775288581848,0.004373490810394287,-0.09932780265808105,-0.16228336095809937,0.014950714884598669,-0.6958769247488427,-0.43542401879690024,0.5709094276269108,-0.5444913578596503,1.9893667251465503,-2.3821810152348233
1773062288252912128,1.0922021865844727,-3.4650392532348633,-0.7583238482475281,0.17312881350517273,0.7849565744400024,0.5045455098152161,0.3595511317253113,-0.01743948459625244,-0.21047812700271606,-0.07199931144714355,0.0005337058050015705,-0.6939871149974527,-0.4451487999084277,0.5658835033914184,-0.5288554619114157,2.0003263151749233,-2.3450833684279013
1773062288262967040,1.102257251739502,-3.2749369144439697,-0.6550533771514893,0.1978466510772705,0.788540244102478,0.4905973970890045,0.37083420157432556,-0.055279314517974854,-0.27499085664749146,-0.04042050242424011,-0.01337011222147534,-0.692328008599447,-0.4539813057132112,0.5607173748356931,-0.512775201334712,2.0103859951536722,-2.310608322769463
1773062288273023232,1.1123132705688477,-2.919306516647339,-0.5564194917678833,0.14197033643722534,0.7916463017463684,0.477540522813797,0.3811182677745819,-0.07434588670730591,-0.3012862503528595,-0.0546717643737793,-0.02602267378268798,-0.6907027786318369,-0.4620484823048756,0.5556650591797573,-0.4978532993818088,2.0194737656807935,-2.279237308342431
1773062288283077888,1.1223680973052979,-2.529646396636963,-0.47083020210266113,0.08939244598150253,0.7941821813583374,0.4660421311855316,0.3899737298488617,-0.0470813512802124,-0.24547633528709412,-0.09175598621368408,-0.037015425865308926,-0.6891078015880553,-0.4691666043090703,0.5510381325176763,-0.48481212336654145,2.027248779897192,-2.2518035229717115
1773062288293134080,1.1324241161346436,-1.9919615983963013,-0.3838540315628052,0.07229547947645187,0.7962406277656555,0.4563918113708496,0.39712363481521606,-0.006735742092132568,-0.15931850671768188,-0.12423557043075562,-0.04612785139212663,-0.6876452960231019,-0.47508501082434573,0.547092615036392,-0.4739357985970139,2.0334420561167463,-2.229082318937067
1773062288303188992,1.1424791812896729,-1.3794795274734497,-0.3813360631465912,0.0583171546459198,0.7980560660362244,0.44916218519210815,0.40169623494148254,0.031808435916900635,-0.10425251722335815,-0.19439029693603516,-0.05297846094168054,-0.6863513481820556,-0.47934324967858816,0.544375946757495,-0.4658273985625771,2.037115072231371,-2.212586817646568
1773062288313245184,1.1525352001190186,-1.00420343875885,-0.3509371280670166,0.04424554482102394,0.799778938293457,0.4439857602119446,0.40401819348335266,0.04473412036895752,-0.06620857119560242,-0.1578938364982605,-0.05806903851508101,-0.685135936430636,-0.48228399557786716,0.5427882002391577,-0.4600420144945026,2.0385652810653037,-2.2010266891312287
1773062288323300096,1.1625902652740479,-0.7963444590568542,-0.34556588530540466,0.08343125134706497,0.8014354109764099,0.43987342715263367,0.4052315354347229,0.06031990051269531,-0.062401533126831055,-0.08769622445106506,-0.06213670774387149,-0.684077458325145,-0.4844107812277981,0.5417778607635652,-0.4554577328839968,2.0389395276519453,-2.192392692643714
1773062288333355008,1.172645092010498,-0.5945807099342346,-0.3558387756347656,0.1479780226945877,0.8033909797668457,0.43607211112976074,0.40546780824661255,0.1032404899597168,-0.049231261014938354,-0.027080416679382324,-0.06573547944476912,-0.6831674327960456,-0.4858149507645538,0.5412439170474185,-0.4512292683881098,2.0381932730081616,-2.1859509652849285
1773062288343410944,1.1827011108398438,-0.25397568941116333,-0.38140979409217834,0.23328793048858643,0.8057042360305786,0.4327886700630188,0.4043945372104645,0.13100242614746094,-0.036639899015426636,-0.021581947803497314,-0.06861076790887471,-0.6824993761753485,-0.4862014675832597,0.541382850224485,-0.447583859615249,2.035974260264096,-2.1826436223474697
1773062288353466112,1.192756175994873,0.0010960418730974197,-0.4414384961128235,0.2979319095611572,0.8085456490516663,0.4301460087299347,0.40153244137763977,0.16469037532806396,0.02981489896774292,-0.01548507809638977,-0.07072900959011715,-0.6820023513517597,-0.4854266296952509,0.5424307996051195,-0.44465450604995976,2.0317288397637427,-2.1828998254846663
1773062288363522048,1.2028121948242188,-0.049323223531246185,-0.47607216238975525,0.2122122049331665,0.8115386366844177,0.4279491603374481,0.3978252708911896,0.18624895811080933,0.19616588950157166,0.1338215470314026,-0.07261572669477162,-0.6813808378607832,-0.4843890879749344,0.5438882809534782,-0.4422224395123594,2.026582215730622,-2.1840793415017012
1773062288373577216,1.212867259979248,-0.17019851505756378,-0.5758741497993469,0.21331608295440674,0.8144323825836182,0.42586490511894226,0.39413076639175415,0.22707152366638184,0.33264949917793274,0.3106573820114136,-0.0747778255600586,-0.6804403003446448,-0.4838040789648847,0.5452915897456945,-0.4399175850119317,2.021507988430715,-2.183983396490637
1773062288383632896,1.2229230403900146,-0.3699648976325989,-0.8144954442977905,0.2057773470878601,0.8181555867195129,0.4230731725692749,0.389397531747818,0.12647020816802979,0.2687907814979553,0.369574636220932,-0.07802455006806905,-0.6788775675238995,-0.48355352375451044,0.5470039908263593,-0.43683431967456643,2.0150158857590235,-2.182283122929523
1773062288393688064,1.232978105545044,-0.5622187256813049,-0.5782032608985901,0.2696908116340637,0.821988046169281,0.41924723982810974,0.38544416427612305,-0.15435510873794556,0.10631117224693298,0.2837452292442322,-0.0820164647463751,-0.677317945309116,-0.4836966895129866,0.5482254628826398,-0.43261600940495537,2.009269785496136,-2.1788238260741175
1773062288403744000,1.2430341243743896,-0.7595444321632385,-0.3547740876674652,0.15691997110843658,0.8246363997459412,0.4148322641849518,0.3845638036727905,-0.06484013795852661,0.084404855966568,0.17648667097091675,-0.0859761187452055,-0.6763523342169369,-0.48459201221156206,0.5480203551524804,-0.4277584625350775,2.0071580636391175,-2.1731825028758047
1773062288413799168,1.253089189529419,-0.6328336000442505,-0.20586051046848297,0.007416769862174988,0.8260493874549866,0.4113767445087433,0.3852424621582031,0.19395500421524048,0.166214257478714,0.08295828104019165,-0.08935582180498304,-0.6754369676585312,-0.4862161345736091,0.5471694148264967,-0.4239640225007783,2.007177660066452,-2.166239595690082
1773062288423855104,1.2631452083587646,-0.10263524949550629,-0.0745755210518837,-0.06194674223661423,0.8264399170875549,0.41019031405448914,0.3856695890426636,0.19832509756088257,0.22785595059394836,-0.06912600994110107,-0.09088159006437771,-0.6748074296021315,-0.48730865505443716,0.5467227649502218,-0.4226627433861732,2.0074211153028902,-2.162301988436394
1773062288433910016,1.2732000350952148,0.41745004057884216,-0.023096885532140732,-0.01889302022755146,0.8264224529266357,0.4112014174461365,0.3846290707588196,0.1614774465560913,0.2183457911014557,-0.15531998872756958,-0.09032108523392812,-0.6746393868997609,-0.48700742387034823,0.5472911764256824,-0.42377166339480915,2.0063948311223503,-2.1636824803347463
1773062288443965952,1.2832560539245605,0.48630788922309875,-0.059027109295129776,0.05926679074764252,0.8266185522079468,0.4129590690135956,0.3823172152042389,0.16643863916397095,0.11128711700439453,-0.1622854769229889,-0.0887594229851242,-0.6748283488667732,-0.48555669206753344,0.5486010564706831,-0.4257007367387898,2.004002596359964,-2.168755620533836
1773062288454020864,1.2933111190795898,0.2873641550540924,-0.1406269073486328,0.0865335687994957,0.8272950053215027,0.4138434827327728,0.3798905313014984,0.17999881505966187,0.056936025619506836,-0.08464819192886353,-0.08784531604054514,-0.6749390249786781,-0.4841514040281928,0.5498527233452195,-0.4266720117112263,2.0012712692117556,-2.1731142216240684
1773062288464077056,1.3033671379089355,0.10352141410112381,-0.33549758791923523,-0.0065545812249183655,0.8283669352531433,0.41417640447616577,0.3771821856498718,0.14106982946395874,0.09473481774330139,-0.11819463968276978,-0.08793929342187923,-0.6744569567888344,-0.48342414553407953,0.5510677817448004,-0.4270377643093292,1.998075690068685,-2.1750623055453167
1773062288474131968,1.3134222030639648,-0.12909558415412903,-0.5477230548858643,-0.02999386005103588,0.8299484252929688,0.4142407476902008,0.3736180067062378,0.0928574800491333,0.08583560585975647,-0.1817692220211029,-0.08904741525308706,-0.673172876420187,-0.48337074739539937,0.5525048569103475,-0.4271084703071722,1.9937917475784446,-2.1746986515946043
1773062288484188160,1.3234782218933105,-0.1986275613307953,-0.754676103591919,-0.02214948832988739,0.8322977423667908,0.4137994945049286,0.3688502311706543,0.08774620294570923,0.006503880023956299,-0.2677760124206543,-0.09113423137213862,-0.671230640321941,-0.483605778182812,0.554318915708807,-0.4266236923817942,1.9879567726194407,-2.1729374460658177
1773062288494242816,1.3335330486297607,-0.19246020913124084,-0.8900296688079834,-0.019953180104494095,0.8352451920509338,0.41327014565467834,0.36273056268692017,0.06752580404281616,-0.07969772815704346,-0.2759232521057129,-0.09376161366847145,-0.6687571661508781,-0.4838689228629455,0.5566359140448482,-0.42604230542239113,1.980501178074789,-2.170784479680079
1773062288504299008,1.3435890674591064,-0.04413684830069542,-0.9251139163970947,-0.02800656110048294,0.8384643793106079,0.41299036145210266,0.35555127263069153,-0.007470607757568359,-0.051921576261520386,-0.18501898646354675,-0.09635530389976311,-0.6660760175379752,-0.4838578026200076,0.559410512089812,-0.42573509259036546,1.9718624922800119,-2.1694064504989052
1773062288514353920,1.3536441326141357,0.23504844307899475,-0.8344817161560059,-0.03540109470486641,0.8414446711540222,0.41359591484069824,0.3477199673652649,-0.11926150321960449,0.02912256121635437,-0.09251669049263,-0.09810027481871499,-0.6635510724527134,-0.48328040645665454,0.5625978133865335,-0.4264000914304255,1.9626655241613502,-2.17019494536233
1773062288524410112,1.3637001514434814,0.43993961811065674,-0.7162123322486877,-0.028255125507712364,0.8440037965774536,0.41506505012512207,0.3396741449832916,-0.1563360095024109,0.12271568179130554,0.036577075719833374,-0.09875377190985678,-0.6614274504033797,-0.4820277930416989,0.5660482272821366,-0.42801429548805525,1.9534178841176453,-2.1735779798230657
1773062288534465024,1.3737552165985107,0.47580257058143616,-0.5136240720748901,-0.04604450985789299,0.8459401726722717,0.4169771671295166,0.33243829011917114,-0.15874534845352173,0.138198584318161,0.14542114734649658,-0.09859275262790407,-0.659791423187547,-0.4805147534302722,0.5692629428352826,-0.4301170346719031,1.9452371240824242,-2.178222922689984
1773062288544521216,1.3838112354278564,0.3776989281177521,-0.33124595880508423,-0.08808648586273193,0.8470422625541687,0.41895079612731934,0.3271075189113617,-0.12609517574310303,0.1269475519657135,0.18393975496292114,-0.0979378521961145,-0.658698119418311,-0.4792395483604556,0.5717117319442413,-0.4322895012985788,1.9393290767141882,-2.1825526931543995
1773062288554575872,1.3938660621643066,0.2153118997812271,-0.1958034336566925,-0.1133231371641159,0.8474571704864502,0.4207807779312134,0.32366567850112915,-0.04740852117538452,0.16091465950012207,0.1813543438911438,-0.0972944186440734,-0.6578527619659433,-0.4786048269536528,0.5733243359756127,-0.43430583799315564,1.9356249832895378,-2.1851853637036442
1773062288564632064,1.4039220809936523,0.07978282868862152,-0.08445613086223602,-0.1417960673570633,0.847374677658081,0.4223739802837372,0.3218015432357788,0.01840895414352417,0.12904807925224304,0.1348024308681488,-0.09678061218743694,-0.6571895677199973,-0.4785422122061569,0.574223539111762,-0.4360628037235292,1.933736237718984,-2.186193449827414
1773062288574686976,1.4139771461486816,-0.06644788384437561,-0.10277281701564789,-0.20394198596477509,0.8468937873840332,0.42388808727264404,0.32107606530189514,0.0901484489440918,0.08850204944610596,0.09619081020355225,-0.09647153276751991,-0.6565164113801986,-0.4790868784439971,0.5745913627563505,-0.43773385617694766,1.933175894759872,-2.1854966605126362
1773062288584742912,1.4240331649780273,-0.4859333336353302,-0.13022568821907043,-0.21731829643249512,0.8463983535766602,0.42481645941734314,0.3211560547351837,0.1656562089920044,0.02423456311225891,0.07148322463035583,-0.0970420746994843,-0.6555221226621067,-0.4804880602748302,0.5744605984965107,-0.4387591361051266,1.9334525204574675,-2.1819060826814454
1773062288594798080,1.4340882301330566,-0.5418996810913086,-0.2384413778781891,-0.14846573770046234,0.8461478352546692,0.4246370196342468,0.32205167412757874,0.3121163249015808,-0.13771075010299683,-0.09287989139556885,-0.09869276519566289,-0.6543297828355273,-0.48257473521351524,0.5737890944520294,-0.43856091444346396,1.934475581580029,-2.175562981356595
1773062288604854016,1.4441442489624023,-0.637653648853302,-0.3957079350948334,-0.12463273853063583,0.8466689586639404,0.42378145456314087,0.32180917263031006,0.42087864875793457,-0.17507842183113098,-0.07328927516937256,-0.10102979289616264,-0.6528248567792332,-0.4844835274300122,0.5734879848338227,-0.4376161267060115,1.9340206958820556,-2.1690641989848047
1773062288614908928,1.4541990756988525,-0.6325308084487915,-0.46350374817848206,-0.11464215070009232,0.8475286960601807,0.42277398705482483,0.32086965441703796,0.31094908714294434,-0.18028131127357483,-0.07646965980529785,-0.1038018949967235,-0.6509652430034459,-0.4864967344841164,0.5734024500584795,-0.436504144132727,1.9327145449054235,-2.1619897153538794
1773062288624964864,1.4642550945281982,-0.5824679136276245,-0.5644526481628418,-0.017432697117328644,0.8488844633102417,0.4214097857475281,0.3190755546092987,0.2655107378959656,-0.2236557900905609,-0.1272878348827362,-0.1068409420598864,-0.6489980912501893,-0.48820001195352114,0.5736264855111501,-0.434999313983044,1.9303350265037547,-2.155423921274511
1773062288635020032,1.4743101596832275,-0.591177225112915,-0.6113160252571106,-0.01247468963265419,0.8507070541381836,0.41972222924232483,0.3164346218109131,0.2131967544555664,-0.19242730736732483,-0.13105559349060059,-0.11016795297627441,-0.6468900451077582,-0.48964332391212284,0.5741478616578608,-0.43313926794977187,1.9269049406583911,-2.1492291844407254
1773062288645075968,1.4843661785125732,-0.619002103805542,-0.613706111907959,0.032915957272052765,0.8526950478553772,0.41772133111953735,0.31371933221817017,0.13402968645095825,-0.13171064853668213,-0.04110589623451233,-0.11369633095451495,-0.6447815139161237,-0.4910361174333016,0.574641957374494,-0.4309359063264063,1.9233411156449662,-2.142911613034497
1773062288655131136,1.4944212436676025,-0.5494315028190613,-0.539347767829895,0.12462536990642548,0.8548349738121033,0.41522130370140076,0.31120479106903076,0.08530473709106445,-0.14727699756622314,0.06605347990989685,-0.11723457123787202,-0.6429677811933204,-0.4921329336695499,0.5750249204414484,-0.42818604856094833,1.9199347888689342,-2.1371553576196205
1773062288665187072,1.5044772624969482,-0.36571159958839417,-0.4584517478942871,0.14696428179740906,0.8569785952568054,0.41249722242355347,0.30892348289489746,0.07229691743850708,-0.11350125074386597,0.12560105323791504,-0.12026899085398723,-0.6417325211018245,-0.49258614806188006,0.5753899877621292,-0.4251936865836043,1.9167765995536303,-2.1332596439267006
1773062288675241984,1.5145320892333984,-0.13408531248569489,-0.4597492516040802,0.203175887465477,0.8591641187667847,0.4100704789161682,0.3060706853866577,0.06586945056915283,-0.028631269931793213,0.053243279457092285,-0.12283730528794087,-0.6406717097405101,-0.4925191446900284,0.5760865022924601,-0.4225313479000456,1.9130214594535955,-2.1310569524746312
1773062288685297920,1.5245881080627441,0.009153835475444794,-0.24326477944850922,0.2915270924568176,0.8612613081932068,0.40811672806739807,0.30276980996131897,-0.04032325744628906,-0.04512545466423035,-0.05238834023475647,-0.12470116562107718,-0.6398983419162848,-0.49184856853448045,0.5771175443492329,-0.4203902313098081,1.9088444991659066,-2.130968883066821
1773062288695353088,1.5346431732177734,-0.2390298694372177,-0.42775261402130127,0.08039833605289459,0.8630269765853882,0.40629321336746216,0.30018389225006104,0.0010019540786743164,0.011675536632537842,-0.057935357093811035,-0.1264162104881366,-0.6392397841657578,-0.49139032273210326,0.5778642014617721,-0.41839367572007,1.9055337890147146,-2.1304624497658833
1773062288705409024,1.5446991920471191,-0.7982062101364136,-0.39750567078590393,-0.05676107108592987,0.8644249439239502,0.40474462509155273,0.29824721813201904,-0.0841972827911377,0.0008187592029571533,0.025284886360168457,-0.12910125622042443,-0.6376579185753897,-0.49245911886754473,0.5781083827675361,-0.4166995277378589,1.9030311727436895,-2.125514782877194
1773062288715464192,1.5547542572021484,-1.3311949968338013,-0.30813318490982056,-0.1445508450269699,0.8649700880050659,0.4021903872489929,0.3001162111759186,-0.15722167491912842,0.09404069185256958,0.2111448049545288,-0.13294426072484528,-0.6359954537030843,-0.49554806552850617,0.5764266965839234,-0.41390799434324593,1.9047667332171765,-2.1143601068901683
1773062288725519872,1.564810037612915,-1.508826732635498,-0.25096917152404785,-0.10842538625001907,0.8653422594070435,0.39884868264198303,0.3034842312335968,-0.002259373664855957,0.13336265087127686,0.22173857688903809,-0.13795379102413471,-0.6338632336150155,-0.49995950924070515,0.5737828096847825,-0.4102609877928837,1.9081035545462999,-2.098820771200946
1773062288735575040,1.5748651027679443,-1.226242184638977,-0.23658010363578796,-0.06912139058113098,0.8657217621803284,0.3954094350337982,0.306883305311203,-0.05331331491470337,0.07320323586463928,0.05841207504272461,-0.14270208325032332,-0.6319537017754797,-0.5040596845020671,0.5711344115036351,-0.40651357946321226,1.9114589571305944,-2.0842011019939846
1773062288745630976,1.58492112159729,-0.9369151592254639,-0.12399972975254059,-0.05784466862678528,0.8660385608673096,0.39259687066078186,0.30958864092826843,-0.08184349536895752,-0.042117685079574585,0.05300596356391907,-0.14638478933414997,-0.6305197433706328,-0.5071875075063021,0.5690142697187736,-0.40345345746418837,1.9141163458312878,-2.072943416389166
1773062288755686144,1.5949761867523193,-0.856728196144104,0.020359309390187263,-0.08543048799037933,0.865936279296875,0.3904399275779724,0.3125876188278198,-0.0677337646484375,-0.1280192732810974,0.24052822589874268,-0.1491539139623842,-0.6295021158898075,-0.5099224360896033,0.5669738189421468,-0.4011094059947601,1.9172211687154515,-2.0634978748437605
1773062288765742080,1.605032205581665,-0.7728859186172485,0.14354340732097626,-0.1089465320110321,0.8652961254119873,0.38867872953414917,0.3165302574634552,0.02497786283493042,-0.08371660113334656,0.3404521644115448,-0.15128261461462073,-0.6288552674321448,-0.5126462563153702,0.5646666324547197,-0.39919713825652825,1.9214819933916365,-2.0546468678557246
1773062288775797248,1.6150872707366943,-0.4843931496143341,0.27800026535987854,-0.10263563692569733,0.864201009273529,0.38752591609954834,0.3209053874015808,0.14472538232803345,-0.01002347469329834,0.30395734310150146,-0.15243207850552454,-0.6287328713223778,-0.5149249107669192,0.5624160166976399,-0.39794627631899904,1.9263472228543683,-2.047788220226833
1773062288785852928,1.625143051147461,-0.3260151147842407,0.36435964703559875,-0.1378670185804367,0.862689733505249,0.3872896730899811,0.3252274990081787,0.19668209552764893,0.053429871797561646,0.3396284282207489,-0.1524991815255765,-0.629031537319257,-0.5166556570346293,0.5604731541646298,-0.3976900085935455,1.9313126356554788,-2.043327869521202
1773062288795908096,1.6351981163024902,-0.1926078200340271,0.4192388653755188,-0.09233787655830383,0.8609119653701782,0.3875051438808441,0.32965177297592163,0.2212565541267395,0.0817025899887085,0.18833836913108826,-0.15197606810434863,-0.6295942502698322,-0.5181090243426395,0.5586388576167606,-0.3979237480540566,1.936483652915543,-2.040104686238765
1773062288805964032,1.645254135131836,0.12127185612916946,0.28077027201652527,-0.13364136219024658,0.8593114018440247,0.38821229338645935,0.332978755235672,0.3036065697669983,0.0541246235370636,-0.04597625136375427,-0.15083022892308776,-0.6303802496761577,-0.518758242536792,0.5574591900298852,-0.3986909614743078,1.940476152211861,-2.0394746613081707
1773062288816018944,1.6553092002868652,0.20503173768520355,0.3246953785419464,-0.1325177699327469,0.8578165173530579,0.3900488018989563,0.33468320965766907,0.19697779417037964,0.004467189311981201,-0.04514765739440918,-0.149089454147359,-0.6309648859525975,-0.5188688823486132,0.5571631396006915,-0.40068460090694663,1.9427887598192204,-2.0408935610510657
1773062288826075136,1.665365219116211,0.22931057214736938,0.39533311128616333,-0.048493944108486176,0.8561657071113586,0.39160922169685364,0.3370790481567383,0.1118059754371643,0.0551832914352417,0.08348366618156433,-0.1471693480366492,-0.6319117461591632,-0.5188709532892644,0.5565982275566419,-0.40237985216268285,1.945866573263965,-2.04264167639266
1773062288836129792,1.6754200458526611,0.17894195020198822,0.39715149998664856,0.07978998869657516,0.8548696637153625,0.3921757936477661,0.33970004320144653,0.14099520444869995,0.07111155986785889,0.09412264823913574,-0.14551772846009395,-0.6332195709147583,-0.5185392863820367,0.555854840122689,-0.40299568246137196,1.9490338955935633,-2.0447966952513865
1773062288846185984,1.6854760646820068,-0.0336831770837307,0.4159139096736908,0.10014595091342926,0.8538795709609985,0.3916833698749542,0.3427445888519287,0.10016095638275146,0.040048807859420776,0.04226517677307129,-0.1444382330064344,-0.6346532537132397,-0.518254326360744,0.554765992375546,-0.4024604243988531,1.9525063367005988,-2.0461666366686377
1773062288856240896,1.6955311298370361,-0.4324532151222229,0.46187421679496765,0.05177868902683258,0.8526686429977417,0.39014461636543274,0.3474816679954529,0.0373154878616333,0.01923343539237976,0.041785240173339844,-0.14427900731783824,-0.6359263401236925,-0.5189783456908307,0.5526687874223167,-0.4007886586656343,1.9577707604622439,-2.044080151207877
1773062288866296064,1.7055861949920654,-0.6936320662498474,0.47760090231895447,0.039694298058748245,0.8511601090431213,0.38775891065597534,0.35379260778427124,0.06641173362731934,0.022717714309692383,0.03666454553604126,-0.14499858309141198,-0.63692838077638,-0.5207864610751511,0.5496171331211455,-0.39819901857941215,1.964728781202399,-2.038438016263449
1773062288876352000,1.7156422138214111,-0.67036372423172,0.5361171960830688,0.054678041487932205,0.8495244979858398,0.38490018248558044,0.3607766628265381,0.0969170331954956,0.05844384431838989,0.025209635496139526,-0.1460282658522145,-0.637910746841189,-0.522932315073159,0.5461569094607549,-0.3950996828839087,1.9723964786008177,-2.0316301781171875
1773062288886406912,1.7256970405578613,-0.5036123394966125,0.6194403171539307,0.1127300038933754,0.8477402329444885,0.3819686472415924,0.3680168390274048,0.10724633932113647,0.1366928517818451,0.035669684410095215,-0.14666696964645579,-0.6392780177789573,-0.5247209066043295,0.542660454946741,-0.3919255117982386,1.9803621280390127,-2.0260051036440734
1773062288896462848,1.735753059387207,-0.2819356322288513,0.6623015403747559,0.10703136771917343,0.845772385597229,0.3795473873615265,0.37498435378074646,0.12198591232299805,0.10095196962356567,-0.04141196608543396,-0.14652976864984169,-0.6410412159025618,-0.5258881384356529,0.5394784445840507,-0.3893070279635157,1.9881174037942715,-2.022625929039847
1773062288906518016,1.7458081245422363,-0.22354409098625183,0.6443290710449219,0.07905591279268265,0.8436266779899597,0.3778592050075531,0.38146600127220154,0.09930539131164551,0.0008486509323120117,-0.09484496712684631,-0.14579257101500587,-0.6429033927319391,-0.5266955742428265,0.5366670109861407,-0.38748298358207856,1.9954566289567495,-2.0207411648681672
1773062288916573952,1.755864143371582,-0.36531853675842285,0.6191832423210144,0.009941823780536652,0.8413566946983337,0.37632325291633606,0.3879425823688507,0.07526910305023193,0.005512595176696777,-0.1134369969367981,-0.14521149219143584,-0.6444978718190798,-0.5278198344806754,0.5337998114683563,-0.38582461504936566,2.0028357137316726,-2.0179801788678167
1773062288926629120,1.7659192085266113,-0.39777591824531555,0.566524863243103,0.0171030443161726,0.839043378829956,0.3747257590293884,0.39444491267204285,0.07636189460754395,0.013640940189361572,-0.13670873641967773,-0.14492133299922397,-0.6458199844013333,-0.5292815854920296,0.530825146373595,-0.38410096855284187,2.0102494780169957,-2.0141535586634647
1773062288936685056,1.775975227355957,-0.32743650674819946,0.5246157646179199,0.09528439491987228,0.837084174156189,0.3728061318397522,0.40038228034973145,0.11149382591247559,-0.016330242156982422,-0.11893385648727417,-0.14479102271681898,-0.6471611653081191,-0.5304465732170685,0.5280573036238794,-0.3820313226487139,2.016938510886106,-2.010904656132759
1773062288946740480,1.7860305309295654,-0.1672936975955963,0.46811622381210327,0.1329120546579361,0.8354912996292114,0.3707895576953888,0.4055480360984802,0.15214896202087402,-0.01135358214378357,-0.12464898824691772,-0.14461167394272034,-0.648597267446389,-0.5311267270474662,0.5256551933128636,-0.37985905128222536,2.0226964038285384,-2.008900676532283
1773062288956796416,1.7960865497589111,0.07170183211565018,0.3727015554904938,0.15559259057044983,0.8343140482902527,0.36934179067611694,0.40927547216415405,0.14133280515670776,0.003384619951248169,-0.1506848931312561,-0.14404190345748408,-0.6500666641807513,-0.5310848064316198,0.5240363322166273,-0.37830062890569555,2.0268580335180095,-2.0091065829413814
1773062288966851328,1.8061413764953613,0.2765624225139618,0.30627700686454773,0.08518118411302567,0.8334124088287354,0.3690408170223236,0.41137903928756714,0.05203986167907715,0.03888767957687378,-0.15605378150939941,-0.1428630796513787,-0.6514351082382274,-0.5303977998737631,0.5233551646364643,-0.3779767644794529,2.0293173047865074,-2.0115847938601075
1773062288976907264,1.816197395324707,0.20700809359550476,0.347464919090271,-0.049908723682165146,0.8321302533149719,0.36998701095581055,0.41312095522880554,-0.06926709413528442,0.06230974197387695,-0.08336329460144043,-0.14120962657494618,-0.652493581172495,-0.5299175483662365,0.5229716950717113,-0.3789950353731432,2.031609442146446,-2.0141074947905713
1773062288986962432,1.8262524604797363,-0.08727490156888962,0.39747995138168335,-0.10436796396970749,0.8302737474441528,0.3709453344345093,0.4159869849681854,-0.09380829334259033,0.07827341556549072,0.025358200073242188,-0.139759352552748,-0.6533274023213719,-0.5302422123380318,0.5219902907706288,-0.38002678513501936,2.035262730340915,-2.014453850100469
1773062288997018368,1.836308479309082,-0.44695743918418884,0.3774074614048004,-0.08148421347141266,0.8282701373100281,0.37058225274086,0.4202826917171478,-0.055351436138153076,0.10619387030601501,0.08159410953521729,-0.13936452090326568,-0.6539105108749895,-0.5315471630286993,0.5200348596710234,-0.3796358359436846,2.0403640717387397,-2.0113413635186683
1773062289007073280,1.8463635444641113,-0.5851121544837952,0.3599008023738861,-0.08929461985826492,0.8264371752738953,0.36901673674583435,0.4252389371395111,-0.037634074687957764,0.09889402985572815,0.008888840675354004,-0.13991498577810949,-0.65426970098274,-0.5334328767314267,0.5174981091890918,-0.377950870983923,2.046011956182695,-2.005888719824187
1773062289017129472,1.856419563293457,-0.6670123338699341,0.46852555871009827,-0.2254742980003357,0.8241333961486816,0.36755162477493286,0.4309411942958832,-0.06107175350189209,0.10074067115783691,-0.03608947992324829,-0.14049581104223313,-0.6544863844397923,-0.5358340824395508,0.5145779527104396,-0.376374988227389,2.052597387827204,-1.9991343914304052
1773062289027184128,1.8664743900299072,-0.6813746094703674,0.5766994953155518,-0.2860068380832672,0.8208373188972473,0.36681613326072693,0.43780389428138733,-0.040731608867645264,0.13712066411972046,0.006699979305267334,-0.1406137949452634,-0.6546343533229144,-0.5388467351867956,0.5112004309959103,-0.3755842601816233,2.060776406833364,-1.9912756500997622
1773062289037240320,1.876530408859253,-0.5900537371635437,0.5739279985427856,-0.16403406858444214,0.8173989653587341,0.3658411204814911,0.44499385356903076,0.05474776029586792,0.12059387564659119,0.028059184551239014,-0.14054469779550022,-0.6550721912282834,-0.5416431905905129,0.5076912052759975,-0.37453641699043266,2.0693317061371435,-1.9840358876967528
1773062289047295232,1.8865854740142822,-0.4333992600440979,0.430366575717926,-0.20147807896137238,0.8145216107368469,0.36488407850265503,0.45101502537727356,0.11768370866775513,0.047774672508239746,-0.0672563910484314,-0.1404542303882938,-0.6555264702630589,-0.5438681408189285,0.5047427473982872,-0.3735082823926404,2.0764893125547794,-1.9782609854091155
1773062289057351424,1.896641492843628,-0.5060611963272095,0.47716817259788513,-0.40400028228759766,0.8114128112792969,0.3652983605861664,0.45625290274620056,0.055744290351867676,0.005261361598968506,-0.09954816102981567,-0.13999214341693422,-0.6554698676534629,-0.5463384583374957,0.5022707188288026,-0.37395328996066834,2.0830296171043368,-1.97234491552095
1773062289067406336,1.9066965579986572,-0.630778968334198,0.5716511607170105,-0.3887020945549011,0.8074656128883362,0.36593490839004517,0.4626998007297516,0.03326314687728882,-0.005278170108795166,-0.0520857572555542,-0.13937227797036686,-0.6553239756748379,-0.5494546283279798,0.4992249392154244,-0.3746371993954854,2.0911467630072185,-1.9649024085795095
1773062289077462272,1.9167523384094238,-0.6091032028198242,0.6022471785545349,-0.3398469388484955,0.8033897280693054,0.3659656047821045,0.46971726417541504,0.11615067720413208,-0.04997134208679199,-0.006246805191040039,-0.13887660976751606,-0.6553608071701956,-0.5525946484508106,0.49583738822814594,-0.37467017052128343,2.099866940288524,-1.9571868352850492
1773062289087517184,1.9268074035644531,-0.6012746095657349,0.5817413926124573,-0.3749271333217621,0.7992563843727112,0.36601346731185913,0.4766796827316284,0.18768209218978882,0.006072133779525757,0.018223881721496582,-0.138295260364635,-0.6554269363396964,-0.5556576053722908,0.4924780412630641,-0.3747215989447372,2.108567503134591,-1.9497042824785986
1773062289097573376,1.9368634223937988,-0.42061081528663635,0.558971643447876,-0.48715701699256897,0.7948731184005737,0.367068886756897,0.4831533133983612,0.16253960132598877,0.07928121089935303,0.018540382385253906,-0.13736006646319202,-0.6551756919999382,-0.5588572954836707,0.48944411536649074,-0.37585596418946565,2.1169584389244727,-1.9422369707810445
1773062289107628288,1.9469184875488281,-0.3840736150741577,0.6735029220581055,-0.37624311447143555,0.790328323841095,0.3683266043663025,0.4896091818809509,0.11024558544158936,0.12138909101486206,-0.0306704044342041,-0.13593887145689462,-0.6552864294655812,-0.5616086597513771,0.48653487525821704,-0.37720843844249125,2.125431539799334,-1.9362320857873407
1773062289117684480,1.9569745063781738,-0.38373619318008423,0.8059267401695251,-0.4105512797832489,0.7852166891098022,0.3696330189704895,0.4967961311340332,0.0795295238494873,0.12185260653495789,0.04435688257217407,-0.13414550215117654,-0.6556653656212594,-0.5643589206962513,0.4833290556907972,-0.3786140264975536,2.134904057349705,-1.930431432127087
1773062289127739136,1.967029333114624,-0.24843701720237732,0.8117967844009399,-0.29521554708480835,0.7797492146492004,0.3707754909992218,0.5044962167739868,0.1386619210243225,0.06538170576095581,-0.04595440626144409,-0.13202686109189152,-0.6564289160380652,-0.56687669735294,0.4799174165093369,-0.3798439012621745,2.1450583045021365,-1.9253649598055136
1773062289137795328,1.9770853519439697,-0.13826949894428253,0.6608426570892334,-0.28029438853263855,0.7749512195587158,0.3719995319843292,0.5109467506408691,0.20211470127105713,-0.0617731511592865,-0.1752992868423462,-0.12987249181377294,-0.6572811627017467,-0.5687309069597176,0.4771369000189461,-0.3811622067138928,2.1537008427086954,-1.9220206667336786
1773062289147850240,1.987140417098999,-0.10506641119718552,0.614420473575592,-0.34858477115631104,0.7705875039100647,0.3738768398761749,0.516150176525116,0.12270772457122803,-0.037390053272247314,-0.18149441480636597,-0.12766936900239467,-0.6578421315558215,-0.5703672564438768,0.4750004696624259,-0.38318550650901817,2.1609745639522084,-1.9193426388451418
1773062289157906176,1.9971964359283447,-0.3953014314174652,0.669409990310669,-0.44260209798812866,0.7657483816146851,0.37571269273757935,0.521985650062561,0.00797891616821289,0.07980784773826599,-0.07887053489685059,-0.1256841293633075,-0.658051608789014,-0.5726787087864998,0.4724516430835543,-0.38516570507742515,2.1691122291202394,-1.914725484533287
1773062289167961344,2.007251501083374,-0.43803083896636963,0.7570549845695496,-0.4661935269832611,0.7603546380996704,0.3768341541290283,0.5290151238441467,-0.03643178939819336,0.06618958711624146,0.10735267400741577,-0.12405295966062273,-0.6581405521800915,-0.5756375458286822,0.4691517389363965,-0.38637609614020135,2.1786628187768944,-1.9080515850887194
1773062289178017280,2.0173075199127197,-0.6337324380874634,0.8886372447013855,-0.6085376143455505,0.753897488117218,0.3783789575099945,0.5370923280715942,-0.07549160718917847,0.008522987365722656,0.24551576375961304,-0.12191809380973552,-0.6582882030141548,-0.5789670117669748,0.46539217397948357,-0.3880444104050564,2.1898099205290253,-1.900700130506281
1773062289188072192,2.02736234664917,-0.8810607194900513,1.0023882389068604,-0.6703746318817139,0.7463309168815613,0.3788411617279053,0.5472380518913269,-0.07842326164245605,0.04120272397994995,0.1462281346321106,-0.12035549525582774,-0.6580859323036583,-0.5835597002577306,0.46032110062698633,-0.38854381131736243,2.203483033016516,-1.8894601375671334
1773062289198128128,2.0374183654785156,-0.9567815661430359,1.1697429418563843,-0.7921686768531799,0.7375403642654419,0.3791368305683136,0.558828592300415,-0.039984822273254395,-0.013887226581573486,0.02726149559020996,-0.11853329155007417,-0.6578930859281461,-0.5887197858909727,0.4544618012533664,-0.388863318511884,2.219202322952737,-1.876752954316778
1773062289208183296,2.047473430633545,-0.8808716535568237,1.1981604099273682,-0.8153139352798462,0.7276943922042847,0.3798865079879761,0.5710927844047546,0.026562750339508057,0.05469900369644165,-0.005708873271942139,-0.11620870935787804,-0.6576248032651218,-0.5942019825296777,0.44827346198752516,-0.3896735955019956,2.236198484384187,-1.863418844383275
1773062289218239232,2.0575294494628906,-0.9382507801055908,1.1704760789871216,-0.8187438249588013,0.7177233099937439,0.38066408038139343,0.5830676555633545,0.04356813430786133,0.1023375391960144,0.025422275066375732,-0.11378336941022349,-0.6572930610711429,-0.5995829117811131,0.4421758217336153,-0.39051435355207403,2.2530436136589285,-1.8502984474128799
1773062289228294400,2.06758451461792,-1.0266796350479126,1.2054378986358643,-0.756754457950592,0.7077429890632629,0.3804052174091339,0.5953083038330078,-0.02135688066482544,0.07761791348457336,0.024793684482574463,-0.11176176082722554,-0.6569584140552489,-0.6050287510765877,0.4357238205929345,-0.3902344176518475,2.27012195609834,-1.836558586685217
1773062289238350336,2.0776405334472656,-1.2155094146728516,1.2861907482147217,-0.7439398765563965,0.697371780872345,0.3789370357990265,0.6083418726921082,-0.11175453662872314,0.024322330951690674,0.04375791549682617,-0.11003393079970555,-0.6567379707681482,-0.6106276971312085,0.4286277642031825,-0.3886474135914307,2.2881150120906244,-1.8220230907579698
1773062289248405248,2.087695360183716,-1.3243558406829834,1.3611785173416138,-0.7179757356643677,0.6864203810691833,0.3761325478553772,0.6223756074905396,-0.12041085958480835,0.0434994101524353,0.02741992473602295,-0.10859518261691124,-0.6566206881804568,-0.6164714718621734,0.420736611638856,-0.3856187802743653,2.307299370177576,-1.8064574412694858
1773062289258461184,2.0977513790130615,-1.3012497425079346,1.3512263298034668,-0.7907540798187256,0.6750018000602722,0.3729294538497925,0.6366289258003235,-0.05274838209152222,0.10151207447052002,0.05326676368713379,-0.10715100699113665,-0.6564024890864666,-0.6224550054756495,0.41255819577303254,-0.38216424033633495,2.326946967924162,-1.7904103607285589
1773062289268516352,2.107806444168091,-1.0153342485427856,1.455318570137024,-0.7818646430969238,0.6630954742431641,0.3706381320953369,0.6503322720527649,-0.04255098104476929,0.12080171704292297,0.07787817716598511,-0.10504467822183874,-0.6561525631698392,-0.6281957898760753,0.40472159369481975,-0.37969599408706384,2.3464773233719347,-1.7753596706475427
1773062289278572288,2.1178624629974365,-0.9699735045433044,1.6351567506790161,-0.8347443342208862,0.6499083638191223,0.3695046007633209,0.6641426682472229,-0.09654837846755981,0.10728678107261658,0.21725070476531982,-0.10175376261958292,-0.6561928236228659,-0.6336263092396968,0.3969569894668294,-0.37847584115811866,2.3670264202051956,-1.7617110343965257
1773062289288627456,2.127917528152466,-0.8058584928512573,1.6832367181777954,-0.8685184121131897,0.6354755163192749,0.36906400322914124,0.6782053709030151,-0.08359569311141968,0.08932524919509888,0.3405628800392151,-0.09763783186616094,-0.6563212060317613,-0.6390189157247148,0.3890554367222384,-0.3780017301332626,2.3887098676933887,-1.7484482868348215
1773062289298683392,2.1379735469818115,-0.8541226983070374,1.6354126930236816,-0.8369631767272949,0.6207804083824158,0.3685166537761688,0.6919735074043274,0.0004353523254394531,0.11009052395820618,0.3858463764190674,-0.09344003674443717,-0.6563780446668478,-0.6443249241710609,0.38115911429999494,-0.37741287321425687,2.4103732510729885,-1.7352907451164667
1773062289308738304,2.1480283737182617,-0.6911711096763611,1.714707374572754,-0.782219648361206,0.606030285358429,0.36814847588539124,0.7051196694374084,0.097415030002594,0.05209377408027649,0.2917674779891968,-0.08896796468827138,-0.6565961154434001,-0.6491851676122529,0.37353018741127275,-0.3770168472556373,2.431625501551855,-1.7233463871401762
1773062289318794240,2.1580843925476074,-0.9602654576301575,1.6460798978805542,-0.8574528694152832,0.5908117890357971,0.36746054887771606,0.718271791934967,0.12084287405014038,0.029374778270721436,0.22391271591186523,-0.08445305623727602,-0.6567424701693715,-0.6540835005221334,0.3656936463848459,-0.3762770589311396,2.4532543687067125,-1.7111269379052754
1773062289328849408,2.1681394577026367,-0.913702130317688,1.5478239059448242,-0.670684278011322,0.5764987468719482,0.36461201310157776,0.7312368750572205,0.14244961738586426,0.006252855062484741,0.06463110446929932,-0.08121798899088147,-0.6565940351732614,-0.6591682013628113,0.3574706000856221,-0.3732160958451856,2.473972101733525,-1.6976472325490477
1773062289338905344,2.1781954765319824,-0.6516596078872681,1.5562020540237427,-0.7395144701004028,0.5624659657478333,0.36287441849708557,0.7429360747337341,0.07825052738189697,-0.09871432185173035,-0.11659342050552368,-0.07733461691066866,-0.6568078044768321,-0.663378894511507,0.35007323456691525,-0.37135073706641053,2.4935723781261165,-1.686844479459357
1773062289348960512,2.1882505416870117,-0.4148876667022705,1.6264381408691406,-0.8957030773162842,0.5472672581672668,0.36363789439201355,0.753834068775177,-0.03017747402191162,-0.05275535583496094,0.0036731362342834473,-0.07214654181216101,-0.6567113268099543,-0.6675681684445424,0.3433333235005641,-0.3721701762264546,2.5136434528132194,-1.6765119931410386
1773062289359016448,2.1983065605163574,-0.5284877419471741,1.5601582527160645,-0.9724591374397278,0.5315691828727722,0.36519643664360046,0.7642421722412109,-0.06785452365875244,-0.028343379497528076,0.03786671161651611,-0.066687132130348,-0.6560824618829441,-0.6720691102501684,0.3367964343270559,-0.3738438136016567,2.5338590307492326,-1.6651992242174434
1773062289369071360,2.2083613872528076,-0.6238365173339844,1.5414726734161377,-0.9491082429885864,0.5160321593284607,0.36583665013313293,0.7745158672332764,-0.009730160236358643,-0.05651038885116577,0.07555145025253296,-0.06170302378704627,-0.6552324415084793,-0.6767040478299365,0.3300529280239421,-0.37453162125643047,2.5538687628819186,-1.6531184431640749
1773062289379127296,2.2184174060821533,-0.7605254054069519,1.526939868927002,-0.9729899168014526,0.5003741383552551,0.36527344584465027,0.7849845886230469,-0.0025867223739624023,-0.056923896074295044,0.07185733318328857,-0.0571588262608451,-0.6542497044479432,-0.6815054127563116,0.3228629856774168,-0.3739265386303359,2.5741035462341735,-1.6402111223311109
1773062289389182208,2.2284724712371826,-0.6414387822151184,1.4539988040924072,-0.6813955903053284,0.4854132831096649,0.36381080746650696,0.7949942350387573,0.01762324571609497,-0.02776646614074707,-0.10238242149353027,-0.05302128403651007,-0.6535160299935092,-0.6858672713991771,0.3157398992330859,-0.3723558053369014,2.593424797845904,-1.6283173888443367
1773062289399238400,2.2385284900665283,-0.3089045286178589,1.345533847808838,-0.33954691886901855,0.4723699986934662,0.36221209168434143,0.8035350441932678,0.08231741189956665,-0.1025380790233612,-0.36740851402282715,-0.04903330058574951,-0.6538931706095776,-0.6886154621891761,0.30956113848915234,-0.37064004803746603,2.610143858896281,-1.6210362934069802
1773062289409293312,2.2485835552215576,-0.003170841373503208,1.1801496744155884,-0.17281794548034668,0.46125584840774536,0.36218851804733276,0.8099769353866577,0.08105677366256714,-0.12405985593795776,-0.4301093816757202,-0.044778017190695824,-0.6549253098374002,-0.6899719594182739,0.3049696585503832,-0.37061475037233393,2.6239258453797256,-1.6178763474462028
1773062289419349248,2.258639335632324,0.12570378184318542,1.057719111442566,-0.11945486068725586,0.451593816280365,0.3635019361972809,0.8148185610771179,0.011113643646240234,-0.14675086736679077,-0.4470970630645752,-0.040419430716845305,-0.6561348475793435,-0.6905768115397759,0.30159072488282224,-0.37202422306085353,2.6355105247175974,-1.6169055262610181
1773062289429404160,2.2686944007873535,0.34353363513946533,0.9554691910743713,-0.003550376743078232,0.44317853450775146,0.36551398038864136,0.8185306787490845,-0.028948187828063965,-0.14912909269332886,-0.5164371728897095,-0.036158196720621025,-0.6574856793443261,-0.6906358869859714,0.29904396275937667,-0.3741849441906515,2.645351510383808,-1.6174711415252987
1773062289439459328,2.278749465942383,0.6204113364219666,0.8625262379646301,-0.07571858167648315,0.4356061816215515,0.3697643280029297,0.8206835985183716,-0.09663218259811401,-0.04189872741699219,-0.4611712694168091,-0.031319378941348036,-0.6588199323735774,-0.6901435411973162,0.29778731565603306,-0.3787553531237573,2.653621787426409,-1.6197241726918137
1773062289449515264,2.2888054847717285,0.49861565232276917,0.8461122512817383,-0.051471784710884094,0.4282994866371155,0.374859094619751,0.8222169876098633,-0.23854109644889832,0.07588562369346619,-0.14301759004592896,-0.026341671139738086,-0.6599181382302252,-0.6896495894532555,0.2969811000454558,-0.384244781391842,2.661358838193888,-1.6219245933041802
1773062289459570432,2.298860549926758,0.2732171416282654,0.8541417121887207,-0.03507496789097786,0.42113569378852844,0.3781951367855072,0.824386477470398,-0.29879075288772583,-0.00810849666595459,0.07115179300308228,-0.022064451321321985,-0.6611148946261595,-0.6892897425985389,0.2954993939597121,-0.38784583473990364,2.669304831997837,-1.6235205752187536
1773062289469626112,2.3089163303375244,0.272817999124527,0.8325751423835754,-0.05687235668301582,0.4139231741428375,0.3804766535758972,0.8269852995872498,-0.2142314612865448,-0.014647245407104492,0.07152831554412842,-0.01823026930161796,-0.6622179043122854,-0.689173496364476,0.29355559440049883,-0.39031165509606497,2.677528662468901,-1.6242553853710853
1773062289479681280,2.3189713954925537,0.45228949189186096,0.7635430693626404,0.0005571111105382442,0.40714213252067566,0.38361606001853943,0.8288992047309875,-0.09348252415657043,0.048940032720565796,-0.017314791679382324,-0.01420623615921675,-0.663320876050503,-0.6888069431502206,0.29214474588252837,-0.39370877564521745,2.6850225771662015,-1.6257093337953819
1773062289489737216,2.3290274143218994,0.5075477361679077,0.6850974559783936,0.03311408311128616,0.40122222900390625,0.3875831365585327,0.8299394845962524,-0.016395658254623413,-0.019052952527999878,-0.16960030794143677,-0.010130375253057756,-0.6644651844359334,-0.688081211588312,0.2914232329283159,-0.3980083489463957,2.6912842185335366,-1.6281949248242893
1773062289499792384,2.3390824794769287,0.7212054133415222,0.737517774105072,-0.03610440343618393,0.39533472061157227,0.3926299512386322,0.8303925395011902,0.04651394486427307,-0.11070868372917175,-0.36789876222610474,-0.005645263847704852,-0.665582043262358,-0.6871657828019645,0.29115589213797405,-0.4034894492816563,2.6972620778604326,-1.6312252216977818
1773062289509848320,2.3491384983062744,0.37654149532318115,0.6438488364219666,-0.1846143752336502,0.3890748620033264,0.39795249700546265,0.8308156132698059,0.012765318155288696,-0.13664576411247253,-0.2521260380744934,-0.0011405788740752895,-0.6661763141821536,-0.6867437102400116,0.290845140916986,-0.40928391469406594,2.7036212345110147,-1.632709846823657
1773062289519903488,2.3591935634613037,0.07869303226470947,0.559826672077179,-0.19704361259937286,0.38332703709602356,0.40053287148475647,0.8322463035583496,-0.07145264744758606,-0.26051822304725647,-0.07707357406616211,0.00194252457276069,-0.6664102637667884,-0.6870374866449993,0.2896085369288608,-0.4120983388383348,2.7099643788361307,-1.6318979235446747
1773062289529959168,2.3692493438720703,-0.34619343280792236,0.6094437837600708,-0.4011096656322479,0.37729987502098083,0.4006192684173584,0.8349542021751404,-0.15189707279205322,-0.35369858145713806,0.04602700471878052,0.003959175070197955,-0.6662519886078319,-0.6881754079539982,0.2872404781598946,-0.4121926389318891,2.7171756645884866,-1.6284521972701853
1773062289540014336,2.3793044090270996,-0.7217170000076294,0.6278116106987,-0.548398494720459,0.37009409070014954,0.39778319001197815,0.8395227789878845,-0.1382826566696167,-0.2466907501220703,0.17469829320907593,0.004961808720133891,-0.6654659167051927,-0.6905914049229102,0.28322055538874685,-0.40909938282673547,2.7263833614747965,-1.6210829988330344
1773062289550070272,2.3893604278564453,-0.7311793565750122,0.6190312504768372,-0.5181503295898438,0.3627167046070099,0.3934991955757141,0.8447455167770386,-0.05088809132575989,-0.1424768567085266,0.07967770099639893,0.005391421765687786,-0.6644671822007464,-0.6934378972999359,0.27856449461828053,-0.4044347779074132,2.7360180924809265,-1.6123927767380546
1773062289560125440,2.3994154930114746,-0.5812500715255737,0.6704904437065125,-0.4352338910102844,0.3553123474121094,0.3896371126174927,0.8496684432029724,-0.0124320387840271,-0.05308917164802551,0.13202112913131714,0.006138155904423427,-0.6637391485781576,-0.6959055733076426,0.274095264190089,-0.4002375318925745,2.745514754153733,-1.6048493915695246
1773062289570181376,2.4094715118408203,-0.448456346988678,0.6503216624259949,-0.3138313889503479,0.34813833236694336,0.38638031482696533,0.8541136384010315,0.04405829310417175,0.07205477356910706,0.22332477569580078,0.007194570086303736,-0.6633357063337408,-0.6978843366848446,0.26998418658482576,-0.3967038751814412,2.754550126092997,-1.598784728272127
1773062289580236288,2.4195263385772705,-0.08282589167356491,0.7148335576057434,-0.2623777985572815,0.3412645161151886,0.38519522547721863,0.8574165105819702,-0.007875263690948486,0.09557867050170898,0.10898357629776001,0.00909734637995207,-0.6632657767116125,-0.6991328585279911,0.266850067265691,-0.39541935444940757,2.762798751566775,-1.5949209596927714
1773062289590292224,2.429582357406616,0.11463438719511032,0.8502268195152283,-0.249428391456604,0.3334554135799408,0.38618022203445435,0.8600420951843262,-0.1662648618221283,0.12381428480148315,0.17805910110473633,0.01225303891916691,-0.6633989933961026,-0.6999448731127338,0.26425146580679926,-0.3964869631647073,2.7717172154279384,-1.5923218616950632
1773062289600347392,2.4396374225616455,0.2727193832397461,1.0050848722457886,-0.24458090960979462,0.3244588375091553,0.38887253403663635,0.8622671365737915,-0.14605310559272766,0.12156447768211365,0.1526254415512085,0.016566768921160095,-0.663736712455936,-0.7004192603939873,0.2619007007110046,-0.3994074894811466,2.7816952076206403,-1.5906358658870992
1773062289610403328,2.449693441390991,0.27421244978904724,1.1484133005142212,-0.2910774052143097,0.31407880783081055,0.3920873999595642,0.864651620388031,-0.05890604853630066,-0.0018590688705444336,0.08093571662902832,0.021631372569564513,-0.6642387019117117,-0.7007943693090354,0.25924196225135676,-0.4028995940951255,2.7931689550089485,-1.5891019278804959
1773062289620458240,2.4597485065460205,0.030022932216525078,1.1702972650527954,-0.4127984941005707,0.30250418186187744,0.3945266604423523,0.8676633834838867,-0.02313104271888733,-0.13267064094543457,0.17091071605682373,0.02671407912627105,-0.6644604903329621,-0.7016579991235842,0.2558410002342436,-0.4055526791142431,2.8061278563565537,-1.585950848611478
1773062289630514432,2.469804525375366,0.0033969134092330933,1.2296104431152344,-0.4244038760662079,0.29036638140678406,0.3959227204322815,0.8711675405502319,-0.01528090238571167,-0.14197063446044922,0.15454363822937012,0.0315334330050374,-0.664504404621767,-0.7028639053260867,0.25183716637241504,-0.4070724632522316,2.8198656470023713,-1.581660418120246
1773062289640569088,2.4798593521118164,-0.09440182149410248,1.2895814180374146,-0.47292906045913696,0.2775002717971802,0.3967280685901642,0.8749859929084778,-0.015812039375305176,-0.1031947135925293,0.11994802951812744,0.03638124743551321,-0.664516919177138,-0.7042089601337445,0.2473528220479556,-0.40794963187794425,2.8344787087011434,-1.5768232624209617
1773062289650625280,2.489915370941162,-0.07936381548643112,1.3739162683486938,-0.4846423268318176,0.2638779580593109,0.39722996950149536,0.87896329164505,0.0394667387008667,-0.09959208965301514,0.15631484985351562,0.04137190058150564,-0.6644668595550778,-0.7056666717791417,0.24250079702798139,-0.40849648646123515,2.84993865362989,-1.571499906048216
1773062289660680192,2.4999704360961914,-0.05208186060190201,1.4753369092941284,-0.5012004971504211,0.2493368536233902,0.39786913990974426,0.8829107880592346,0.03938993811607361,-0.08955004811286926,0.18126773834228516,0.04677674249314723,-0.6644710129654265,-0.7070598669383736,0.23739543797322257,-0.4091930771075825,2.8663568212283352,-1.5661711057425431
1773062289670736384,2.510026454925537,-0.07659739255905151,1.5948823690414429,-0.5870022773742676,0.23349995911121368,0.3986421525478363,0.8868832588195801,0.008870616555213928,-0.04790368676185608,0.2008393406867981,0.052672162883192215,-0.6643514449979299,-0.7085751831251518,0.23191364419806768,-0.4100358002230149,2.8841533445444143,-1.5602123653615112
1773062289680791296,2.5200815200805664,-0.10053254663944244,1.678194284439087,-0.5891724824905396,0.21644340455532074,0.39925500750541687,0.8909251689910889,0.00656379759311676,-0.0009395778179168701,0.24915051460266113,0.05893857139457421,-0.6641479784268164,-0.7101901416977869,0.2259726760758532,-0.41070412822155267,2.903267480131996,-1.5536849528445367
1773062289690847488,2.530137538909912,-0.25927257537841797,1.6626800298690796,-0.5414868593215942,0.199135884642601,0.39885544776916504,0.8951306343078613,0.05048263072967529,-0.020391762256622314,0.25840312242507935,0.06496999577179945,-0.6640563491662581,-0.7117545017215448,0.21957568241937928,-0.41026836554424095,2.9226916782605734,-1.5472052110473344
1773062289700902144,2.5401923656463623,-0.22203947603702545,1.6701486110687256,-0.40799644589424133,0.18226365745067596,0.39740341901779175,0.8993610143661499,0.11865490674972534,-0.05018973350524902,0.04952192306518555,0.07054414377235328,-0.6642116120630084,-0.713094266226641,0.2129388420797076,-0.4086854836230042,2.941641617438983,-1.54141254625138
1773062289710958336,2.550248384475708,0.023118652403354645,1.7080209255218506,-0.3732087314128876,0.16544736921787262,0.39717409014701843,0.9027069807052612,0.14790712296962738,-0.05124208331108093,-0.09762275218963623,0.07668521717381169,-0.6647112156304736,-0.713801432678633,0.2067991315217006,-0.4084355821126147,2.9603252988268975,-1.5372444440167086
1773062289721013248,2.5603034496307373,-0.1531623750925064,1.699001431465149,-0.5131722092628479,0.14819785952568054,0.3975266218185425,0.905544102191925,0.08916787803173065,0.003215014934539795,0.05330300331115723,0.08312644644223674,-0.6648824990565606,-0.7146350838612121,0.20079337941534867,-0.4088197578637756,2.9793745500878144,-1.5323966107779894
1773062289731069440,2.570359468460083,-0.10311470925807953,1.786332607269287,-0.5104453563690186,0.13033734261989594,0.39676612615585327,0.9086192846298218,0.07738056778907776,0.0834585428237915,0.11544394493103027,0.08931537851267865,-0.6647858298072107,-0.7157998697151252,0.19419879426373268,-0.40799112007860494,2.9991190674087305,-1.5264497521570621
1773062289741124352,2.5804145336151123,-0.043234337121248245,1.7947609424591064,-0.4873499274253845,0.11191221326589584,0.3968152701854706,0.9110508561134338,0.10921816527843475,0.1398974359035492,0.171331524848938,0.09606962179363261,-0.6647828313978023,-0.7166513881270947,0.18773729847402443,-0.4080446353769467,3.0193663707731626,-1.5210568333390433
1773062289751180288,2.590470552444458,0.0015053367242217064,1.7681949138641357,-0.5468791127204895,0.09358888864517212,0.39715003967285156,0.9129692912101746,0.11200803518295288,0.09705162048339844,0.22130799293518066,0.10286689949182645,-0.6645676837166876,-0.7175196460872035,0.18147657470930964,-0.40840939737781035,3.039439032369419,-1.515380456346678
1773062289761235200,2.600525379180908,-0.1089487299323082,1.8087897300720215,-0.6162880063056946,0.0748480036854744,0.3972800374031067,0.9146398901939392,0.1069299504160881,0.007962822914123535,0.15753406286239624,0.1097100801961137,-0.6641052961260665,-0.7185291305130042,0.17505340073459041,-0.40855102650400354,3.059941291945603,-1.5090363723061038
1773062289771291136,2.610581398010254,-0.35913851857185364,1.7336578369140625,-0.7008593082427979,0.05581695958971977,0.3955886960029602,0.9167298078536987,0.13517728447914124,0.013850301504135132,0.12375152111053467,0.11594651116955827,-0.6633722136718604,-0.7199320802051955,0.1679028611626488,-0.4067087491159174,3.0807806916352236,-1.5016100894600735
1773062289781346304,2.620636463165283,0.03721919283270836,1.8107019662857056,-0.5152577757835388,0.03709326684474945,0.39388883113861084,0.9184093475341797,0.16407860815525055,0.01115572452545166,-0.1899852752685547,0.12211787794818516,-0.6626793314598851,-0.7211524056916161,0.1608805805502113,-0.4048586298843553,3.101225994103273,-1.49462360787382
1773062289791402240,2.630692481994629,0.4066512882709503,1.8934879302978516,-0.49076053500175476,0.01807931810617447,0.3963732421398163,0.9179112315177917,0.07194755226373672,-0.01760438084602356,-0.21525943279266357,0.13007644780755942,-0.6622956745143743,-0.7213321429605084,0.15532032943561022,-0.40756311605040024,3.1218990483272213,-1.4895820022149306
1773062289801457408,2.640747547149658,0.27988213300704956,1.9008022546768188,-0.673743724822998,-0.0018038384150713682,0.39965739846229553,0.9166629314422607,-0.043957266956567764,0.04443445801734924,0.10743081569671631,0.1385816268452315,-0.6613472394920085,-0.7217695532946369,0.14987902541449968,-0.41114305529266515,-3.13962482440217,-1.4830703319853398
1773062289811513088,2.650803327560425,0.40795403718948364,1.867242693901062,-0.5351633429527283,-0.021660873666405678,0.4026263654232025,0.9151082038879395,0.007714336737990379,0.18593570590019226,0.1440960168838501,0.14698225238578083,-0.6602724701495125,-0.7222149002223109,0.14436818213066224,-0.414384253380939,-3.1179267863934372,-1.4762711593485833
1773062289821568256,2.660858392715454,0.5590173602104187,1.862328052520752,-0.4981531500816345,-0.040776319801807404,0.40702518820762634,0.9125062823295593,0.1013384535908699,0.16679683327674866,0.1144864559173584,0.1557302410193884,-0.6593935687812678,-0.7221172142319333,0.13962424415100136,-0.4191948848439047,-3.0969362939191565,-1.4705533240065924
1773062289831624192,2.6709144115448,0.47020387649536133,1.9563535451889038,-0.5788614749908447,-0.06045350804924965,0.4115566909313202,0.9093770980834961,0.16267213225364685,0.06346473097801208,0.15034592151641846,0.16476126381377323,-0.6583400448823947,-0.7219951077008729,0.13477848413573837,-0.42416145288387486,-3.075212394803788,-1.4643324644437095
1773062289841679360,2.680969476699829,0.26757246255874634,1.9492977857589722,-0.6243160963058472,-0.08079171925783157,0.41439521312713623,0.9065041542053223,0.2535059154033661,-0.0017058849334716797,0.20367980003356934,0.17343606700775946,-0.6571450983406472,-0.7220889125204489,0.1291045157116125,-0.4272781592849878,-3.052703020091234,-1.4573955275482913
1773062289851735296,2.691025495529175,0.11853296309709549,1.9160429239273071,-0.6527930498123169,-0.10107447952032089,0.4156360328197479,0.9038978219032288,0.2857820689678192,-0.01971614360809326,0.13409686088562012,0.1815293062784244,-0.6558678912202938,-0.72234771012141,0.12287541337415181,-0.42864198970629946,-3.030234557147148,-1.4501363837831436
1773062289861790464,2.701080560684204,0.16857056319713593,1.8815243244171143,-0.6494007706642151,-0.12103984504938126,0.4160494804382324,0.9012504816055298,0.22486063838005066,0.034298479557037354,-0.011098384857177734,0.18923380169330498,-0.6545141615189859,-0.7226592850862461,0.11647057564515798,-0.4290966210914726,-3.008089379970275,-1.4427814324650154
1773062289871846144,2.7111363410949707,0.25007691979408264,1.8748358488082886,-0.6713231205940247,-0.14074937999248505,0.4171605110168457,0.8978681564331055,0.14164960384368896,0.06469687819480896,-0.06232714653015137,0.19713983232058493,-0.6529918516283406,-0.7228663196225515,0.11046240896503383,-0.4303187546699213,-2.9860985688497808,-1.4352641005932836
1773062289881901312,2.72119140625,0.14274674654006958,1.866640567779541,-0.7066313028335571,-0.16053758561611176,0.417970210313797,0.8941634297370911,0.09600819647312164,0.08138886094093323,0.07176351547241211,0.2050007602297963,-0.6512794672137726,-0.7231298471279635,0.10436897854133255,-0.4312098604772323,-2.9639458703474895,-1.4273328118189221
1773062289891957248,2.7312474250793457,0.16894549131393433,1.8539601564407349,-0.7062586545944214,-0.1801612377166748,0.4179576337337494,0.8904229998588562,0.10426405072212219,0.10131418704986572,0.09650009870529175,0.21254585559344646,-0.6495108220609542,-0.7234274023728813,0.09804436668926327,-0.4311960030265957,-2.9419556161812803,-1.4193640168554154
1773062289902012416,2.741302490234375,0.3139343857765198,1.8808282613754272,-0.7315179705619812,-0.19981515407562256,0.4187656044960022,0.8858382105827332,0.10037364065647125,0.09949913620948792,0.054972946643829346,0.2204615127537939,-0.647536171254383,-0.7236131619399826,0.09207404596762875,-0.4320855531326223,-2.919739362408602,-1.4110611451537054
1773062289912068352,2.7513585090637207,0.40881916880607605,1.9072449207305908,-0.7591738700866699,-0.2198057621717453,0.42043566703796387,0.8802948594093323,0.10637198388576508,0.09790530800819397,0.10421735048294067,0.2288837349471806,-0.645252409763608,-0.7237380418274181,0.08639872631495737,-0.4339254191421687,-2.8969004959311406,-1.4020640114522902
1773062289922123264,2.761413335800171,0.35532212257385254,1.8743489980697632,-0.7514153122901917,-0.23967835307121277,0.4220685362815857,0.8743067383766174,0.13314153254032135,0.09776782989501953,0.08792763948440552,0.23731656291445766,-0.6428322948347783,-0.7238231909281502,0.0807925401405481,-0.4357258367404415,-2.874030509367231,-1.392840234175614
1773062289932179200,2.7714693546295166,0.2623087763786316,1.854166865348816,-0.7244965434074402,-0.25913718342781067,0.4230242371559143,0.868273138999939,0.14370447397232056,0.0731762945652008,-0.020205020904541016,0.2454202689826361,-0.6404990779529413,-0.7238076473258931,0.07504846984670631,-0.4367802904561247,-2.851557363064998,-1.384022070651969
1773062289942234368,2.781524419784546,0.320850133895874,1.8796954154968262,-0.7129733562469482,-0.27844125032424927,0.42361360788345337,0.8619871735572815,0.12924081087112427,0.031388163566589355,-0.05946648120880127,0.2534120693613522,-0.6382056686546153,-0.7236622877350591,0.06920048156557941,-0.4374308243589393,-2.829150386941089,-1.3754727060905476
1773062289952289536,2.7915797233581543,0.24263828992843628,1.8797999620437622,-0.7752184867858887,-0.29783689975738525,0.42392316460609436,0.8553260564804077,0.11128291487693787,0.035030752420425415,0.014760732650756836,0.2614120622141097,-0.6357729554933199,-0.7235024310919126,0.06325184283101844,-0.43777259629057164,-2.806509391406539,-1.3666832187734945
1773062289962344704,2.8016347885131836,0.1765306442975998,1.8745849132537842,-0.8382179737091064,-0.3173579275608063,0.4231310784816742,0.848672091960907,0.11275279521942139,0.05305001139640808,0.06558895111083984,0.26911785205076244,-0.6331203543653454,-0.7235293015792451,0.0569175875108453,-0.4368982028135382,-2.7837459321896123,-1.3574559575871883
1773062289972400640,2.8116908073425293,0.22442777454853058,1.8780772686004639,-0.863105058670044,-0.3369135558605194,0.4220260679721832,0.8416551947593689,0.11329600214958191,0.04507601261138916,0.07704603672027588,0.2768035363009388,-0.6302535361863397,-0.7236076851861136,0.05051995894553721,-0.43567900808235943,-2.7608287182087796,-1.347841915068923
1773062289982455808,2.8217458724975586,0.18250295519828796,1.871809482574463,-0.9124518632888794,-0.3564768135547638,0.42074671387672424,0.8342044949531555,0.09539881348609924,0.03248521685600281,0.12691634893417358,0.28451964879249025,-0.6271764056239016,-0.7237071157799602,0.04411914754060431,-0.4342682686336457,-2.7377539658212995,-1.3378628076130001
1773062289992511744,2.8318018913269043,0.10057532787322998,1.8660540580749512,-0.9533518552780151,-0.3760242760181427,0.4184550940990448,0.8267413377761841,0.0943928062915802,0.018831312656402588,0.09051024913787842,0.2919441737924519,-0.6239579130078438,-0.7239110282894281,0.037389494176516,-0.43174365340816373,-2.714731845961398,-1.3277724903881551
1773062290002566656,2.8418567180633545,0.09331768751144409,1.8370780944824219,-0.9406906962394714,-0.39530864357948303,0.41545581817626953,0.8192241787910461,0.12187105417251587,0.028864949941635132,-0.000391542911529541,0.2990958977414598,-0.6206981080866454,-0.7241173561952616,0.030491808580259263,-0.4284438501732743,-2.6920101449037235,-1.3178834906042343
1773062290012622592,2.8519127368927,0.15832184255123138,1.8422621488571167,-0.9493594169616699,-0.4142756462097168,0.41278505325317383,0.8111622333526611,0.1224513053894043,0.04571104049682617,-0.06024670600891113,0.30634882675968933,-0.6173121381627183,-0.724228450375705,0.023859428511073633,-0.4255096646584631,-2.669406984712217,-1.307890663424591
1773062290022677760,2.8619678020477295,0.055566973984241486,1.8647898435592651,-0.9834665656089783,-0.43333831429481506,0.4095729887485504,0.8027875423431396,0.08761996030807495,0.0638003945350647,0.022499263286590576,0.3135548442808139,-0.6138026590644969,-0.7243204243002452,0.01701691060801732,-0.4219859384269872,-2.646620443041665,-1.2978602852814105
1773062290032733696,2.872023820877075,0.0798874944448471,1.8597196340560913,-0.9930852651596069,-0.4523363709449768,0.4055994749069214,0.7942797541618347,0.10130804777145386,0.07444196939468384,0.06372171640396118,0.32056488775120706,-0.610248617083174,-0.7243869863094101,0.009905555387103467,-0.4176345736769104,-2.623907260282451,-1.2880701108306494
1773062290042788864,2.8820788860321045,0.1561335176229477,1.8954981565475464,-1.0341838598251343,-0.4713400602340698,0.40192750096321106,0.7850428223609924,0.10038378834724426,0.06197011470794678,0.023428618907928467,0.3278253995899531,-0.6064156683121882,-0.7244180047910918,0.0029890161295146995,-0.4136209014355341,-2.600878746668971,-1.2777588919105312
1773062290052844544,2.892134666442871,0.12352658063173294,1.8992292881011963,-1.0816646814346313,-0.49053794145584106,0.39791980385780334,0.7752628922462463,0.09551841020584106,0.07951244711875916,0.05451011657714844,0.33518989873878174,-0.6023107682263038,-0.7244675169469954,-0.004042393940239244,-0.4092482879140733,-2.5774485956320943,-1.267035109827916
1773062290062899712,2.9021897315979004,0.14205500483512878,1.4350682497024536,-1.036129355430603,-0.5089269280433655,0.39296188950538635,0.7658817172050476,0.21484416723251343,0.15275350213050842,0.078372061252594,0.3419514280584145,-0.5985984676457118,-0.7243070736506455,-0.011335869290408989,-0.4038504010221745,-2.555092874425751,-1.257843545313614
1773062290072955648,2.912245750427246,0.19355952739715576,2.01497745513916,-1.251961588859558,-0.5277080535888672,0.38886967301368713,0.7551852464675903,-0.005281507968902588,-0.03118833899497986,-0.13129901885986328,0.3494091108892929,-0.5936108396371046,-0.7247198127025338,-0.01790788947606129,-0.3994043754992817,-2.531686234131351,-1.2452991102726307
1773062290083010560,2.9223008155822754,0.17072372138500214,1.9072540998458862,-1.1098706722259521,-0.546726644039154,0.3837105929851532,0.7442148327827454,0.060551226139068604,0.12576505541801453,0.05528450012207031,0.35673398777247595,-0.5889381222265213,-0.724747758380539,-0.02516592304363872,-0.39381113320993744,-2.507997550618769,-1.23415141168441
1773062290093066752,2.932356834411621,0.2756163477897644,1.9014711380004883,-1.188330888748169,-0.5650538802146912,0.37919366359710693,0.7327526211738586,0.1635950803756714,0.04031628370285034,0.020131289958953857,0.36415506896521904,-0.5840495519792962,-0.7247499179662269,-0.03185619227102551,-0.3889247253831121,-2.4846994865215315,-1.2225751548643713
1773062290103121408,2.9424116611480713,0.08646026998758316,1.9048160314559937,-1.2633936405181885,-0.5835991501808167,0.3734464943408966,0.7210754156112671,0.11999136209487915,0.020306557416915894,0.03789675235748291,0.37140221117989874,-0.5789087938916058,-0.724846406428281,-0.03902172919547715,-0.38272154140433784,-2.4611791374800442,-1.2109160838526483
1773062290113177600,2.952467679977417,-0.002175684552639723,1.8259623050689697,-1.2234783172607422,-0.6016426682472229,0.3661963939666748,0.7098773717880249,0.13971346616744995,0.05557170510292053,0.02707618474960327,0.3779992548025815,-0.573890306414836,-0.7249749030998747,-0.04666632689849518,-0.37491817028243385,-2.438534080028792,-1.2002803265576965
1773062290123232512,2.9625227451324463,0.14582256972789764,1.8034671545028687,-1.2111833095550537,-0.6188297867774963,0.35926148295402527,0.6985561847686768,0.12162220478057861,0.06461238861083984,-0.03255587816238403,0.38446309045864163,-0.5689458427993392,-0.7249680788158254,-0.053944345163426256,-0.36747643837282534,-2.4166394176898196,-1.1900755252480846
1773062290133288704,2.972578763961792,-0.07346727699041367,1.8460139036178589,-1.3962935209274292,-0.6361348628997803,0.3515000343322754,0.6868623495101929,0.10248935222625732,0.02691790461540222,0.0040555596351623535,0.3908941289120223,-0.5635254331868143,-0.725169122744311,-0.06140466498742755,-0.3591728999593073,-2.3945185443907744,-1.1791681536435628
1773062290143343616,2.9826338291168213,-0.18637704849243164,1.7673300504684448,-1.2442179918289185,-0.6532753109931946,0.3416009843349457,0.6756775379180908,0.10360795259475708,-0.04182681441307068,0.07449030876159668,0.3966028408211562,-0.5582621070236534,-0.7253841603251426,-0.0697669488750173,-0.3486198391910758,-2.3730499217317655,-1.1696881479669952
1773062290153399808,2.992689847946167,-0.37385910749435425,1.573100209236145,-1.4587593078613281,-0.6684973835945129,0.3333929777145386,0.6648011803627014,0.18775391578674316,0.045894742012023926,-0.029669225215911865,0.4019959069231622,-0.5542943752860325,-0.724678101040143,-0.07745173688338892,-0.3399001802846694,-2.353422293119127,-1.1634388235484514
1773062290163454464,3.002744674682617,-0.0697503387928009,1.7617754936218262,-1.4833192825317383,-0.6847334504127502,0.3217194676399231,0.6539393067359924,0.0070296525955200195,-0.023196548223495483,-0.07230478525161743,0.4070103996124982,-0.5482797656060919,-0.7255059918449748,-0.0858653577788992,-0.32754494677983376,-2.333195050613707,-1.15316510655108
1773062290173510656,3.012800693511963,0.2862476110458374,1.951002836227417,-1.298899531364441,-0.7012194991111755,0.31251999735832214,0.6407982707023621,0.1251544952392578,0.13964369893074036,-0.07025688886642456,0.413336043371799,-0.5422705267287246,-0.7254941757226109,-0.09356375281635479,-0.3178447505136148,-2.3112021699208305,-1.1426639133971843
1773062290183565568,3.022855758666992,-0.22469580173492432,1.676355242729187,-1.4381916522979736,-0.7166725993156433,0.3023860454559326,0.6284446120262146,0.18322545289993286,-0.007906734943389893,0.055194735527038574,0.4189790549977763,-0.5361107839158222,-0.7258150918915867,-0.10116372931004129,-0.30719490777097613,-2.2906970495194554,-1.132299801919564
1773062290193621760,3.032911777496338,-0.3049611449241638,1.5636634826660156,-1.2523229122161865,-0.7305964231491089,0.2914994955062866,0.6174598932266235,0.04408830404281616,0.1320997178554535,0.00833350419998169,0.4234690179336382,-0.5314132260330786,-0.7254859963976915,-0.10928851240206883,-0.29579404595820274,-2.2724650482786264,-1.1263191769071388
1773062290203676672,3.042966842651367,0.021605512127280235,1.637218713760376,-1.4844772815704346,-0.7445805668830872,0.2802640199661255,0.6058483123779297,-0.00017052888870239258,0.0804385244846344,-0.11773484945297241,0.4282171149090297,-0.5256449994643126,-0.725686913352965,-0.11707277725154361,-0.2840691260243611,-2.2538216472830523,-1.1179608723713201
1773062290213732608,3.053022861480713,0.05126523599028587,1.5960521697998047,-1.3670668601989746,-0.7583062052726746,0.26972803473472595,0.5934802293777466,0.16502916812896729,0.05954137444496155,-0.09529602527618408,0.43338586122419986,-0.5193142353201152,-0.7259840512446334,-0.12424436919890487,-0.2731105855322165,-2.234861479646222,-1.108177406642546
1773062290223787520,3.063077688217163,-0.11249333620071411,1.5498839616775513,-1.432774305343628,-0.7712457180023193,0.2589406371116638,0.5814889669418335,0.1675471067428589,-0.012648582458496094,-0.07681989669799805,0.43815824179903784,-0.5132929251799934,-0.7261369431173625,-0.13142590305684887,-0.2619252786394831,-2.216827462115913,-1.0995471064335713
1773062290233843456,3.073133707046509,-0.32748159766197205,1.5431740283966064,-1.5267013311386108,-0.784001350402832,0.2460065484046936,0.5699321627616882,0.1284838318824768,-0.0314222127199173,-0.014283359050750732,0.442234723929989,-0.5072845476740568,-0.7263803792650915,-0.13950757589099336,-0.2485580218843903,-2.199383477464651,-1.0921774197505534
1773062290243898624,3.083188772201538,-0.3797735571861267,1.5071017742156982,-1.4151573181152344,-0.7961974740028381,0.23219327628612518,0.5587090253829956,0.1387268304824829,0.021407783031463623,-0.06984800100326538,0.44579289296449753,-0.5016524538125225,-0.7264291601251006,-0.1480343387423446,-0.23433198204985278,-2.1826768268443026,-1.086499771660325
1773062290253954560,3.093244791030884,-0.2630113363265991,1.5012474060058594,-1.4465867280960083,-0.8077703714370728,0.21898552775382996,0.5473137497901917,0.10238713026046753,0.011483222246170044,-0.14844900369644165,0.4493991675984258,-0.4960323289827599,-0.7263668496704818,-0.15615215967691887,-0.22077464018118315,-2.1663033327085954,-1.0808730325921672
1773062290264009728,3.103299856185913,-0.22875404357910156,1.501110315322876,-1.4892913103103638,-0.8190554976463318,0.20564143359661102,0.5355931520462036,0.07953816652297974,0.08497747778892517,-0.05767256021499634,0.45308184607068863,-0.48999763308366495,-0.7264288604305853,-0.1640743130529007,-0.20711910245759924,-2.149919213161145,-1.0745361372378022
1773062290274065664,3.113355875015259,-0.20870885252952576,1.483352780342102,-1.4334348440170288,-0.8299028277397156,0.1923772245645523,0.523690938949585,0.10587334632873535,0.1111048012971878,-0.027688801288604736,0.4567472977527205,-0.48392157099365096,-0.7264057882883483,-0.17186159362644765,-0.19358405022979894,-2.1337177756132792,-1.0683601078573457
1773062290284120576,3.123410701751709,-0.22508196532726288,1.4229011535644531,-1.412788987159729,-0.840089738368988,0.1794072836637497,0.5119200944900513,0.10515022277832031,0.03636723756790161,-0.08630675077438354,0.4602828472979973,-0.4779527590523783,-0.7263065425120068,-0.17938681150138552,-0.18038392656693764,-2.1180723643939756,-1.062534905892977
1773062290294176512,3.1334667205810547,-0.27919837832450867,1.3753033876419067,-1.4756311178207397,-0.849657416343689,0.16592663526535034,0.5005500912666321,0.08824402093887329,0.01130416989326477,-0.057022929191589355,0.46343819467089314,-0.4719980949585063,-0.7262870226985559,-0.1869489890056988,-0.1666976035259746,-2.103177326610971,-1.0571609523136491
1773062290304231680,3.143521785736084,-0.4298291802406311,1.3998510837554932,-1.4994972944259644,-0.8589136004447937,0.1513514518737793,0.4892442524433136,0.07120925188064575,0.04559372365474701,0.06617563962936401,0.4662230707595485,-0.466029441962144,-0.7262497439610898,-0.19497143261163388,-0.151935329205943,-2.088569100349698,-1.052603078204454
1773062290314287616,3.1535778045654297,-0.3829157054424286,1.3807752132415771,-1.4416381120681763,-0.8678011298179626,0.1365261673927307,0.4777885377407074,0.10071128606796265,0.11139865219593048,-0.011846184730529785,0.46883450105857466,-0.4602850037648282,-0.7259696903193077,-0.20322392140106124,-0.1369538905389294,-2.0740799600545596,-1.0491112895576786
1773062290324342784,3.163632869720459,-0.17553721368312836,1.3100121021270752,-1.4345016479492188,-0.8760305643081665,0.12264098227024078,0.46640095114707947,0.107796311378479,0.09127198904752731,-0.033554792404174805,0.47159421385612865,-0.45431990561850305,-0.7258056850420225,-0.21070949390020102,-0.12295051660895583,-2.06002874616404,-1.04467759000644
1773062290334398720,3.1736888885498047,-0.11678065359592438,1.3361605405807495,-1.4172900915145874,-0.8837952613830566,0.10940071195363998,0.45490387082099915,0.09432077407836914,0.09264092147350311,-0.03238797187805176,0.47455877404648317,-0.44802235341157826,-0.7257602292052188,-0.2175823023009467,-0.10962012553340571,-2.0461476013141837,-1.0391995200082935
1773062290344453632,3.183743715286255,-0.18333466351032257,1.2667533159255981,-1.4021543264389038,-0.891152024269104,0.09620414674282074,0.4433876574039459,0.10236436128616333,0.051485657691955566,-0.0577828586101532,0.4774436117336043,-0.44178561473934147,-0.7256164990750967,-0.22439628280153462,-0.09635316896777447,-2.0324774974794826,-1.034081793342789
1773062290354509568,3.1937997341156006,-0.4271751046180725,1.1772313117980957,-1.3087632656097412,-0.8977981209754944,0.08275792747735977,0.4325615465641022,0.11969155073165894,0.05513574928045273,-0.06860893964767456,0.4797309506963585,-0.4361935929194831,-0.7252695477315573,-0.23146787672622954,-0.08285268829105998,-2.0197803881182868,-1.0308627524717244
1773062290364564736,3.20385479927063,-0.4581979811191559,1.0730630159378052,-1.2568144798278809,-0.9036000967025757,0.0691603422164917,0.42275744676589966,0.1279500126838684,-0.0350722000002861,-0.22088366746902466,0.48129616985605417,-0.4313116644562518,-0.7248096136113649,-0.23869507162594486,-0.06921559204690651,-2.0084021519074438,-1.0295279473469945
1773062290374620672,3.2139108180999756,-0.4617637097835541,0.9429244995117188,-1.2990299463272095,-0.908544659614563,0.05561849847435951,0.4140690863132477,0.10701572895050049,-0.1820223182439804,-0.2233799695968628,0.4823642320626436,-0.42652300633772156,-0.7246465778981275,-0.24554065257729868,-0.05564721276238769,-1.998421517027787,-1.028183678008966
1773062290384675840,3.223965883255005,-0.5900872945785522,0.9991219639778137,-1.3140085935592651,-0.9131516814231873,0.04143336042761803,0.40550893545150757,0.07548987865447998,-0.05324365943670273,-0.05615884065628052,0.4831046572936174,-0.42181760379813504,-0.7244476305519224,-0.2526964844633489,-0.04144522311273284,-1.9887130963922148,-1.0276026316272213
1773062290394731520,3.2340216636657715,-0.5533196926116943,0.998355507850647,-1.2721058130264282,-0.9176807403564453,0.027185309678316116,0.39638751745224,0.05249214172363281,0.016454825177788734,-0.09778821468353271,0.4838987712439548,-0.4172163980208391,-0.7239642455940877,-0.26009274411358896,-0.02718865976113712,-1.9785346217612518,-1.027739481248667
1773062290404786688,3.244076728820801,-0.5215386152267456,0.9212087988853455,-1.2189555168151855,-0.9216888546943665,0.013564611785113811,0.3876926004886627,0.05900275707244873,0.006088707596063614,-0.08683505654335022,0.48460321319420874,-0.4127117824739022,-0.7235435606159847,-0.2670456356864648,-0.013565027649743006,-1.968962151438837,-1.027735609127122
1773062290414842624,3.2541327476501465,-0.5100002288818359,0.9364133477210999,-1.2201275825500488,-0.9253171682357788,0.0002679497702047229,0.379193514585495,0.08362728357315063,0.06992249935865402,0.005495727062225342,0.48521843823305777,-0.40831008487065656,-0.7231041626059925,-0.27379956726948085,-0.0002679497701387062,-1.9597209624585374,-1.02788206929457
1773062290424897792,3.264187812805176,-0.355395644903183,0.9039976000785828,-1.2296319007873535,-0.9287397861480713,-0.01280753780156374,0.37051090598106384,0.08917069435119629,0.049398116767406464,-0.01820075511932373,0.48599992439247763,-0.40361151286573915,-0.7227400640580026,-0.280265262398847,0.012807888094437952,-1.950388064905925,-1.0272894820849794
1773062290434953728,3.2742438316345215,-0.2797245681285858,0.8608648777008057,-1.2349268198013306,-0.9317590594291687,-0.02542700059711933,0.3621857166290283,0.0872766375541687,-0.005227906629443169,-0.04652714729309082,0.48683935926154465,-0.3986500959091608,-0.7226139799531517,-0.28617223422293997,0.025429740417526745,-1.9415337772798065,-1.0256598794435783
1773062290445008640,3.284298896789551,-0.3101120591163635,0.8564078211784363,-1.2247639894485474,-0.9344640970230103,-0.038026340305805206,0.35402098298072815,0.061447739601135254,-0.0365433469414711,-0.02229490876197815,0.4875919373148466,-0.3936498362616744,-0.7225304846657912,-0.2919650614094382,0.03803551241217629,-1.9329373813236848,-1.0239822593041248
1773062290455064576,3.2943546772003174,-0.3475548028945923,0.8234195709228516,-1.2514363527297974,-0.9368768334388733,-0.050818756222724915,0.34594741463661194,0.030916571617126465,-0.06357641518115997,-0.03504952788352966,0.48817297126161985,-0.3887128661913692,-0.7224098708119115,-0.29784821890440366,0.050840656057640675,-1.9245217158866128,-1.0227148092764102
1773062290465119488,3.3044097423553467,-0.3877948820590973,0.8031345009803772,-1.218674898147583,-0.9389558434486389,-0.06377357989549637,0.3380756974220276,-0.008828699588775635,-0.07747706770896912,-0.06350895762443542,0.4885346131554726,-0.3838835062501081,-0.722268164369242,-0.30380290871149646,0.06381688586601636,-1.9164005466919265,-1.0219111245473975
1773062290475175680,3.3144657611846924,-0.3983622193336487,0.7753782272338867,-1.2154070138931274,-0.940797746181488,-0.07649173587560654,0.3302251994609833,0.011873126029968262,-0.04391538351774216,-0.017511606216430664,0.48882972591784474,-0.3792352321678763,-0.722006397148878,-0.30973038933472585,0.07656652487540362,-1.9083666523278817,-1.0215730846851014
1773062290485230592,3.3245208263397217,-0.3779435157775879,0.7496028542518616,-1.2128314971923828,-0.9423195719718933,-0.08926703780889511,0.3225914537906647,0.06350487470626831,0.003604188561439514,0.06357789039611816,0.4889704703199409,-0.3746044118861456,-0.7217806230861549,-0.31561392348507455,0.08938602053319475,-1.9006287615877995,-1.0213635780681107
1773062290495285760,3.334575891494751,-0.27640753984451294,0.7681466937065125,-1.1832077503204346,-0.9436199069023132,-0.10165686905384064,0.3150361478328705,0.0912027359008789,0.02867402881383896,0.06324449181556702,0.489198827521759,-0.36988227621700454,-0.7215990384110783,-0.3211955649236588,0.10183277819377708,-1.893020044494646,-1.0207237829806075
1773062290505341440,3.3446316719055176,-0.15374445915222168,0.8031696081161499,-1.1804457902908325,-0.9448119401931763,-0.11354199796915054,0.307308554649353,0.060687243938446045,0.013566404581069946,0.05141031742095947,0.4897555097205164,-0.3648146088125334,-0.7215016088311483,-0.32632077393183545,0.11378738347012252,-1.885262418268852,-1.0189736090393562
1773062290515396608,3.354686737060547,-0.09482575953006744,0.7943132519721985,-1.1390559673309326,-0.9458805918693542,-0.12493177503347397,0.2995029091835022,0.04300278425216675,0.03467605262994766,0.029857993125915527,0.49052380007431656,-0.35961619626929847,-0.7214067092538631,-0.33111168657317674,0.12525907024173485,-1.8774477115624963,-1.0166646340274288
1773062290525452544,3.3647427558898926,0.029774492606520653,0.8188644051551819,-1.1138025522232056,-0.9467869997024536,-0.13574227690696716,0.2918360233306885,0.041071176528930664,0.030197247862815857,-0.005871087312698364,0.49149242501426,-0.3542539990753367,-0.7214028836719784,-0.335435716609935,0.13616263095464756,-1.869793971989102,-1.013528819570402
1773062290535507712,3.374797821044922,0.07269589602947235,0.7747775316238403,-1.1515709161758423,-0.9474673867225647,-0.14640645682811737,0.28437739610671997,0.04138529300689697,-0.02890174090862274,-0.036849409341812134,0.49254581174661644,-0.34862371253994723,-0.721560950817683,-0.3394257619099919,0.14693459572353126,-1.862385948401902,-1.009553873060572
1773062290545563648,3.3848538398742676,-0.028543643653392792,0.769727349281311,-1.0598316192626953,-0.9479137063026428,-0.15694113075733185,0.2771807610988617,0.030494272708892822,-0.036937057971954346,-0.05820190906524658,0.49344635215344546,-0.34319377602317663,-0.7216705695325869,-0.34339529681800607,0.1575926292223854,-1.8552766372314788,-1.0060187249548642
1773062290555618560,3.3949086666107178,-0.11361756175756454,0.678168535232544,-0.9632263779640198,-0.9483247399330139,-0.1666898876428604,0.26999029517173767,0.037436068058013916,-0.09197711944580078,-0.12443673610687256,0.4942618024832955,-0.3384769608136029,-0.721407298684478,-0.3474336539670838,0.16747162397201973,-1.8481601838260626,-1.0039683699494246
1773062290565674496,3.4049646854400635,-0.23453518748283386,0.6699956059455872,-0.9399588704109192,-0.9484755992889404,-0.17626023292541504,0.2632991373538971,0.0667617917060852,-0.15712904930114746,-0.09568130970001221,0.49472461517438593,-0.3342613439826134,-0.7210540374841019,-0.3515650937745457,0.17718589736623483,-1.8415803921849567,-1.0030158697975762
1773062290575729664,3.4150197505950928,-0.2774704694747925,0.6570043563842773,-0.8981609344482422,-0.9485188126564026,-0.18570156395435333,0.2565673887729645,0.06961268186569214,-0.08222749829292297,-0.06563416123390198,0.4950470673731554,-0.3303863954114065,-0.7205057401370535,-0.3558716964749338,0.1867858010044055,-1.8349672889136195,-1.003025541775517
1773062290585785600,3.4250757694244385,-0.3438881039619446,0.6455625891685486,-0.8243604898452759,-0.9485751390457153,-0.19466902315616608,0.2496175616979599,0.09766888618469238,-0.022753432393074036,-0.03024199604988098,0.49539329764106244,-0.32687597891529285,-0.7196949877843588,-0.3602452234609186,0.19592000864342765,-1.828112665178101,-1.0038901290320388
1773062290595841536,3.435131788253784,-0.32988205552101135,0.5992485284805298,-0.8144938349723816,-0.9485006332397461,-0.2032509595155716,0.24297262728214264,0.11329549551010132,-0.022792771458625793,-0.04695817828178406,0.495616732368855,-0.3236563230038428,-0.7188413557517503,-0.3645240625876359,0.2046770527823425,-1.821568826963168,-1.0051944111545217
1773062290605896704,3.4451868534088135,-0.37805572152137756,0.5619615912437439,-0.8405736684799194,-0.9481611847877502,-0.2120339274406433,0.23671038448810577,0.0913192629814148,-0.107378289103508,-0.06002894043922424,0.49561396776530875,-0.32044517304913733,-0.7181017245040089,-0.36879742494371537,0.21365574072821134,-1.8154474849598887,-1.006565451846934
1773062290615951616,3.4552416801452637,-0.5050521492958069,0.5015158653259277,-0.8378341794013977,-0.947594165802002,-0.22100840508937836,0.23069629073143005,0.06269121170043945,-0.13854971528053284,-0.06739675998687744,0.4952751151661948,-0.31753250683495665,-0.7173013681412964,-0.37330215860088284,0.22284831805214622,-1.8096053192745412,-1.0088755205088924
1773062290626007552,3.4652976989746094,-0.6108371615409851,0.4906568229198456,-0.8620907664299011,-0.9467865824699402,-0.23043030500411987,0.22471553087234497,0.049447715282440186,-0.04451780021190643,-0.008025407791137695,0.49454374368648807,-0.31492791784609103,-0.7163645506890458,-0.37824426855079657,0.23251986808643155,-1.803829865009847,-1.012478974750983
1773062290636062720,3.4753527641296387,-0.5503054857254028,0.5173229575157166,-0.7810178995132446,-0.9459273219108582,-0.23962341248989105,0.2186378836631775,0.043415606021881104,0.049666717648506165,0.025136619806289673,0.4937960696827325,-0.3124794445630986,-0.7153149917274972,-0.3832057673673922,0.2419779493030218,-1.7979433974184762,-1.016488735691283
1773062290646118656,3.4854087829589844,-0.45829033851623535,0.5773351788520813,-0.7322902679443359,-0.9452698230743408,-0.24785080552101135,0.21221445500850677,0.02971196174621582,0.04429854452610016,-0.02442455291748047,0.49356907131417693,-0.30987411980831425,-0.7142025310724459,-0.3876627051153665,0.2504612123657391,-1.7916361929799842,-1.0195695377533052
1773062290656173824,3.4954638481140137,-0.4419148564338684,0.5384823083877563,-0.6263133883476257,-0.944766640663147,-0.2551479935646057,0.20570728182792664,0.06198465824127197,-0.0146426260471344,-0.06380057334899902,0.49355927532836813,-0.3075379355548026,-0.7129334193590987,-0.39184893798693865,0.25800077172468483,-1.7851836794532405,-1.0227818454432875
1773062290666229760,3.5055198669433594,-0.492309033870697,0.45167791843414307,-0.5597865581512451,-0.944271981716156,-0.26172250509262085,0.19962891936302185,0.109829843044281,-0.08401113748550415,-0.20084965229034424,0.4934352341378091,-0.3056818024926501,-0.7115989705420663,-0.39586261739530126,0.2648065006334591,-1.7791389614951223,-1.026577448300835
1773062290676284672,3.5155746936798096,-0.4609681963920593,0.37102845311164856,-0.6405209898948669,-0.9434293508529663,-0.268436074256897,0.19463621079921722,0.06946694850921631,-0.18102684617042542,-0.13750731945037842,0.4929214859722413,-0.30385283264173285,-0.710627581601893,-0.39963777148054275,0.2717691426317182,-1.7742490207159276,-1.0299969774008448
1773062290686340608,3.5256307125091553,-0.5090129375457764,0.3905840516090393,-0.5550069212913513,-0.9425279498100281,-0.27506378293037415,0.18968670070171356,0.024910151958465576,-0.061575621366500854,0.007319450378417969,0.4923267397917197,-0.30215554115398785,-0.7096093166252154,-0.40344897384227846,0.278656057645302,-1.7693965312553614,-1.0337548187689363
