time,seconds_elapsed,rotationRateX,rotationRateY,rotationRateZ,gravityX,gravityY,gravityZ,accelerationX,accelerationY,accelerationZ,quaternionW,quaternionX,quaternionY,quaternionZ,pitch,roll,yaw
1773065651047058944,0.029239892959594727,-0.24718238413333893,0.023699654266238213,-0.23289678990840912,-0.37554535269737244,0.707761824131012,0.5983636975288391,-0.05170083045959473,0.03961372375488281,-0.006887257099151611,0.11087144827361792,0.21061218883410732,-0.8688062851837455,0.43419551081158647,-0.7863249588863968,-2.5811111229153796,0.7132774776266135
1773065651057096704,0.03927779197692871,-0.08845309168100357,0.027504779398441315,-0.2086726725101471,-0.3772941529750824,0.705898642539978,0.5994636416435242,-0.040888309478759766,0.004687964916229248,-0.0014868378639221191,0.11165056558544913,0.21144359332117205,-0.8689208389825278,0.4333618117694612,-0.7836910282419928,-2.579845403882111,0.7147071635297951
1773065651067134976,0.0493159294128418,0.05175594240427017,0.026258151978254318,-0.18518999218940735,-0.3788091540336609,0.7050859928131104,0.5994641184806824,0.004831582307815552,-0.006523430347442627,-0.03542298078536987,0.11220075037491749,0.21220633161039526,-0.8687350215711845,0.43321921282433656,-0.7825443943076122,-2.5780376469744026,0.7168776778122554
1773065651077171712,0.059352874755859375,0.12464506924152374,0.03236904367804527,-0.23126080632209778,-0.3804588317871094,0.7048384547233582,0.5987102389335632,0.018199920654296875,-0.004368484020233154,-0.04745590686798096,0.11268341798032193,0.21310361829995783,-0.8682983236691905,0.4335289708536233,-0.7821954090477401,-2.575504011460698,0.7200595889412332
1773065651087209984,0.06939101219177246,0.1530463546514511,0.030466213822364807,-0.2643606960773468,-0.3824216425418854,0.704736053943634,0.5975791811943054,-0.0031680166721343994,0.011404752731323242,-0.03178328275680542,0.11321385813228001,0.21420717354476956,-0.8677009187033184,0.43404268862193446,-0.7820510219840537,-2.5723139292376866,0.7241347904262199
1773065651097247744,0.07942891120910645,0.11706925928592682,0.030251827090978622,-0.26747313141822815,-0.3844926655292511,0.7045273780822754,0.5964949131011963,-0.011350750923156738,0.027253448963165283,-0.01496732234954834,0.11377777312684294,0.2153875941058463,-0.8670960902485961,0.4345193241809463,-0.7817569500070941,-2.569032340315223,0.7283728865104803
1773065651107285760,0.08946681022644043,0.09392372518777847,0.03934172913432121,-0.22973614931106567,-0.3864804804325104,0.7041715383529663,0.5956303477287292,0.00020417571067810059,0.024679839611053467,0.0007748007774353027,0.11436800773517247,0.2164625939020875,-0.8665789750052169,0.4348618663739249,-0.7812556309868116,-2.5660195296680635,0.7321472658751286
1773065651117323776,0.09950494766235352,0.0637836679816246,0.04135560989379883,-0.12857091426849365,-0.38801780343055725,0.7039456963539124,0.5948973894119263,0.010988295078277588,0.004443645477294922,0.006680309772491455,0.11486271152859531,0.2172039269317845,-0.8661819417549742,0.4351527769614866,-0.780937639565171,-2.5636420947947793,0.7349141770556169
1773065651127361792,0.1095428466796875,0.021304382011294365,0.060165517032146454,-0.022424766793847084,-0.3888469338417053,0.7038922309875488,0.5944188237190247,0.025214731693267822,-0.011799335479736328,-0.0033086538314819336,0.11519758621397139,0.2174498701291874,-0.8659820794766367,0.43533906351320956,-0.7808624073785376,-2.5622962947276484,0.7361256112276001
1773065651137398784,0.11957979202270508,0.015893282368779182,0.07653197646141052,0.08017297834157944,-0.3890869915485382,0.7040524482727051,0.5940720438957214,0.03848576545715332,-0.017010211944580078,-0.0008865594863891602,0.11542128958317549,0.21722215001388212,-0.865939113652348,0.43547899961099223,-0.7810879997009497,-2.5617460801663605,0.7359747743529813
1773065651147436800,0.12961792945861816,0.11559191346168518,0.029479512944817543,0.3709816634654999,-0.3876568675041199,0.7052784562110901,0.5935527086257935,0.03092154860496521,-0.013399064540863037,-0.005494117736816406,0.11510719469566848,0.215972686049152,-0.8661016948406134,0.4358601908369804,-0.7828158861999811,-2.5630322805493604,0.7331955498099739
1773065651157474816,0.13965582847595215,0.23802058398723602,0.041682515293359756,0.14535291492938995,-0.3859686255455017,0.7074934244155884,0.5920141935348511,0.07938912510871887,0.03699803352355957,-0.020084500312805176,0.11447905344505568,0.21480916984105722,-0.8659469535286224,0.4369065130977506,-0.785945112921951,-2.563841948164368,0.7314630588607361
1773065651167512832,0.14969396591186523,0.12233152985572815,0.02347155287861824,-0.0802285447716713,-0.3860628306865692,0.7086569666862488,0.5905597805976868,0.049926966428756714,0.04042750597000122,-0.04830813407897949,0.11438216462891568,0.21479688225238472,-0.8655300061349789,0.43776345835442715,-0.7875928473315019,-2.562604269723441,0.7327783776329572
1773065651177550848,0.15973186492919922,0.030708180740475655,0.03788338229060173,0.03265446424484253,-0.3865215480327606,0.7089067697525024,0.5899596810340881,-0.09649547934532166,-0.023832857608795166,-0.006951868534088135,0.11454082996618092,0.21491208450595994,-0.8653280559738771,0.43806461013011955,-0.7879469941770676,-2.5615943555339005,0.7337103956830918
1773065651187588864,0.1697700023651123,0.02892838977277279,0.03955052047967911,0.1469070017337799,-0.3860480487346649,0.7094894051551819,0.5895693898200989,-0.057067275047302246,-0.02255380153656006,0.0314023494720459,0.11445795506875446,0.2144128269846176,-0.8653391411127371,0.4383090255678674,-0.7887734034475377,-2.561852837531159,0.7327869661995202
1773065651197625856,0.17980694770812988,-0.0318247489631176,0.020449131727218628,0.1316126137971878,-0.38517433404922485,0.710091769695282,0.5894157290458679,0.01824614405632019,-0.006814122200012207,-0.005583822727203369,0.11425676492664301,0.21371134404548423,-0.8654682714542098,0.4384491610036072,-0.7896284950590415,-2.5627714361945153,0.7310740252385612
1773065651207663872,0.18984484672546387,-0.10542919486761093,0.012130748480558395,0.04355438053607941,-0.3846299350261688,0.7100262641906738,0.5898497700691223,0.019593924283981323,-0.014729022979736328,-0.013311624526977539,0.11419365929730783,0.21326630530701757,-0.8657034005982842,0.4382179764160941,-0.7895355078255054,-2.5637557931276653,0.7295066569821075
1773065651217701888,0.19988298416137695,-0.14195214211940765,0.00531625235453248,-0.002597932703793049,-0.3845428228378296,0.7093275785446167,0.5907461643218994,0.009390294551849365,-0.014427125453948975,0.0072914958000183105,0.11432358229720205,0.2130972500626629,-0.8660038389741168,0.4376722423418062,-0.7885438313222853,-2.5645539237862325,0.7282807024597314
1773065651227739904,0.20992088317871094,-0.14116065204143524,-0.001979211112484336,0.0055460138246417046,-0.38455504179000854,0.7084890604019165,0.5917441248893738,0.003527700901031494,-0.012764394283294678,0.006995558738708496,0.11448230706170154,0.21301419480453815,-0.8663123157276665,0.4370604928052485,-0.7873549198677203,-2.565310880530045,0.7271902327249815
1773065651237777664,0.21995878219604492,-0.10059826076030731,-0.0006789227481931448,-0.002472630934789777,-0.3845054805278778,0.7077616453170776,0.5926460027694702,-0.0005806684494018555,-0.0011423230171203613,-0.00991278886795044,0.11459349862358267,0.2129290997818464,-0.866593453519236,0.4365150657949621,-0.7863246686642479,-2.566065367618408,0.7261665816590437
1773065651247815936,0.229996919631958,-0.047848764806985855,-0.007313922513276339,-0.034951742738485336,-0.38461390137672424,0.7072381377220154,0.5932005643844604,-0.00767439603805542,0.005683183670043945,-0.0242917537689209,0.11469963802242365,0.21297189696490962,-0.8667428940679849,0.4361695568257231,-0.7855839345036763,-2.566363598927638,0.7257943797771899
1773065651257852672,0.24003386497497559,0.02265194244682789,-0.008390105329453945,-0.0685453861951828,-0.38491785526275635,0.7069641351699829,0.5933293104171753,-0.003921836614608765,0.009405434131622314,-0.02692323923110962,0.11478555700837409,0.21320197078359726,-0.866723479215617,0.4360728550109008,-0.7851964731020001,-2.566102066900755,0.7262889281009325
1773065651267890944,0.25007200241088867,0.11043532192707062,-0.020028918981552124,-0.0986790582537651,-0.3854340612888336,0.7070305347442627,0.5929152965545654,0.004391580820083618,0.006378889083862305,-0.03386378288269043,0.11483502296347813,0.21364581178787068,-0.8664947240713285,0.4362972866464032,-0.7852903628869313,-2.56517104316378,0.7278226298622154
1773065651277928704,0.26010990142822266,0.18403160572052002,-0.03508749604225159,-0.09063205122947693,-0.38595959544181824,0.7075464129447937,0.5919568538665771,0.007083922624588013,-0.001613914966583252,-0.0398024320602417,0.11476791403571568,0.21421290514689728,-0.8660780828823608,0.43686359581984235,-0.7860201205753837,-2.5638083117253867,0.7301356615541041
1773065651287966720,0.27014780044555664,0.19561955332756042,-0.04751327261328697,-0.0955628901720047,-0.38635167479515076,0.7083436846733093,0.5907467603683472,0.01391512155532837,-0.007309138774871826,-0.030794978141784668,0.11457602925245405,0.21480727058444607,-0.8655814287577709,0.4376059841205259,-0.7871489610461967,-2.5624067213858397,0.732708504316037
1773065651298004992,0.2801859378814697,0.18351516127586365,-0.05659904703497887,-0.10648864507675171,-0.3867723047733307,0.7090678811073303,0.5896013379096985,0.010719507932662964,-0.012275338172912598,-0.013948261737823486,0.1143723314704524,0.21547240426272954,-0.8650851439648907,0.43831294133656984,-0.7881754154630399,-2.561018385130176,0.735397208899583
1773065651308041728,0.2902228832244873,0.1883876919746399,-0.007108459249138832,0.1559794545173645,-0.3867373466491699,0.7100180983543396,0.5884800553321838,0.02235737442970276,-0.019878268241882324,-0.005121171474456787,0.11404331034660628,0.2158326731859057,-0.8646712022198333,0.43903779068342713,-0.7895239459412012,-2.5601865227826472,0.7372436406168916
1773065651318079744,0.3002607822418213,0.3663102686405182,-0.06673583388328552,0.3819601237773895,-0.38422301411628723,0.7127814292907715,0.586783766746521,0.132269948720932,0.03335803747177124,-0.0022042393684387207,0.11284627082742082,0.21476145079157347,-0.8644474477534848,0.4403110375258383,-0.7934559041208671,-2.5618540414538193,0.7356427481427181
1773065651328117760,0.3102989196777344,0.44682562351226807,-0.06083294376730919,0.20484580099582672,-0.3816567063331604,0.7164440751075745,0.583991527557373,0.1293831467628479,0.05970948934555054,-0.020133495330810547,0.11145508583033502,0.21378174063879413,-0.8638825940574525,0.44224656832464515,-0.7986918791312884,-2.562739035984609,0.7352211687324274
1773065651338155776,0.32033681869506836,0.36347657442092896,-0.06620999425649643,0.029177973046898842,-0.38048669695854187,0.71926349401474,0.5812827348709106,-0.029272735118865967,0.010396420955657959,0.009400129318237305,0.11048288325520145,0.21369245606618828,-0.8631204436432451,0.444018103288033,-0.802741605143542,-2.56201573555599,0.7371666146244455
1773065651348193792,0.33037495613098145,0.2855239808559418,-0.046045608818531036,0.05190139636397362,-0.37991079688072205,0.7212544083595276,0.579189121723175,-0.058504700660705566,-0.003252089023590088,0.04480385780334473,0.10981379210481909,0.2138579622463856,-0.8624727957367384,0.4453610008176674,-0.8056115601158869,-2.5610560208625945,0.7393114736718364
1773065651358231808,0.34041285514831543,0.2835560739040375,-0.03450373187661171,0.17512372136116028,-0.37890034914016724,0.7232862710952759,0.577314555644989,-0.021154671907424927,-0.009525716304779053,0.024827957153320312,0.10910789474733111,0.21362217967161043,-0.8619877232777156,0.4465852342979649,-0.8085494287832542,-2.56079067348197,0.7402017294417954
1773065651368268800,0.350449800491333,0.36455079913139343,-0.07592760026454926,0.23084823787212372,-0.3770584166049957,0.7259292006492615,0.575198769569397,0.028730809688568115,-0.00017547607421875,0.005962669849395752,0.108062057616643,0.2130051538917115,-0.8615266640939288,0.4480213973642002,-0.8123844806139963,-2.5613417146580306,0.7401828725725946
1773065651378306816,0.3604879379272461,0.43833285570144653,-0.16371391713619232,0.06395433098077774,-0.375174880027771,0.7289133667945862,0.5726507902145386,0.06978553533554077,0.03517043590545654,0.01220327615737915,0.10674480099381886,0.2127752000549512,-0.8608438412878973,0.44975558968916274,-0.8167333666623685,-2.5616022600828448,0.7414431009578887
1773065651388344832,0.3705258369445801,0.5241788029670715,-0.25012949109077454,-0.30108943581581116,-0.3748480975627899,0.7311922907829285,0.5699533224105835,0.07748481631278992,0.11316806077957153,0.0638357400894165,0.10561569327680205,0.21398921466016751,-0.8597588458873929,0.4515182110339395,-0.8200681384294689,-2.55983593502129,0.7466765688339352
1773065651398382848,0.38056397438049316,0.8503519296646118,-0.3403374254703522,-0.6727361679077148,-0.37671035528182983,0.7331950068473816,0.5661396980285645,0.09643697738647461,0.19765210151672363,0.08978980779647827,0.10470942412397036,0.21710185506815954,-0.8578674977982457,0.4538347835685464,-0.8230085288788644,-2.554466259784398,0.7580775362517898
1773065651408420864,0.39060187339782715,1.1650651693344116,-0.5477657318115234,-0.7821242213249207,-0.3797745108604431,0.7360547184944153,0.5603525042533875,0.19903415441513062,0.2596117854118347,0.057216525077819824,0.10342070508323277,0.22188118905408546,-0.8549532087454775,0.4573050959439187,-0.8272234462860877,-2.5459615338231947,0.7756876234117344
1773065651418458880,0.40064001083374023,1.439497709274292,-0.6824709177017212,-0.7513920068740845,-0.38203203678131104,0.7404378652572632,0.5529947280883789,0.3229958117008209,0.32548004388809204,0.05854696035385132,0.1010822670740513,0.2272633483705491,-0.851380482638246,0.4618278507794161,-0.8337215633602939,-2.5370394120563535,0.7961371984945853
1773065651428495872,0.4106769561767578,1.5962729454040527,-0.8021632432937622,-0.7406501770019531,-0.3834276497364044,0.7460213303565979,0.5444585084915161,0.3743945062160492,0.29955655336380005,0.055333852767944336,0.09785990079101797,0.2329059391435677,-0.8473394141623981,0.4671124835095286,-0.8420672374798768,-2.528028953077157,0.8183239222415998
1773065651438533888,0.4207148551940918,1.568410873413086,-0.9375151991844177,-0.8577056527137756,-0.3846668004989624,0.7515917420387268,0.5358558297157288,0.4018787145614624,0.2050275206565857,0.042482852935791016,0.09460558574940779,0.23827849754911634,-0.843297852677099,0.4723578419010065,-0.850471879309963,-2.518983675151265,0.840152113272359
1773065651448571904,0.4307529926300049,1.4545400142669678,-1.035729169845581,-1.003387451171875,-0.3864402174949646,0.7560712695121765,0.5282237529754639,0.4280051589012146,0.09840565919876099,0.05920910835266113,0.09082194709700589,0.24526218510527367,-0.8390222544790895,0.47711585266925527,-0.8572893607545247,-2.509982133934762,0.8652292322114695
1773065651458609920,0.44079089164733887,1.3701189756393433,-1.1564315557479858,-1.1151827573776245,-0.38872718811035156,0.7593625783920288,0.5217854976654053,0.480096697807312,0.008063137531280518,0.04741322994232178,0.08699947172539613,0.2529937295326984,-0.8347975309658952,0.4811844838719799,-0.8623329397700646,-2.501302913825307,0.8912391199031606
1773065651468647680,0.45082879066467285,1.3317441940307617,-1.2551133632659912,-1.166498064994812,-0.3911205530166626,0.7619553208351135,0.5161867141723633,0.5619884729385376,-0.0589371919631958,0.0020169615745544434,0.08297404378568939,0.2612351994600664,-0.8305718077789248,0.48479059421762005,-0.8663269691418801,-2.493174513476787,0.917821686883142
1773065651478685952,0.46086692810058594,1.3479562997817993,-1.3657450675964355,-1.175129771232605,-0.39338165521621704,0.7642314434051514,0.5110785961151123,0.6425881385803223,-0.09760534763336182,-0.02723771333694458,0.07863981204212833,0.26982786491462724,-0.8262761255911036,0.48813577514584106,-0.8698488285661263,-2.4855968322670856,0.9448804189079351
1773065651488722688,0.4709038734436035,1.351878046989441,-1.5332890748977661,-1.2073431015014648,-0.39510443806648254,0.7664522528648376,0.5064025521278381,0.6974878311157227,-0.12916892766952515,-0.05896902084350586,0.07369227762593344,0.27883078940813844,-0.8218604970872633,0.49129238503717015,-0.8732993097851546,-2.4790307996441316,0.9724935511630486
1773065651498760960,0.4809420108795166,1.257041096687317,-1.6711584329605103,-1.248254656791687,-0.39641958475112915,0.7682076096534729,0.5027010440826416,0.7151910066604614,-0.15472811460494995,-0.11390715837478638,0.0682558725401007,0.2883142939597233,-0.8174505485772396,0.49395397952529,-0.8760367071341929,-2.4738545323715146,1.0002473477363854
1773065651508798720,0.4909799098968506,1.1041338443756104,-1.7316752672195435,-1.280686616897583,-0.39761385321617126,0.7691264748573303,0.5003476738929749,0.6862642765045166,-0.18353980779647827,-0.15972572565078735,0.06268914920176492,0.2981124432400482,-0.8132052659305646,0.495879285783003,-0.8774731928584878,-2.470107007573435,1.0273579651886813
1773065651518836736,0.5010178089141846,0.8754119277000427,-1.7758108377456665,-1.275550365447998,-0.3986952602863312,0.7690050005912781,0.4996734857559204,0.6213819980621338,-0.20294970273971558,-0.2105041742324829,0.05722178480897778,0.3079979158079325,-0.8093046530699637,0.496879255615887,-0.8772831716209629,-2.468126421979886,1.0528329780926062
1773065651528874752,0.5110559463500977,0.5418614149093628,-1.8260090351104736,-1.233168363571167,-0.3993489742279053,0.7675570845603943,0.5013745427131653,0.5428121089935303,-0.17571449279785156,-0.20614749193191528,0.05194286327386705,0.3177712609665761,-0.806045094527202,0.49660311131945556,-0.8750212219874793,-2.4689844339201312,1.0752156004331843
1773065651538912768,0.5210938453674316,0.2677859365940094,-1.8877497911453247,-1.1845442056655884,-0.3992175757884979,0.7647279500961304,0.5057828426361084,0.4628315269947052,-0.10365629196166992,-0.17832928895950317,0.04678491658188592,0.32737134530139356,-0.8035666855383216,0.4948936155661195,-0.8706190377811266,-2.4734063554470223,1.0938248329183624
1773065651548949760,0.5311307907104492,0.036805443465709686,-1.8403822183609009,-1.232375144958496,-0.3988686501979828,0.7607208490371704,0.5120619535446167,0.3858681917190552,-0.010736167430877686,-0.18045812845230103,0.04197254383522356,0.33687081435606586,-0.8015915692903299,0.49214558651805784,-0.8644229759318443,-2.479821988303585,1.1099982131586699
1773065651558987776,0.5411689281463623,-0.3349342942237854,-1.8193477392196655,-1.3572551012039185,-0.3992392122745514,0.7548182606697083,0.5204397439956665,0.3084646463394165,0.12889450788497925,-0.1511465311050415,0.038061024297843166,0.34651796979883565,-0.8000907190657072,0.48819207768515854,-0.8553769791665036,-2.4872251080328214,1.1243844602938757
1773065651569025792,0.5512068271636963,-0.6213362216949463,-1.8084367513656616,-1.5778402090072632,-0.400599867105484,0.746351420879364,0.531487762928009,0.2639116942882538,0.2939012050628662,-0.05587130784988403,0.03517115658244911,0.35672014248652195,-0.7990585896900203,0.48272049443704906,-0.8425630232446825,-2.495706704902398,1.1374644826475324
1773065651579063808,0.5612449645996094,-0.5760950446128845,-1.7746590375900269,-1.8628743886947632,-0.403782457113266,0.7360323071479797,0.5433380007743835,0.232304185628891,0.35043925046920776,-0.02446293830871582,0.03329030001695488,0.36782528716601015,-0.7977302477722353,0.47667889728324986,-0.8271903870558884,-2.5024889788821985,1.1525241449244157
1773065651589101824,0.5712828636169434,-0.3361695110797882,-1.5986690521240234,-2.2090234756469727,-0.40913882851600647,0.725386917591095,0.5535514950752258,0.17590826749801636,0.28933775424957275,-0.06768113374710083,0.032053283239709504,0.37990461460600505,-0.7952661393441988,0.47137760916298116,-0.8115963362406647,-2.5050936897264817,1.1725330365733546
1773065651599139840,0.5813210010528564,-0.34456580877304077,-1.388638973236084,-2.420978546142578,-0.4178807735443115,0.7136898636817932,0.5621588230133057,0.06169486045837402,0.2257327437400818,-0.08472657203674316,0.032424190143735654,0.39263359299107614,-0.7917817144552728,0.4667647031239151,-0.7947519269900137,-2.5023611584671634,1.1967486024766132
1773065651609176832,0.591357946395874,0.14758290350437164,-1.3772848844528198,-2.2225964069366455,-0.4265604615211487,0.7030397653579712,0.5690172910690308,-0.013060390949249268,0.15499228239059448,-0.06991779804229736,0.032612891472954174,0.4051124616999388,-0.7876500169247083,0.46306324459610954,-0.7796629521674878,-2.4983193591418633,1.2222019494691307
1773065651619214848,0.601395845413208,0.7103952169418335,-1.200419306755066,-1.9978209733963013,-0.43389058113098145,0.6965996026992798,0.571391224861145,-0.07097700238227844,0.06505811214447021,-0.23310387134552002,0.03143483391986376,0.41646358013550727,-0.7824664118600648,0.4618617133820377,-0.7706470658527923,-2.4921291762630813,1.249629142285152
1773065651629252864,0.6114339828491211,0.44203510880470276,-1.014869213104248,-2.0489256381988525,-0.4414622187614441,0.691493034362793,0.571794331073761,-0.2521108388900757,0.1024523377418518,-0.24119728803634644,0.03037908175305621,0.42694997184012673,-0.7769239826759485,0.46171422788682404,-0.7635538080770798,-2.484119008961339,1.2771823685752282
1773065651639290880,0.6214718818664551,-0.38987255096435547,-0.8222421407699585,-2.4702162742614746,-0.4516213536262512,0.6815871000289917,0.5757409930229187,-0.4235466420650482,0.3032916188240051,0.07347488403320312,0.03192738105582508,0.4378077119588311,-0.7721365824718026,0.4594674011945914,-0.7499293582403787,-2.4764256834517937,1.3018583534977075
1773065651649328640,0.6315097808837891,-0.8199256062507629,-0.7085656523704529,-2.844393014907837,-0.46526283025741577,0.6655588746070862,0.5835765600204468,-0.5309224128723145,0.43069350719451904,0.25371891260147095,0.036549118325882445,0.44976522120192053,-0.7677887291495408,0.4548360146106269,-0.728242399417897,-2.468524065139952,1.3249121441082536
1773065651659365632,0.6415467262268066,-0.9793250560760498,-0.6379157304763794,-2.9108331203460693,-0.48032626509666443,0.6465327739715576,0.5926903486251831,-0.4857228696346283,0.4020206332206726,0.13025575876235962,0.04256684292482943,0.46224044353694943,-0.7633340971731098,0.44926922199756936,-0.7030307877227562,-2.4605321566923375,1.3474404208840456
1773065651669402624,0.6515836715698242,-1.1149550676345825,-0.40728089213371277,-2.818479061126709,-0.49548399448394775,0.6262124180793762,0.6019583344459534,-0.34895265102386475,0.3442770838737488,0.1188669204711914,0.049456955754171084,0.47409852719946244,-0.7590848178386911,0.44336769328220804,-0.6766856533802893,-2.452912239876091,1.3676304571406557
1773065651679440640,0.6616218090057373,-1.0158747434616089,-0.16829948127269745,-2.819571018218994,-0.5112240314483643,0.6053617000579834,0.6100711226463318,-0.2408968210220337,0.27690136432647705,0.1948603391647339,0.05728193437844268,0.4850782748808273,-0.7548076860986078,0.4378162650977011,-0.650220239517891,-2.444121632750089,1.3862824432415188
1773065651689478656,0.6716597080230713,-0.49292507767677307,-0.12000598013401031,-2.8495607376098633,-0.5273248553276062,0.5858171582221985,0.6154241561889648,-0.17901980876922607,0.1279279589653015,0.16936594247817993,0.0648494692798673,0.4958782798906388,-0.7495444061984419,0.43368482591708063,-0.6258880082343337,-2.4331364622623672,1.4071381164461805
1773065651699516672,0.6816978454589844,0.11890999227762222,0.021995097398757935,-2.731994390487671,-0.5432215332984924,0.5696612000465393,0.616762638092041,-0.13771706819534302,-0.03973883390426636,0.08790338039398193,0.0711753377959919,0.5064253393813698,-0.7429096126926611,0.4319174220416599,-0.6060935951155054,-2.419508114704929,1.4316885784960849
1773065651709554688,0.6917357444763184,0.39350107312202454,0.1762903928756714,-2.528191566467285,-0.5587130188941956,0.556922435760498,0.6145545244216919,-0.16464513540267944,-0.14185285568237305,0.1308220624923706,0.07651143104433103,0.5160555644179178,-0.735502492468085,0.43228320581078605,-0.5906758068067834,-2.4037534743671523,1.4578186396931532
1773065651719592704,0.7017738819122314,0.18796087801456451,0.35478317737579346,-2.423846960067749,-0.5739274621009827,0.5448578596115112,0.6113407015800476,-0.2653670310974121,-0.19785767793655396,0.23742955923080444,0.0819813240107986,0.5246799128012025,-0.7282728498278109,0.4331383129076803,-0.576219569291023,-2.387749206429528,1.4821868491860484
1773065651729629696,0.711810827255249,-0.20539866387844086,0.5572526454925537,-2.46041202545166,-0.5898714065551758,0.5306174159049988,0.6086843013763428,-0.39256560802459717,-0.22086411714553833,0.3841744661331177,0.08895539549934883,0.5325297072501404,-0.7216330478819618,0.4332951618888169,-0.5593288406844628,-2.371889503309747,1.5031018082741088
1773065651739667712,0.721848726272583,-0.5756576657295227,0.7579761743545532,-2.5109152793884277,-0.6068585515022278,0.5132901668548584,0.6068406105041504,-0.47321945428848267,-0.24563586711883545,0.46971261501312256,0.09774967849262302,0.5399089608164965,-0.7154848811559696,0.4324633947989243,-0.5390141695192279,-2.3561796956798995,1.5207326499246132
1773065651749705728,0.7318868637084961,-0.9897656440734863,0.9551510214805603,-2.430792808532715,-0.6246243119239807,0.49328070878982544,0.6054077744483948,-0.4491366147994995,-0.2711890637874603,0.4634246230125427,0.1082979546944655,0.5465177608381525,-0.7099452180033122,0.4307756397069683,-0.5158572190460591,-2.3405729525775554,1.5345745302380878
1773065651759743744,0.7419247627258301,-1.4080153703689575,1.0757461786270142,-2.301433801651001,-0.6422658562660217,0.4709104895591736,0.6047624349594116,-0.3626626133918762,-0.22121575474739075,0.42621278762817383,0.12035998577944908,0.5520027144978417,-0.7054602923480049,0.4279394453538978,-0.49032258918775246,-2.326129326302393,1.5432228996462423
1773065651769781504,0.7519626617431641,-1.4915509223937988,1.1124069690704346,-2.2806081771850586,-0.6594535112380981,0.4470294117927551,0.6043885350227356,-0.2675178050994873,-0.1439899504184723,0.31496870517730713,0.13322717876800344,0.556782915032493,-0.701560430853954,0.42433026504514654,-0.46344169755780856,-2.3126524907066277,1.5485778439046183
1773065651779819776,0.7620007991790771,-1.1185550689697266,1.0887243747711182,-2.225238800048828,-0.6760087609291077,0.42384961247444153,0.602796733379364,-0.2133345603942871,-0.11932989954948425,0.13096803426742554,0.145612958575182,0.5614457568424331,-0.6972639649159242,0.42118709678527444,-0.4376913917236273,-2.2990066103547817,1.5544992037867629
1773065651789856768,0.7720377445220947,-0.6582010388374329,1.0389260053634644,-2.012533187866211,-0.6912711262702942,0.40397995710372925,0.5991196036338806,-0.14500200748443604,-0.15028738975524902,-0.056364476680755615,0.1562905111697438,0.5659478303204276,-0.6922881198049681,0.4195395627445489,-0.415863473595043,-2.284901830203278,1.5627294737347592
1773065651799894784,0.7820758819580078,-0.4991964101791382,0.9790510535240173,-1.7779772281646729,-0.7048043608665466,0.38741177320480347,0.5942753553390503,-0.07083046436309814,-0.1951509714126587,-0.13736611604690552,0.16533574436626744,0.5699207520520544,-0.6872612422207399,0.41895880868688523,-0.3978224443431407,-2.27131638408054,1.5715255697109527
1773065651809932800,0.7921137809753418,-0.5124282836914062,0.9641599655151367,-1.6499468088150024,-0.7170546650886536,0.37227392196655273,0.5892744064331055,-0.04098653793334961,-0.2331748604774475,-0.09818565845489502,0.17368295824785762,0.5733188002941535,-0.682599994511249,0.4185653023259831,-0.3814578576749945,-2.258688373219035,1.579181865451301
1773065651819970560,0.8021516799926758,-0.5064203143119812,0.8953506350517273,-1.5605747699737549,-0.7284844517707825,0.35756736993789673,0.5843422412872314,-0.058212876319885254,-0.2795492112636566,-0.11452418565750122,0.18175085329914822,0.5763891991602712,-0.6781936462045922,0.41808548450912936,-0.3656617586680336,-2.246837222443238,1.5858307867625394
1773065651830008832,0.8121898174285889,-0.4450240731239319,0.7608879208564758,-1.3732820749282837,-0.738513171672821,0.34391775727272034,0.5799300074577332,-0.06524348258972168,-0.2671355605125427,-0.16188496351242065,0.18903788825307954,0.5792128912453716,-0.6741494053639849,0.4174921099468342,-0.35108598710831684,-2.2364889118191154,1.5916439238414866
1773065651840046592,0.8222277164459229,-0.329643577337265,0.7656969428062439,-1.2482209205627441,-0.7471540570259094,0.33216679096221924,0.5756958723068237,-0.029563963413238525,-0.15734687447547913,-0.07552814483642578,0.1952827283635331,0.5816847467662022,-0.6704407472246918,0.41715301277004957,-0.33859986976782763,-2.2273003314340043,1.5970366380493108
1773065651850083584,0.8322646617889404,-0.44908979535102844,0.7441437244415283,-1.3456705808639526,-0.7557305097579956,0.32012882828712463,0.5713045597076416,-0.04344850778579712,-0.045913130044937134,0.14663666486740112,0.20173082422301442,0.5839700538622086,-0.6668067548015586,0.4167161880077542,-0.325865457313922,-2.2181030528397994,1.6017782892889376
1773065651860121600,0.8423027992248535,-0.6920213103294373,0.7139882445335388,-1.3336870670318604,-0.7644289135932922,0.3067868947982788,0.5670362114906311,-0.10054600238800049,-0.1049589216709137,0.15075236558914185,0.20860935076375436,0.5864677960761818,-0.6630034878703203,0.41588938877691745,-0.3118152940076268,-2.2090142561946595,1.6063340594445352
1773065651870159616,0.8523406982421875,-1.3501172065734863,0.5793792605400085,-1.2169517278671265,-0.7716994881629944,0.2911487817764282,0.5654309988021851,-0.07923734188079834,-0.24149668216705322,0.25771957635879517,0.2163820188262978,0.5882007133459999,-0.6608596147260897,0.41287202024966685,-0.29542741256119476,-2.203138911991498,1.6051791145732677
1773065651880197888,0.8623788356781006,-1.081491231918335,0.5161716341972351,-0.8334217667579651,-0.7776283025741577,0.27578964829444885,0.5650086998939514,-0.04123479127883911,-0.44378891587257385,-0.23880618810653687,0.2240106144233758,0.5892125632168564,-0.6597976235186466,0.40904163059935994,-0.279411120626169,-2.199138998656086,1.6009428532831456
1773065651890235648,0.8724167346954346,-0.5581272840499878,0.5460677742958069,-0.4209659993648529,-0.782410204410553,0.26637592911720276,0.5629196166992188,0.16964763402938843,-0.5491060018539429,-0.3424758315086365,0.22947009963681855,0.5892305106619637,-0.6589895307855791,0.4072883236074836,-0.2696311322574004,-2.1944693358247975,1.597932740166001
1773065651900273920,0.8824548721313477,-0.10402819514274597,0.4009874165058136,-0.2490793615579605,-0.7859466671943665,0.26195669174194336,0.5600596070289612,0.1983153223991394,-0.34476613998413086,-0.2568979859352112,0.23271459158963792,0.5888945646383846,-0.6582043706956522,0.40720287249187914,-0.26504915263193435,-2.189923667393974,1.596933906424938
1773065651910310656,0.8924918174743652,0.5330559015274048,0.20438489317893982,-0.3066693842411041,-0.7883878946304321,0.26105964183807373,0.557039201259613,0.12891817092895508,-0.18458256125450134,-0.33856385946273804,0.2336605629026555,0.5893695164937377,-0.6566301672495541,0.4085134265918471,-0.26411975950330935,-2.1859079293368047,1.6003029618570686
1773065651920348672,0.9025297164916992,0.8260636329650879,-0.11973527073860168,-0.45232394337654114,-0.7896400690078735,0.26203471422195435,0.5548030734062195,-0.016436100006103516,-0.16906291246414185,-0.453683078289032,0.2324624431183416,0.5913822327060744,-0.653963764755537,0.41056024449680506,-0.26513000111469837,-2.1832667967718287,1.60871536266035
1773065651930386688,0.9125678539276123,0.907566249370575,-0.40019410848617554,-0.42482972145080566,-0.789340078830719,0.2631841003894806,0.5546859502792358,-0.09759241342544556,-0.1381077766418457,-0.46964865922927856,0.2299860940479023,0.5944075337293265,-0.6511702320453316,0.4120236154658597,-0.2663211722949287,-2.1833462382848094,1.6186692446884368
1773065651940424704,0.9226057529449463,1.0783112049102783,-0.552886426448822,-0.26489707827568054,-0.7875499725341797,0.2660728096961975,0.5558509826660156,-0.1309375762939453,-0.1328483521938324,-0.4716835618019104,0.22611017908603367,0.5976781837332169,-0.6486187497974342,0.41345941153218063,-0.2693166803540399,-2.1854028174984585,1.6292721193976667
1773065651950462720,0.9326438903808594,0.8270682692527771,-0.6106690764427185,-0.3068716824054718,-0.7849879860877991,0.26947036385536194,0.5578346848487854,-0.11145049333572388,-0.18196120858192444,-0.3137093186378479,0.22179552162136393,0.6008728711930682,-0.6464279737374098,0.414595435169153,-0.272842994451768,-2.1886198253262794,1.6392553676850232
1773065651960500736,0.9426817893981934,0.17080870270729065,-0.5424584150314331,-0.5832352042198181,-0.7829104065895081,0.26892682909965515,0.5610076189041138,-0.06933867931365967,-0.18532395362854004,-0.024386584758758545,0.21926693587119617,0.6040631960163828,-0.6446793537826173,0.41402675589523885,-0.2722786415676245,-2.1925546657686747,1.6462665921599036
1773065651970537728,0.9527187347412109,-0.5305150747299194,-0.42292165756225586,-0.8741775751113892,-0.7821601629257202,0.262087345123291,0.5652751326560974,-0.044728994369506836,-0.09010547399520874,0.16052454710006714,0.21980991612824327,0.6072285676493553,-0.6433591766259504,0.4111521797632571,-0.2651845117842826,-2.1966019983321283,1.6491581922726741
1773065651980575744,0.962756872177124,-0.9919617772102356,-0.24231551587581635,-1.0011751651763916,-0.7826440334320068,0.2502301335334778,0.5699586272239685,0.0026148557662963867,0.10352960228919983,0.20280730724334717,0.22302851137389745,0.6101080890230424,-0.6424542328398916,0.40654501394308956,-0.2529179421083243,-2.2002299453640175,1.648360673104328
1773065651990613760,0.972794771194458,-1.1399716138839722,-0.03298493102192879,-1.0751694440841675,-0.7844197154045105,0.23575229942798615,0.5736780166625977,0.07599997520446777,0.30146387219429016,0.34119313955307007,0.22806526917426082,0.6125038478170333,-0.6416214073414022,0.40143144272576303,-0.23799262023423806,-2.202248073900808,1.6455885642877726
1773065652000651520,0.982832670211792,-0.7357946038246155,0.21848338842391968,-1.0704264640808105,-0.787429928779602,0.2216273546218872,0.5751827359199524,0.09085100889205933,0.4050053358078003,0.34702783823013306,0.23352974892629672,0.6146509204338444,-0.6401527955149441,0.3973316294040193,-0.2234830133767367,-2.201671314309837,1.6440173735579602
1773065652010689792,0.9928708076477051,0.01848795637488365,0.4024423062801361,-1.0573647022247314,-0.7915969491004944,0.21115025877952576,0.5734022259712219,0.08107131719589233,0.41494840383529663,0.2837145924568176,0.23777732689841438,0.6169991694087094,-0.6371915911758659,0.39593043131035205,-0.21275159947101507,-2.1976857629594817,1.6474968923938287
1773065652020727552,1.002908706665039,0.31105074286460876,0.4425404667854309,-1.0400570631027222,-0.7962284684181213,0.20401892066001892,0.5695586204528809,0.08271205425262451,0.34900540113449097,0.2130190134048462,0.24055827271490907,0.619751787857657,-0.6329984567152548,0.3966769193383825,-0.2054614402007249,-2.1917307460784468,1.6555684004995423
1773065652030764800,1.0129458904266357,0.08691272884607315,0.4720813035964966,-0.9660904407501221,-0.8008626103401184,0.19710978865623474,0.5654793977737427,0.1476643681526184,0.24933184683322906,0.21270358562469482,0.24336094874614628,0.6223036892325221,-0.6288702813197746,0.39753717199162664,-0.19840899984447607,-2.185596462735645,1.6633366334897464
1773065652040802816,1.0229837894439697,-0.09273438900709152,0.49070677161216736,-0.6320356726646423,-0.8051760196685791,0.19042447209358215,0.5616312623023987,0.24824559688568115,0.05357880890369415,0.161848783493042,0.24655196109618177,0.6239107678530338,-0.6257403533783878,0.3979904047245771,-0.19159450639204104,-2.1798600107909025,1.6680483139837539
1773065652050840576,1.0330216884613037,-0.040351346135139465,0.5074729919433594,-0.061176955699920654,-0.8086589574813843,0.1870734840631485,0.5577402710914612,0.3717998266220093,-0.224320188164711,0.03759658336639404,0.2490954578369368,0.6239194841897605,-0.6241751496844187,0.3988499926213092,-0.18818219178301046,-2.1745829104650958,1.669407822458965
1773065652060878848,1.0430598258972168,0.3241797685623169,0.4569711685180664,0.4603874087333679,-0.810994565486908,0.1894989162683487,0.5535145401954651,0.4079640507698059,-0.56646728515625,-0.04971498250961304,0.24982030683594034,0.6224167016614286,-0.6239829391733369,0.4010394781282214,-0.19065179655998615,-2.1696895451778375,1.6692057146394075
1773065652070916608,1.0530977249145508,0.9735990166664124,0.3372897803783417,0.5801577568054199,-0.8121693134307861,0.19760480523109436,0.5489386320114136,0.3171740770339966,-1.001926064491272,-0.1479833722114563,0.247935117509385,0.6206901099234678,-0.623869451142943,0.40504191524671446,-0.19891394132532536,-2.1651584235568526,1.6715811193895107
1773065652080954880,1.0631358623504639,0.669556736946106,0.15703028440475464,0.4473307430744171,-0.8125097751617432,0.20687925815582275,0.5450036525726318,0.1861211061477661,-1.3006445169448853,-0.24629753828048706,0.2447776283991045,0.6197324745077958,-0.6232443294875684,0.409367978889867,-0.20838412464245548,-2.1616313262938394,1.6765786330399095
1773065652090991616,1.0731728076934814,-1.0270323753356934,0.1492173671722412,0.3429313600063324,-0.8123870491981506,0.20932753384113312,0.5442513823509216,0.17655318975448608,-1.0201947689056396,-0.07837003469467163,0.24480451592765473,0.6180617790038396,-0.6246001352739549,0.409811122837458,-0.21088720977589698,-2.161062343660207,1.673129031115454
1773065652101029632,1.0832107067108154,-2.6340274810791016,0.3189067840576172,0.22367554903030396,-0.8130829930305481,0.2013878971338272,0.546204149723053,0.1916840672492981,-0.3748193085193634,0.2997889518737793,0.2507732013246528,0.6143326264855599,-0.6290449046871579,0.40498238390285524,-0.20277463675859822,-2.162323160363538,1.655460618186349
1773065652111067648,1.0932488441467285,-2.982781171798706,0.29613810777664185,-0.00449769850820303,-0.8146501779556274,0.18629279732704163,0.5492180585861206,0.09875339269638062,0.24627864360809326,0.33028340339660645,0.26052533245308623,0.6095812862477733,-0.6348383145947405,0.39688493654716067,-0.1873875270355999,-2.1639800826131963,1.6300822727795725
1773065652121105664,1.1032867431640625,-1.6455172300338745,0.053011469542980194,-0.2691498398780823,-0.8159165382385254,0.17186693847179413,0.5520344376564026,-0.04177999496459961,0.6682361960411072,0.03530693054199219,0.2687322096304425,0.6064561158417822,-0.638927379330708,0.3895712893614072,-0.17272449828373135,-2.165632019407776,1.610507116959932
1773065652131143936,1.1133248805999756,0.2782555818557739,-0.2742007374763489,-0.40128791332244873,-0.8158460259437561,0.1652761995792389,0.5541473031044006,-0.1311601996421814,0.7363656759262085,-0.28229665756225586,0.2710605621932903,0.6069241613763754,-0.6393095508180607,0.38659097380171326,-0.16603805096805602,-2.167446422543863,1.606919906088591
1773065652141180672,1.1233618259429932,1.312205195426941,-0.3391357958316803,-0.2369850128889084,-0.8145855069160461,0.16739970445632935,0.5553626418113708,-0.10590088367462158,0.5713698267936707,-0.3681069016456604,0.26800708044720833,0.6097983184277187,-0.6370457814693152,0.38793149023907725,-0.16819156230642454,-2.169184571480507,1.616141164053183
1773065652151218688,1.1333997249603271,1.3385441303253174,-0.279790997505188,-0.15865051746368408,-0.813186764717102,0.17361105978488922,0.555505633354187,-0.007339358329772949,0.390414834022522,-0.1512850522994995,0.2631583893820877,0.6128023258479574,-0.6342130080008843,0.39114556226251473,-0.17449523613212703,-2.1701046406105546,1.628751442881694
1773065652161256704,1.1434378623962402,0.580522894859314,-0.2776857614517212,-0.32792210578918457,-0.8120478391647339,0.1773061901330948,0.5560038685798645,0.03894621133804321,0.19401642680168152,-0.006657123565673828,0.25963190322781365,0.6154230500616191,-0.6318673985635533,0.3931783031095384,-0.17824859153991882,-2.1711754301253263,1.6385910097280205
1773065652171294720,1.1534757614135742,-0.3660907447338104,-0.15689489245414734,-0.49225297570228577,-0.8115630149841309,0.17437097430229187,0.5576380491256714,0.05208730697631836,0.11794163286685944,0.1640111207962036,0.2595069383203091,0.6172804481199239,-0.6307010855134042,0.3922207389256883,-0.17526691863251245,-2.172822954780723,1.641685313717722
1773065652181332480,1.1635136604309082,-0.7794196009635925,-0.04304475337266922,-0.5691869258880615,-0.8119303584098816,0.16661259531974792,0.559472382068634,0.05938214063644409,0.13754086196422577,0.1869264841079712,0.2621263569987509,0.6183721090604833,-0.6303587318930882,0.3892988388261638,-0.16739323400444253,-2.1741452648486024,1.639688290530379
1773065652191370752,1.1735517978668213,-0.8265551328659058,0.05293796956539154,-0.6783991456031799,-0.8129855990409851,0.15696339309215546,0.5607288479804993,0.05326575040817261,0.20180125534534454,0.13220322132110596,0.2659028038588091,0.6192240710822284,-0.630020611604313,0.3859161220680045,-0.15761517255323468,-2.174586603352986,1.6363953277423486
1773065652201407744,1.1835887432098389,-0.5548061728477478,0.14451076090335846,-0.8677613735198975,-0.8147032260894775,0.14667852222919464,0.5610203146934509,-0.02352297306060791,0.33920708298683167,0.1029810905456543,0.2699119833213147,0.6204982724155762,-0.6288815915938368,0.38293246920516977,-0.14720963563744588,-2.1738432969398693,1.6348431170024644
1773065652211445760,1.193626880645752,0.018511967733502388,0.18639349937438965,-1.029950737953186,-0.8170400857925415,0.13727393746376038,0.5600014328956604,-0.08834022283554077,0.3859957158565521,0.022335052490234375,0.27315507142457435,0.6228108931139812,-0.6261847145160735,0.38129471024506295,-0.13770876275860477,-2.171658073689508,1.6380412392173456
1773065652221483776,1.203664779663086,0.3884730041027069,0.151419535279274,-0.9732060432434082,-0.8193793892860413,0.13020890951156616,0.5582682490348816,-0.05914551019668579,0.29461103677749634,-0.09868866205215454,0.27492457096437783,0.6259825536929147,-0.6223182310819871,0.38115939835480633,-0.13057968572152065,-2.1688823043899137,1.6457775930961331
1773065652231521536,1.21370267868042,0.46241992712020874,0.15361663699150085,-0.7123579382896423,-0.8212888240814209,0.1256171315908432,0.5565113425254822,0.04916369915008545,0.1681908369064331,-0.11617320775985718,0.2756445512278329,0.6289564688747068,-0.6186028144398364,0.3817910016751931,-0.12594986326760366,-2.1663350649318733,1.6542547225806905
1773065652241559808,1.223740816116333,0.5280694961547852,0.24747389554977417,-0.31594881415367126,-0.8230793476104736,0.1240614801645279,0.5542107224464417,0.13853943347930908,-0.005424395203590393,-0.1330985426902771,0.2757180070314169,0.6308638642144422,-0.615724084338649,0.38324189750015714,-0.12438194626539179,-2.1634034309699013,1.6613457164277423
1773065652251597568,1.233778715133667,0.5417876839637756,0.2761524021625519,0.1206546202301979,-0.8246669173240662,0.12628710269927979,0.5513403415679932,0.17455095052719116,-0.23438036441802979,-0.15897583961486816,0.2749956097661646,0.6314015807638584,-0.6140050534277532,0.3856258401297857,-0.1266252161805503,-2.160109399828784,1.6664573655763468
1773065652261634560,1.2438156604766846,0.3447318971157074,0.2756333351135254,0.46027716994285583,-0.8257796764373779,0.1313372105360031,0.5484874844551086,0.14236903190612793,-0.4499101936817169,-0.09226489067077637,0.2737811638510272,0.6305856210963456,-0.6136819235418672,0.3883299454639933,-0.1317177493220906,-2.1570931636386135,1.6686757862022124
1773065652271672832,1.2538537979125977,-0.05409015342593193,0.34282198548316956,0.6384589076042175,-0.8267005085945129,0.13679251074790955,0.545759916305542,-0.01755291223526001,-0.6227544546127319,0.03514212369918823,0.27317428037392144,0.6284436453370087,-0.6147670546136779,0.3905070994240506,-0.13722276498905353,-2.1542852320351593,1.6667180918277118
1773065652281710592,1.2638916969299316,-0.11955859512090683,0.4513201117515564,0.5127469301223755,-0.8280590176582336,0.1411275863647461,0.5425872802734375,-0.2523241639137268,-0.7747945785522461,0.14192193746566772,0.2735841400544559,0.6256795748737438,-0.6162943319793458,0.39224732545591434,-0.1416003121189553,-2.1508547483624643,1.662507246389667
1773065652291748864,1.2739298343658447,-0.49120432138442993,0.5275072455406189,0.31804853677749634,-0.8301266431808472,0.14319610595703125,0.5388733744621277,-0.4227571487426758,-0.8570632934570312,0.15901786088943481,0.2750730242515768,0.6230922159150402,-0.6174081188777497,0.39357097225240595,-0.14369005400140517,-2.1465709546176126,1.658089664814035
1773065652301786624,1.2839677333831787,-1.5299115180969238,0.6995372176170349,-0.00546575803309679,-0.8331483602523804,0.13926202058792114,0.5352290272712708,-0.3788726329803467,-0.5880687832832336,0.30299729108810425,0.2797218267495695,0.61997465396616,-0.6190686120989828,0.392608262147206,-0.13971613200919136,-2.1418226244772463,1.6486524886132088
1773065652311824896,1.2940058708190918,-2.1990203857421875,0.8601862788200378,-0.459806889295578,-0.8376777768135071,0.12700742483139038,0.5311922430992126,-0.27802973985671997,-0.09616941213607788,0.48351722955703735,0.2885899166953199,0.6164292323641538,-0.6209759517830382,0.38874125810224347,-0.12735138356685116,-2.135930427754052,1.6335549423997124
1773065652321861632,1.3040428161621094,-1.788658618927002,0.8394449353218079,-0.6683093309402466,-0.8429493308067322,0.11109928041696548,0.5263969898223877,-0.18752264976501465,0.2736053168773651,0.37585532665252686,0.29877968882243494,0.61355596595643,-0.6218903217889395,0.38409940395763453,-0.11132911222478528,-2.1290147755446993,1.6190804247804909
1773065652331899648,1.3140807151794434,-0.6647447943687439,0.6234676241874695,-0.46388646960258484,-0.8474868535995483,0.09958048909902573,0.521391749382019,-0.009843289852142334,0.3851607143878937,0.036561012268066406,0.3060443699775828,0.612086885383908,-0.6213256107186786,0.38162919333610423,-0.09974580949952397,-2.122332649798497,1.6115927630666644
1773065652341937664,1.3241188526153564,0.1128799244761467,0.41595983505249023,-0.10569009184837341,-0.8504096865653992,0.09599710255861282,0.5172891020774841,0.21227174997329712,0.3095967769622803,-0.21669095754623413,0.30886402476673797,0.6116389753797888,-0.6201147581155175,0.38204513463337286,-0.09614515867995217,-2.117283464177387,1.611114846840296
1773065652351975680,1.3341567516326904,0.14045801758766174,0.374281108379364,0.09156572073698044,-0.8523975610733032,0.09690365195274353,0.5138365030288696,0.3318440318107605,0.20668521523475647,-0.1633269190788269,0.30954308425913707,0.6111371085308958,-0.619216982958504,0.3837509263173121,-0.09705595444827869,-2.113281781337969,1.6125113686059453
1773065652362013696,1.3441948890686035,-0.15510016679763794,0.42139336466789246,0.14432306587696075,-0.8543057441711426,0.0979418158531189,0.5104594230651855,0.28855574131011963,0.0953565239906311,0.04155772924423218,0.31054734091993486,0.6099787308359454,-0.618995687788937,0.38513706048533075,-0.09809907944166749,-2.109385686814539,1.6118141987624297
1773065652372051712,1.3542327880859375,-0.22303421795368195,0.45183995366096497,0.14686478674411774,-0.8564100861549377,0.09811855107545853,0.5068871378898621,0.16070085763931274,-0.03348232060670853,0.13118958473205566,0.3122782429717332,0.6083422664429324,-0.6191633621560118,0.3860553509565644,-0.09827667125724045,-2.105219671070189,1.6092292848113157
1773065652382088704,1.364269733428955,-0.13804635405540466,0.4471130967140198,0.1343546062707901,-0.8585359454154968,0.09844891726970673,0.5032132267951965,0.03567540645599365,-0.13177411258220673,0.08249533176422119,0.3139409712229137,0.6067368870517845,-0.6192551602681472,0.3870844247587655,-0.09860864836237179,-2.1009544706702896,1.6069075692471715
1773065652392126720,1.3743078708648682,-0.11375992000102997,0.48209425806999207,0.07439405471086502,-0.8607355356216431,0.09873390942811966,0.4993857145309448,-0.03381103277206421,-0.14173318445682526,0.09379971027374268,0.3155334975336236,0.6053267705468277,-0.6190899461484677,0.38825994520520485,-0.09889503486660768,-2.0965184448217817,1.605304319323712
1773065652402164736,1.3843457698822021,-0.10854398459196091,0.5776534080505371,0.0505831316113472,-0.8633244633674622,0.09866726398468018,0.49490976333618164,-0.06593579053878784,-0.10889066010713577,0.15496206283569336,0.31741753549694507,0.60392354411783,-0.6186527554086511,0.38960394493331446,-0.0988280589174102,-2.0913222984813213,1.6039941458939
1773065652412202496,1.3943836688995361,-0.012069642543792725,0.6147618889808655,0.07916577160358429,-0.8662036657333374,0.09889880567789078,0.48980584740638733,-0.07009071111679077,-0.10376636683940887,0.15966907143592834,0.319333880327873,0.602460457123721,-0.6180164469511332,0.3913090642157876,-0.09906073887750098,-2.0854335385810696,1.6031231894430233
1773065652422240768,1.4044218063354492,0.038181986659765244,0.6511593461036682,0.06589444726705551,-0.869223415851593,0.09969964623451233,0.4842630624771118,-0.07701987028121948,-0.11492791026830673,0.13712060451507568,0.32107530837743087,0.6010013185639745,-0.6171944119477256,0.39341980751385,-0.09986555871640843,-2.0790906530509803,1.602925365934054
1773065652432278528,1.4144597053527832,-0.007083495147526264,0.6416350603103638,-0.0530250184237957,-0.8723507523536682,0.09987308830022812,0.47857004404067993,-0.132837176322937,-0.06517460942268372,0.0849216878414154,0.3230115018760437,0.5997135002489277,-0.6161401905072271,0.3954471816145102,-0.10003986942310703,-2.0725626405402418,1.6030325713746665
1773065652442315776,1.4244968891143799,-0.045583438128232956,0.552969217300415,-0.244898721575737,-0.8753634691238403,0.09843259304761887,0.47333893179893494,-0.16734588146209717,0.024461716413497925,-0.036754488945007324,0.32526043172968633,0.5989103793176491,-0.6147973825269227,0.3969082346075958,-0.09859223926675934,-2.066497835829226,1.6034200951693864
1773065652452353792,1.4345347881317139,0.14488770067691803,0.3995596766471863,-0.41099342703819275,-0.8779475092887878,0.0956544280052185,0.46910423040390015,-0.10946410894393921,0.08049304038286209,-0.1077454686164856,0.3272866245868424,0.5990564540664111,-0.6129302424753904,0.3979088702935487,-0.09580090436486317,-2.06152091035738,1.6053618787502537
1773065652462391552,1.4445726871490479,0.3909454643726349,0.29674556851387024,-0.41036373376846313,-0.8799376487731934,0.09316076338291168,0.4658656418323517,-0.010290563106536865,0.11234460771083832,-0.18504288792610168,0.3283807559634503,0.600108335521657,-0.6105758049888765,0.3990403934172416,-0.09329604605090515,-2.0577100512468083,1.6097017954481465
1773065652472429824,1.454610824584961,0.6938056945800781,0.23734083771705627,-0.30688712000846863,-0.8815405368804932,0.09250233322381973,0.4629571735858917,0.12214130163192749,0.12292124330997467,-0.1752985417842865,0.328290547057787,0.601573018936549,-0.6079378971649739,0.4009322383067675,-0.0926347621508758,-2.0543752622410607,1.6162804728122342
1773065652482467584,1.464648723602295,0.8551657795906067,0.13481338322162628,-0.10902117192745209,-0.8825861811637878,0.09427686780691147,0.46060124039649963,0.23991650342941284,0.06513170897960663,-0.16799867153167725,0.32688873962895154,0.6031516383663378,-0.6053996417905326,0.4035382536616956,-0.09441708973288059,-2.051791817631266,1.6243302611483632
1773065652492505856,1.474686861038208,0.7197264432907104,0.12982209026813507,0.08854489028453827,-0.8831827640533447,0.0979134663939476,0.45869505405426025,0.2841379642486572,-0.0046517327427864075,-0.11575376987457275,0.3248574593868214,0.6042308874907094,-0.6035333954914366,0.4063497484327952,-0.09807059385909285,-2.0498163778728786,1.6315556431913203
1773065652502542848,1.4847238063812256,0.5272904634475708,0.13193345069885254,0.1478998363018036,-0.8836488127708435,0.1019035130739212,0.4569248557090759,0.18507099151611328,-0.0521751269698143,0.003570050001144409,0.32311447348705974,0.604571403305014,-0.6024581756824888,0.40882095859337647,-0.10208071231074647,-2.0480212872054633,1.6364674568518567
1773065652512580608,1.4947617053985596,0.34960034489631653,0.17296983301639557,0.01313269417732954,-0.884246826171875,0.10475551337003708,0.45511987805366516,0.01684558391571045,-0.09265530109405518,0.0502665638923645,0.3220263280426513,0.6047122371881762,-0.6015671590204442,0.4107787682304103,-0.10494805588577998,-2.0461329006235327,1.6400646815690454
1773065652522618880,1.5047998428344727,0.13231807947158813,0.18872909247875214,-0.2107994705438614,-0.8851754069328308,0.10489528626203537,0.45327842235565186,-0.11018580198287964,-0.08125943690538406,0.09805208444595337,0.32208736193228704,0.6050139113841051,-0.6004976066181249,0.4118500645441667,-0.10508860636515714,-2.0440591890222595,1.642578237513803
1773065652532656640,1.5148377418518066,0.21505609154701233,0.1634703427553177,-0.3713798522949219,-0.8863211870193481,0.10293139517307281,0.451486200094223,-0.14622575044631958,-0.028285406529903412,0.0727752149105072,0.32278891531063375,0.6057887522320794,-0.5989683573960186,0.41238838215009654,-0.10311402481416261,-2.0419304324890484,1.6453493782708297
1773065652542694912,1.5248758792877197,0.3503360152244568,0.09033393859863281,-0.3930005729198456,-0.8872890472412109,0.10077143460512161,0.4500700831413269,-0.06966578960418701,-0.01736690104007721,-0.048962295055389404,0.3230738908807586,0.6071944808802374,-0.5969505029284637,0.41302319231046725,-0.10094277563374514,-2.0402205661977364,1.6498270446709837
1773065652552732672,1.5349137783050537,0.3410272002220154,0.07718218863010406,-0.2699523866176605,-0.8879799246788025,0.09934815764427185,0.44902288913726807,0.06778949499130249,-0.011839009821414948,-0.07466375827789307,0.32294039535057056,0.6086056972842202,-0.5950718910839845,0.41376083446506157,-0.09951231426473771,-2.038967938026477,1.6545055503888932
1773065652562769664,1.5449507236480713,0.32854896783828735,0.08975603431463242,-0.12137465178966522,-0.8885477185249329,0.09909648448228836,0.4479542374610901,0.14333897829055786,0.0030000507831573486,-0.023912429809570312,0.32258193486712033,0.6095523824411948,-0.5936522601323747,0.4146852405898445,-0.09925939751502447,-2.03775203384087,1.658374667445533
1773065652572807680,1.5549888610839844,0.30258819460868835,0.07756195217370987,-0.04163800925016403,-0.8889973163604736,0.09985723346471786,0.44689157605171204,0.11455291509628296,0.011821843683719635,-0.0036085546016693115,0.3220177606193779,0.6101087584243775,-0.5926323378624607,0.41576278734682215,-0.10002393604122549,-2.0365949761420845,1.6615566921886908
1773065652582845696,1.5650267601013184,0.2983283996582031,0.0673130452632904,-0.11049377173185349,-0.8893837928771973,0.10062005370855331,0.44595083594322205,0.015070438385009766,0.03686162829399109,0.036074280738830566,0.32144979035974725,0.6106342395650888,-0.5916935353063949,0.4167668892612277,-0.10079061604572667,-2.035575703825881,1.6645463138936036
1773065652592883712,1.5750646591186523,0.2925916612148285,0.0636778324842453,-0.22680732607841492,-0.8898504972457886,0.1004110649228096,0.44506627321243286,-0.06628060340881348,0.028006911277770996,0.02687281370162964,0.32109235357143795,0.6114885243871134,-0.5904362144149757,0.41757232116804377,-0.10058056276090394,-2.034570727741571,1.6680096200617684
1773065652602921728,1.5851027965545654,0.16997423768043518,0.06523711234331131,-0.2102549821138382,-0.8903669714927673,0.09944703429937363,0.44424885511398315,-0.047697603702545166,-0.00673462450504303,-0.005329728126525879,0.32102348272345915,0.6124148462197603,-0.5891285752502385,0.4181142671332894,-0.0996116822652391,-2.0336037969059615,1.6712048268040243
1773065652612958720,1.595139741897583,0.1038612648844719,0.07186838239431381,-0.1503772735595703,-0.8908438086509705,0.09839248657226562,0.4435272216796875,0.028004944324493408,-0.017200469970703125,-0.042282044887542725,0.3212206228283659,0.6130006348730827,-0.5882124017828473,0.41839425702675803,-0.09855194344663466,-2.0327410157303265,1.6731174651181924
1773065652622996736,1.605177879333496,0.14077241718769073,0.028120102360844612,-0.08697060495615005,-0.8911947011947632,0.09787347912788391,0.44293686747550964,0.08913159370422363,-0.03398491442203522,-0.09842389822006226,0.32123884259122826,0.6134523366602862,-0.5874901377840565,0.4187329159691772,-0.09803041577642119,-2.032052852769451,1.6748042409933288
1773065652633034752,1.61521577835083,0.10586316883563995,0.026408221572637558,-0.0017877989448606968,-0.891333281993866,0.09801837056875229,0.44262567162513733,0.12970608472824097,-0.04206441342830658,-0.12846243381500244,0.3210093068630856,0.6137491962101573,-0.5870474926195868,0.4190945267215533,-0.09817601010314989,-2.0317108465091516,1.6761541292293336
1773065652643072512,1.625253677368164,0.052192479372024536,0.06576547771692276,0.04455999284982681,-0.8915029764175415,0.09859855473041534,0.44215482473373413,0.1131216287612915,-0.025371648371219635,-0.046036601066589355,0.32085044324092277,0.6136958487175345,-0.5869027325736675,0.4194968762467125,-0.0987590159572082,-2.031211219857824,1.6767097960490687
1773065652653110784,1.6352918148040771,0.13032163679599762,0.08657301962375641,-0.018131619319319725,-0.8918447494506836,0.09914321452379227,0.4413425028324127,0.01451033353805542,-0.00755995512008667,0.021899014711380005,0.32079127528595447,0.613602393433676,-0.5866543748102587,0.4200256790489904,-0.0993063576695698,-2.0303272886862054,1.6773811015738227
1773065652663149312,1.6453304290771484,0.15542791783809662,0.10678974539041519,-0.1470537781715393,-0.8923404216766357,0.0990704745054245,0.44035604596138,-0.08625137805938721,-0.018183648586273193,0.014508426189422607,0.320762082785013,0.6139107198953845,-0.5859109529445201,0.4206347668509929,-0.09923325394701343,-2.0292178438659394,1.679180529998792
1773065652673186304,1.655367374420166,0.0504399836063385,0.13614018261432648,-0.23227040469646454,-0.8930774927139282,0.09779787808656693,0.43914440274238586,-0.12179958820343018,-0.026585109531879425,0.02177777886390686,0.32120796164155907,0.6143919804974501,-0.5848886183122571,0.42101440986148075,-0.09795445312202818,-2.027798316842312,1.6810078507902122
1773065652683224320,1.665405511856079,-0.027823660522699356,0.11988957226276398,-0.20345447957515717,-0.8938672542572021,0.09581182897090912,0.4379744231700897,-0.06053948402404785,-0.02330206334590912,-0.006562709808349609,0.3220388471721328,0.6147933817249628,-0.5839660213787776,0.4210746102622679,-0.09595902539906097,-2.0263934656640004,1.6820863028510282
1773065652693262336,1.675443410873413,-0.039794571697711945,0.1266808956861496,-0.04286612570285797,-0.8945357203483582,0.09451190382242203,0.4368904232978821,0.06538844108581543,-0.016966737806797028,-0.06173795461654663,0.3227764101092784,0.6148546402176891,-0.5834372196466397,0.42115332310380243,-0.09465317392390907,-2.0251202270991024,1.6823586572793883
1773065652703300352,1.6854815483093262,-0.09165314584970474,0.1438622772693634,0.14313888549804688,-0.8950628638267517,0.09473513811826706,0.4357609450817108,0.14637523889541626,0.01793576031923294,-0.08010905981063843,0.3232489057132211,0.6142988306806211,-0.5835386990733605,0.42146132653645824,-0.09487741813985129,-2.023868308845078,1.6815046370201099
1773065652713338368,1.6955194473266602,-0.0852852612733841,0.13176512718200684,0.18767119944095612,-0.8954845666885376,0.09590957313776016,0.4346362352371216,0.12419861555099487,0.053016193211078644,-0.07410159707069397,0.3235667015710149,0.6133358260307054,-0.5840695826661684,0.42188438634067943,-0.09605722627896852,-2.022666964350512,1.6798486238496309
1773065652723376384,1.7055573463439941,-0.03448835387825966,0.16584095358848572,0.13748674094676971,-0.8959652781486511,0.0971316248178482,0.43337252736091614,0.04322785139083862,0.0518551841378212,-0.04434967041015625,0.3238293345569572,0.6124478836262808,-0.584460309455403,0.4224314256111114,-0.09728500658296048,-2.021313805737138,1.6785951595241142
1773065652733413376,1.7155945301055908,0.07524213939905167,0.20261014997959137,0.047649260610342026,-0.8966782689094543,0.09806808084249496,0.43168362975120544,-0.058964431285858154,0.056976474821567535,0.03985869884490967,0.32413254379262274,0.6117809120056447,-0.5844364266664518,0.42319768826016113,-0.09822595960970132,-2.019474096468419,1.678264437795557
1773065652743451392,1.7256324291229248,0.1637972593307495,0.20547345280647278,-0.13127748668193817,-0.8976079225540161,0.09831676632165909,0.42969080805778503,-0.1544400453567505,0.03721179813146591,0.07861003279685974,0.32440647253925814,0.6116651852218827,-0.5837046335011675,0.4241640630621564,-0.09847585205494357,-2.0172645404521026,1.6796362476819353
1773065652753489152,1.7356703281402588,0.04863471910357475,0.2226841300725937,-0.33257490396499634,-0.8987411260604858,0.09665342420339584,0.42769429087638855,-0.20221096277236938,-0.02713438868522644,0.07741734385490417,0.3251906968458584,0.6120859797962583,-0.5824069814469804,0.42473972248798003,-0.09680455044908522,-2.014963645822671,1.6816473022407092
1773065652763527424,1.7457084655761719,-0.0605338029563427,0.19894137978553772,-0.3779419958591461,-0.9000392556190491,0.09325310587882996,0.42571476101875305,-0.13467437028884888,-0.10187430679798126,0.07539910078048706,0.32665484592320365,0.6126891782222045,-0.5809211221556252,0.4247813208021827,-0.09338879357315212,-2.012608128108187,1.6831757979742752
1773065652773565184,1.7557463645935059,-0.16928106546401978,0.17556335031986237,-0.17632977664470673,-0.9010706543922424,0.0901520699262619,0.4241981506347656,0.03682821989059448,-0.1403687447309494,-0.010379821062088013,0.3281475774703264,0.6129580647750765,-0.5799840411619179,0.424523301803318,-0.09027463792893643,-2.010788718408061,1.6833665961669493
1773065652783603456,1.765784502029419,-0.23840707540512085,0.2092633992433548,0.0981099084019661,-0.9019320011138916,0.08891823887825012,0.42262542247772217,0.1902468204498291,-0.08521033823490143,-0.014391779899597168,0.3294404650165703,0.6123063827661721,-0.5799944933435527,0.42444819994781935,-0.08903582858724848,-2.0089918138872553,1.6816118014073058
1773065652793640448,1.7758214473724365,-0.09429065883159637,0.18877090513706207,0.1711697280406952,-0.9026443362236023,0.08955031633377075,0.4209684133529663,0.18464183807373047,0.028979942202568054,0.029364287853240967,0.3302661856085747,0.6111098423001797,-0.5805419536518471,0.42478252264783656,-0.08967043980037637,-2.007181820212775,1.6792343817613884
1773065652803678208,1.7858593463897705,0.18954212963581085,0.101827472448349,-0.004427124746143818,-0.9031769633293152,0.0905720666050911,0.4196051061153412,0.025353968143463135,0.1017497107386589,0.007290065288543701,0.3303416159399662,0.6106273429072258,-0.5804625815184404,0.42552554715419466,-0.09069635982412586,-2.005715140491811,1.679329959407686
1773065652813716480,1.7958974838256836,0.27987417578697205,0.09752301126718521,-0.16218027472496033,-0.903640627861023,0.09083529561758041,0.4185485541820526,-0.1414949893951416,0.10427883267402649,0.021484434604644775,0.33002075811159304,0.6111079087786149,-0.5795009959128392,0.4263943392511895,-0.0909606783546395,-2.0045567962895094,1.6820143081315022
1773065652823754240,1.8059353828430176,0.14780071377754211,0.14438851177692413,-0.300516813993454,-0.904349684715271,0.08965545892715454,0.41726920008659363,-0.212288498878479,0.04465240240097046,0.13905096054077148,0.33019439645058,0.6118813712907252,-0.578131294266817,0.42700945532910645,-0.08977600444688054,-2.003092015007628,1.6849748399488997
1773065652833792512,1.8159735202789307,0.04989892244338989,0.11477257311344147,-0.4007222652435303,-0.9052510261535645,0.08678837865591049,0.4159186780452728,-0.18224287033081055,-0.07613775879144669,0.14365160465240479,0.3310652231726089,0.6127973592630904,-0.5765750039341265,0.42712584202888276,-0.08689770161106045,-2.001482018693054,1.6874136756838731
1773065652843830272,1.8260114192962646,-0.10853204131126404,0.10449236631393433,-0.2825765907764435,-0.9059695601463318,0.08346165716648102,0.4150342047214508,-0.03777134418487549,-0.17025364935398102,-0.004801571369171143,0.3321861333991207,0.6135719893824699,-0.5753664167325561,0.42677314668072014,-0.08355886077687537,-2.000374457996711,1.688691434959589
1773065652853867264,1.8360483646392822,-0.211772158741951,0.1688292920589447,-0.050316985696554184,-0.9066708087921143,0.08123107999563217,0.413943886756897,0.13909274339675903,-0.12587830424308777,-0.03017011284828186,0.3334732927051341,0.6134619529486979,-0.5750098974554296,0.42640781878598266,-0.08132067753169847,-1.9990869058534309,1.687766940581899
1773065652863905536,1.8460865020751953,-0.037436649203300476,0.1170145571231842,0.024885624647140503,-0.9073107242584229,0.08069741725921631,0.4126439392566681,0.1855853796005249,-0.011453025043010712,-0.02819877862930298,0.33433598235270984,0.6128870234794946,-0.5750577965337483,0.4264943363392566,-0.08078525868438054,-1.997633875014416,1.6864865431393374
1773065652873943296,1.8561244010925293,0.2749481499195099,0.034144170582294464,-0.1090756356716156,-0.9076403975486755,0.08090133219957352,0.4118782579898834,0.07399183511734009,0.054230496287345886,-0.11399620771408081,0.33423077572163823,0.6130461470703932,-0.5745550836119974,0.42702529652367965,-0.08098984246881286,-1.9967976411864923,1.6877981085319502
1773065652883981568,1.8661625385284424,0.23021282255649567,0.04147159308195114,-0.2545689046382904,-0.9079418182373047,0.08032144606113434,0.4113275706768036,-0.08268940448760986,0.04180988669395447,-0.0745813250541687,0.3339102330964008,0.6139476763535124,-0.5733515757468298,0.42759825481793284,-0.08040806072612668,-1.996169585804139,1.6910172296906658
1773065652894019328,1.8762004375457764,0.1734776347875595,0.046314820647239685,-0.32564815878868103,-0.9083287715911865,0.07845644652843475,0.4108324646949768,-0.1552850604057312,-0.01534608006477356,-0.015599429607391357,0.33402623723184743,0.6150606645317234,-0.5719410939405191,0.42779689163595125,-0.07853715790464592,-1.9955570662049296,1.6941073417593733
1773065652904056320,1.886237382888794,0.06765789538621902,0.07616938650608063,-0.2831086814403534,-0.9088448286056519,0.0760912150144577,0.4101356565952301,-0.10047829151153564,-0.0881761685013771,-0.016825079917907715,0.33451505291226213,0.6160235835173391,-0.5705986070601562,0.4278222300421759,-0.07616483217047453,-1.9947070292182978,1.696524684794863
1773065652914094336,1.896275520324707,-0.007560688070952892,0.10191097110509872,-0.15576298534870148,-0.9093915820121765,0.0741964727640152,0.4092702865600586,-0.014665544033050537,-0.11266389489173889,-0.02976888418197632,0.3351675674778137,0.6165003628140482,-0.5697038174325715,0.42781732841173253,-0.07426472232945425,-1.9936905534104024,1.6976860905703115
1773065652924132352,1.906313419342041,-0.041278839111328125,0.05098586902022362,0.006890777498483658,-0.9097597599029541,0.07340683788061142,0.408594012260437,0.061614990234375,-0.08231797069311142,-0.09783342480659485,0.33562570344155895,0.6165077819887973,-0.5693989496580435,0.4278533977461223,-0.07347292116008647,-1.992920692829272,1.6977594980315234
1773065652934170368,1.916351556777954,-0.09391941130161285,0.042912762612104416,0.1237231194972992,-0.9098947644233704,0.07376015931367874,0.40822863578796387,0.10200309753417969,-0.012114658951759338,-0.15708428621292114,0.3358207440483453,0.6160930822370743,-0.5696873165315373,0.4279135383258372,-0.07382720319808342,-1.9925310107506211,1.696833549043514
1773065652944208384,1.926389455795288,-0.021909134462475777,0.08482372760772705,0.12314920872449875,-0.9100514650344849,0.07464932650327682,0.40771761536598206,0.07013154029846191,0.05996370315551758,-0.09225744009017944,0.3359444410991762,0.615464441616085,-0.5701423695158309,0.42811503887941343,-0.07471883495309174,-1.9919991089300337,1.695625589283301
1773065652954246400,1.936427354812622,0.24020370841026306,0.08082792162895203,0.03303316608071327,-0.9103740453720093,0.07587124407291412,0.4067707657814026,-0.06718015670776367,0.06330418586730957,-0.03125208616256714,0.3356904989042669,0.6152085911840878,-0.5700033141465938,0.4288664547284227,-0.07594422388782243,-1.991000278428614,1.6963024678786667
1773065652964283392,1.9464645385742188,0.23155330121517181,0.09859413653612137,-0.18097072839736938,-0.9107752442359924,0.07632491737604141,0.4057871699333191,-0.2532721161842346,-0.012207485735416412,-0.05982452630996704,0.3352672174979258,0.6156626847976407,-0.5690808768613977,0.4297701520963533,-0.07639921950119306,-1.9899354797609228,1.6990060881026254
1773065652974321408,1.9565024375915527,-0.010834557004272938,0.06849908083677292,-0.27770286798477173,-0.9113841652870178,0.07443077862262726,0.4047705829143524,-0.29322105646133423,-0.06060633063316345,0.05033808946609497,0.3357905814708331,0.6163320689334602,-0.5679085048591215,0.429952876018751,-0.07449967793519911,-1.9887557918023218,1.7009731237009935
1773065652984359168,1.9665403366088867,-0.35049229860305786,0.7273138165473938,-0.48873189091682434,-0.9138914942741394,0.0698031634092331,0.3999122679233551,-0.1580079197883606,-0.019723817706108093,0.5873161554336548,0.3389956841773918,0.6158270344265511,-0.5663154551936862,0.4302624713595407,-0.06985997131827702,-1.983284579535739,1.7002095023085337
1773065652994397440,1.9765784740447998,0.35474416613578796,-0.27509570121765137,-0.11517587304115295,-0.9148596525192261,0.06679080426692963,0.3982090651988983,-0.0450858473777771,-0.03140567988157272,0.24209541082382202,0.3401724730483625,0.6164351101337407,-0.5649002505622568,0.4303231575453745,-0.06684056631617592,-1.9813317732462752,1.7018029952775215
1773065653004435200,1.9866163730621338,0.006635468453168869,0.22702814638614655,0.0698256716132164,-0.9143607020378113,0.06791309267282486,0.3991645276546478,0.21523350477218628,-0.15105822682380676,-0.8550208806991577,0.33904963618849526,0.6170531343280551,-0.5646482859864315,0.43065425650419287,-0.06796540748202502,-1.9824094321778931,1.703931064461757
1773065653014473472,1.9966545104980469,-0.3504169285297394,0.24623805284500122,-0.19168689846992493,-0.9158340096473694,0.06629177927970886,0.3960477411746979,0.005891263484954834,0.053810134530067444,0.4459781050682068,0.34102157228252233,0.6159955171502899,-0.5644230600276439,0.43090664609562146,-0.06634042656902592,-1.9789559263051275,1.7017192105533692
1773065653024510464,2.0066914558410645,0.13201549649238586,0.17860147356987,-0.16195030510425568,-0.916618287563324,0.06424819678068161,0.39456707239151,-0.041084468364715576,-0.00470840185880661,0.09327167272567749,0.3421239347823939,0.616058957702638,-0.5636975182361054,0.43089175400742324,-0.06429247864165262,-1.9772821336624073,1.7018336454395788
1773065653034548224,2.0167293548583984,0.14914387464523315,0.2907770276069641,-0.05437937378883362,-0.9178223013877869,0.0637703686952591,0.39183586835861206,-0.01816689968109131,-0.020572751760482788,0.08205634355545044,0.3427565786765837,0.6159784897875327,-0.5625730510579257,0.43197210644116135,-0.0638136737520525,-1.9742913581221755,1.7035137516531618
1773065653044586496,2.0267674922943115,0.07999907433986664,0.15787197649478912,-0.18702130019664764,-0.9187042713165283,0.06350178271532059,0.3898078203201294,-0.16111457347869873,0.004506640136241913,0.01035398244857788,0.343127028276355,0.6159908616662841,-0.5616575172842949,0.4328509785878002,-0.0635445402318972,-1.9720753999338245,1.7050791480992282
1773065653054624256,2.0368053913116455,0.038398101925849915,0.24235250055789948,-0.4649714231491089,-0.9196633696556091,0.06056038290262222,0.38801053166389465,-0.2593681812286377,-0.025816120207309723,-0.03235858678817749,0.3442075082521599,0.6166731278271539,-0.5601066981338599,0.4330312647178821,-0.06059746163560184,-1.9700425207669665,1.7070706970231748
1773065653064662528,2.0468435287475586,-0.12811195850372314,0.4046300947666168,-0.445874959230423,-0.9211927056312561,0.05596848204731941,0.3850608170032501,-0.21458011865615845,-0.022750109434127808,0.12999969720840454,0.3463454093805106,0.6171652089774464,-0.5582450290124813,0.43302952199709527,-0.05599774343066546,-1.9667250910560736,1.7082585239651884
1773065653074700288,2.0568814277648926,-0.05744710937142372,0.5055481791496277,-0.22334815561771393,-0.9231318235397339,0.05256165936589241,0.3808739483356476,0.010534167289733887,-0.010538943111896515,0.2124793529510498,0.3485865163901703,0.6169855803069987,-0.5565660562943049,0.43364786815031153,-0.052585891789512895,-1.9621078996278032,1.7088682168058198
1773065653084737280,2.06691837310791,-0.15896986424922943,0.5187996625900269,-0.14562898874282837,-0.9252150654792786,0.05047307908535004,0.37607118487358093,0.12901151180267334,-0.026577822864055634,0.06564018130302429,0.35082823658532386,0.6160932337732103,-0.5553960086867176,0.4346078087076055,-0.050494533946620325,-1.9568669175313422,1.708313714974312
1773065653094775552,2.0769565105438232,-0.10404351353645325,0.40255534648895264,-0.19779445230960846,-0.9270200133323669,0.048455167561769485,0.3718680441379547,0.0950804352760315,-0.01673213019967079,-0.09218969941139221,0.3528623581666501,0.6153265326961797,-0.5543530251422736,0.4353780793073193,-0.04847414935316101,-1.9522880811926357,1.7077460145998764
1773065653104813312,2.0869944095611572,-0.10498213768005371,0.3931787610054016,-0.26578614115715027,-0.9285908341407776,0.04586895555257797,0.3682595193386078,0.021150648593902588,-0.021195489913225174,-0.14340603351593018,0.3547811416890568,0.6149527529399792,-0.5531391051793846,0.43589056553827743,-0.045885054873627554,-1.9483499836842733,1.7077021973679074
1773065653114851584,2.0970325469970703,-0.1088264137506485,0.4653016924858093,-0.29595816135406494,-0.9302588105201721,0.04278244078159332,0.36440104246139526,-0.028527140617370605,-0.012524262070655823,0.018609851598739624,0.35694097227907734,0.6145988011754215,-0.5517869427930258,0.4363399986273012,-0.042795502225524,-1.944144503313204,1.7075960379991746
1773065653124889344,2.1070704460144043,-0.07732875645160675,0.5042951703071594,-0.2885676324367523,-0.9321659207344055,0.03982267901301384,0.35983461141586304,-0.03775906562805176,0.009905703365802765,0.2026500701904297,0.3591424916182926,0.6142061100989049,-0.5501528454653604,0.4371491580148747,-0.03983321381077508,-1.939193117297472,1.7080322793779081
1773065653134927360,2.1171083450317383,-0.03408887982368469,0.43508651852607727,-0.4220721423625946,-0.9339995980262756,0.03627666085958481,0.3554275333881378,-0.05837094783782959,0.0592280849814415,0.18918916583061218,0.36146423037095593,0.613973971404403,-0.5484065406707189,0.4377554650911653,-0.036284623831885646,-1.934418227328115,1.708509325804028
1773065653144964352,2.127145528793335,0.04859068617224693,0.32450929284095764,-0.4775310456752777,-0.9354797005653381,0.031966619193553925,0.35193201899528503,-0.055426180362701416,0.04664665460586548,-0.014972180128097534,0.3634407457253989,0.6144876570066846,-0.5462334054004938,0.4381152063500514,-0.031972064405928854,-1.9306229018387917,1.7104004747506683
1773065653155002368,2.137183427810669,0.04409446939826012,0.3725290298461914,-0.2708604037761688,-0.936800479888916,0.02843489497900009,0.3487062156200409,0.07873791456222534,0.0119246207177639,-0.14414697885513306,0.36511572088237887,0.6148744543570043,-0.5443183889248957,0.43856276347838913,-0.028438727610280483,-1.9271371979416694,1.712139241738577
1773065653165040128,2.147221326828003,-0.029680635780096054,0.4198055863380432,-0.099656842648983,-0.9382362365722656,0.026894891634583473,0.3449481427669525,0.18547451496124268,0.03308743238449097,-0.03589668869972229,0.3665256492215883,0.6144909732701461,-0.5430238688653688,0.4395279139511815,-0.026898134171379574,-1.9231129090507895,1.7128931643755785
1773065653175078400,2.157259464263916,-0.036598995327949524,0.45490843057632446,-0.18695099651813507,-0.9397919178009033,0.025506973266601562,0.3407943546772003,0.13287651538848877,0.06056785583496094,0.09237220883369446,0.36814586755444084,0.6138013302854292,-0.5418903092745831,0.440535484324557,-0.02550973984648315,-1.9186759805784377,1.7129680519892028
1773065653185116416,2.16729736328125,-0.2385513037443161,0.42522165179252625,-0.3298088312149048,-0.9413459300994873,0.022615037858486176,0.33668485283851624,-0.004638075828552246,0.029539482668042183,0.10028114914894104,0.37030083356512655,0.613308258302585,-0.5405510264017889,0.44106118808139083,-0.022616965432366534,-1.914281734081464,1.712671937913975
1773065653195154432,2.177335500717163,-0.17441412806510925,0.3946315348148346,-0.366408109664917,-0.9428243041038513,0.018437353894114494,0.33277982473373413,-0.01854044198989868,-0.006367668509483337,0.008894920349121094,0.37294961291267026,0.6129155065184884,-0.5391887373539633,0.4410427395183343,-0.018438398618159935,-1.9101061980998064,1.7116537452327683
1773065653205191424,2.1873724460601807,0.06115574762225151,0.32850587368011475,-0.29339849948883057,-0.9440740346908569,0.015147671103477478,0.32938557863235474,0.056577086448669434,-0.007655618712306023,-0.03653895854949951,0.37479946764109623,0.6129236509582205,-0.53760337848819,0.4413984417412112,-0.015148250248323902,-1.906489124112431,1.7123002351072716
1773065653215229184,2.1974103450775146,0.08201708644628525,0.3154390752315521,-0.3286646008491516,-0.9451822638511658,0.012595463544130325,0.32630056142807007,0.03201991319656372,0.020912831649184227,0.034966617822647095,0.37607507821847924,0.6131675725479991,-0.5358878647041341,0.44206034503357844,-0.012595796186557135,-1.9032109305220368,1.714081062901077
1773065653225267456,2.2074484825134277,-0.0031676271464675665,0.3271310329437256,-0.3871253728866577,-0.946240246295929,0.009263000451028347,0.32333239912986755,-0.057315170764923096,0.024977698922157288,0.12980785965919495,0.3775915704789291,0.6135398078205307,-0.5340740551541208,0.44244605675349297,-0.009263132732905978,-1.9000598624924334,1.7156881587080401
1773065653235305216,2.2174863815307617,-0.12570740282535553,0.3597337007522583,-0.2648913562297821,-0.947390615940094,0.005853742826730013,0.3200267255306244,-0.007672429084777832,0.02879895642399788,0.15262958407402039,0.37947265876154546,0.6135426345334923,-0.5325211763639109,0.44270450965825103,-0.005853776381205897,-1.8965597544120212,1.7161538092397262
1773065653245343488,2.227524518966675,-0.12387416511774063,0.33464115858078003,-0.18086248636245728,-0.9485129714012146,0.0034240984823554754,0.3167199492454529,0.0899619460105896,0.05018003657460213,0.017890095710754395,0.381275443542394,0.6130827089765061,-0.5314974760989327,0.44302267015254154,-0.0034241051859728016,-1.8930676802267485,1.7155814760159842
1773065653255380480,2.2375614643096924,-0.1065569519996643,0.33832910656929016,-0.2115064114332199,-0.9495658874511719,0.0012113464763388038,0.31356537342071533,0.09882736206054688,0.04400045797228813,-0.10793793201446533,0.38294222491912366,0.6126445543092985,-0.5305179902043419,0.44336506262806713,-0.0012113467772004874,-1.8897420192438328,1.7151086754530986
1773065653265418240,2.2475993633270264,0.019397424533963203,0.3679964542388916,-0.25981801748275757,-0.9506659507751465,-0.001195408753119409,0.31021416187286377,0.07589483261108398,0.04109713435173035,-0.03013908863067627,0.38457834584575207,0.6123663965842638,-0.5292584158564669,0.44383829229536326,0.0011954090311401193,-1.8862148423401046,1.7152685468715434
1773065653275456512,2.2576375007629395,0.1519663780927658,0.3258655071258545,-0.37826022505760193,-0.9517331719398499,-0.0038829101249575615,0.30690211057662964,-0.0009340643882751465,0.002707972191274166,0.05113017559051514,0.3858736098057413,0.6126391602687942,-0.527374925390422,0.44457902327008725,0.0038829198653037673,-1.8827350966080876,1.7172751717478412
1773065653285494272,2.2676753997802734,-0.12126901745796204,0.34708544611930847,-0.454986572265625,-0.9527257084846497,-0.007851979695260525,0.303729772567749,-0.057238101959228516,-0.0680604875087738,0.0391656756401062,0.3876150339532056,0.6130689211529871,-0.5253678568654477,0.44484781031080706,0.007852060594216816,-1.8794111425848545,1.7188270909873629
1773065653295532544,2.2777135372161865,-0.20498362183570862,0.3790060877799988,-0.3928108215332031,-0.9538007378578186,-0.012585453689098358,0.3001767098903656,0.017353475093841553,-0.05784913897514343,0.0498904287815094,0.3901478433290165,0.613010591468518,-0.5237426562093981,0.44463064134429403,0.012585786405442199,-1.8756991126733509,1.7182990233526398
1773065653305570304,2.2877514362335205,-0.17001089453697205,0.36971139907836914,-0.21867842972278595,-0.954867959022522,-0.016068482771515846,0.29659637808799744,0.12700212001800537,-0.011870400980114937,-0.05489712953567505,0.3923595627170069,0.6126381589961427,-0.5224678706743484,0.444697581333201,0.016069175059058916,-1.8719630487023309,1.717503779121729
1773065653315607296,2.297788381576538,-0.23391585052013397,0.3915961980819702,-0.1137956902384758,-0.9559600949287415,-0.018181774765253067,0.2929329574108124,0.14814460277557373,0.05400942265987396,-0.1072181761264801,0.3943197875951439,0.6118141294443192,-0.5216799238002704,0.44502293376601365,0.01818277668247405,-1.8681398967600644,1.7160544222176062
1773065653325645568,2.307826519012451,-0.22845928370952606,0.43727365136146545,-0.08904880285263062,-0.9571571946144104,-0.019850384443998337,0.28888824582099915,0.10707467794418335,0.12043631076812744,0.01309850811958313,0.39638358248745237,0.6106564846320822,-0.5210976627036416,0.4454616265464193,0.019851689125197792,-1.8639211017029638,1.7139880602443307
1773065653335683328,2.317864418029785,0.08880708366632462,0.37154337763786316,-0.10668931901454926,-0.9583280086517334,-0.02098775841295719,0.28489845991134644,0.07760584354400635,0.13486409187316895,0.04105976223945618,0.3979203132446816,0.6098178555425794,-0.5201647975659183,0.4463297675914403,0.020989298893377566,-1.8597622857016203,1.7134875202519353
1773065653345721600,2.3279025554656982,0.1827707588672638,0.3113847076892853,-0.1908595860004425,-0.9592336416244507,-0.021921107545495033,0.2817627787590027,0.032903075218200684,0.07830233871936798,-0.01802992820739746,0.39859998547268305,0.6097899085370899,-0.5186883955187948,0.44747809423762874,0.021922863931610654,-1.8564977378726568,1.715496161735304
1773065653355759360,2.3379404544830322,0.035455089062452316,0.34374532103538513,-0.263826459646225,-0.9601073265075684,-0.023857146501541138,0.2786116898059845,-0.014578163623809814,-0.004447894170880318,0.07612460851669312,0.3996463036881072,0.6098725609799787,-0.5170699202360253,0.44830444155156196,0.023859409446064815,-1.8532272162961554,1.717203171420754
1773065653365797376,2.347978353500366,-0.04525475949048996,0.3798481523990631,-0.22404523193836212,-0.9610347747802734,-0.026311583817005157,0.2751723825931549,-0.0017642974853515625,-0.07871464639902115,0.18385767936706543,0.40116263277728764,0.6097075248325052,-0.5155995852716759,0.44886786343256635,0.026314620178446834,-1.8496644666471287,1.7178274788289394
1773065653375834368,2.358015537261963,-0.05570633336901665,0.38525304198265076,-0.1306052953004837,-0.962041974067688,-0.028172440826892853,0.27144360542297363,0.06622898578643799,-0.09373003989458084,0.16555285453796387,0.40273350507093375,0.6091771095521757,-0.5144171941491346,0.4495374855214102,0.028176169156693267,-1.8458009392695067,1.7177441287189805
1773065653385872384,2.368053436279297,-0.09197850525379181,0.3472750782966614,-0.05069821700453758,-0.9630113244056702,-0.029210036620497704,0.26787346601486206,0.10555881261825562,-0.044535718858242035,0.1127418577671051,0.404082502430187,0.6084446729605049,-0.5135482532653274,0.45031178013712253,0.02921419124224528,-1.8421001283646905,1.7173539545959282
1773065653395910144,2.378091335296631,-0.036037467420101166,0.2897430658340454,0.018347162753343582,-0.963851809501648,-0.029611023142933846,0.26478826999664307,0.11988824605941772,0.03879682347178459,0.049054473638534546,0.40517952881498853,0.6076232211449095,-0.5130186684372638,0.45103812528953746,0.0296153529089054,-1.838901143254097,1.7166594868920342
1773065653405948416,2.388129472732544,0.16564469039440155,0.2596546709537506,0.14617648720741272,-0.9645847678184509,-0.02869562990963459,0.2622075080871582,0.15908855199813843,0.09313349425792694,0.018081188201904297,0.4055134507273911,0.6069321292538145,-0.5125789144288735,0.45216711064507464,0.028699570396944294,-1.8362173033138875,1.717020260648138
1773065653415986176,2.398167371749878,0.4172995686531067,0.2637713849544525,0.24306923151016235,-0.9653287529945374,-0.025952834635972977,0.25974443554878235,0.19794881343841553,0.1072668805718422,0.054724037647247314,0.4048325391247496,0.6064066560906136,-0.5119991975521143,0.4541349477891171,0.02595574926168001,-1.8336444397881528,1.7193268422643684
1773065653426024448,2.408205509185791,0.41464799642562866,0.2393263429403305,0.12415069341659546,-0.9660301804542542,-0.02288803458213806,0.25741347670555115,0.10113155841827393,0.043624747544527054,0.09654459357261658,0.40369891090822435,0.6062009827690831,-0.5111038068992259,0.4564212904431589,0.022890033713764888,-1.8312106597743212,1.7230233608853383
1773065653436061440,2.4182424545288086,0.23759038746356964,0.24607425928115845,-0.11755967140197754,-0.9666568636894226,-0.02207811363041401,0.2551215887069702,-0.06857562065124512,-0.08320753276348114,0.0632835328578949,0.4033329387344914,0.6063154531374325,-0.5098454292625905,0.4579975088116463,0.022079908096586526,-1.8288341110193354,1.7262193441797657
1773065653446099200,2.4282803535461426,0.008022443391382694,0.28582674264907837,-0.05722229555249214,-0.9672940969467163,-0.022828076034784317,0.25262853503227234,-0.04489767551422119,-0.18052580952644348,0.024059057235717773,0.40386060526719125,0.606262609725911,-0.5086845017040929,0.4588925865656939,0.0228300587272881,-1.8262603270205695,1.7277542350797057
1773065653456137472,2.4383184909820557,-0.12701952457427979,0.3592442274093628,0.21542786061763763,-0.9681265354156494,-0.022236956283450127,0.2494731992483139,0.16844379901885986,-0.1460675299167633,-0.02168998122215271,0.40471867821765367,0.605171027326898,-0.5084335056811266,0.45985470615559076,0.022238788879158627,-1.8229962137042965,1.7268641694131652
1773065653466175232,2.4483563899993896,-0.11073048412799835,0.36050283908843994,0.38377106189727783,-0.9690830111503601,-0.01953772082924843,0.24596022069454193,0.2715732455253601,-0.029778702184557915,-0.030704498291015625,0.4052950855415101,0.603300428797193,-0.5089289736776852,0.4612546167454797,0.019538963595968434,-1.8193549781217406,1.724889163736428
1773065653476213504,2.4583945274353027,0.03236808627843857,0.337151437997818,0.43627315759658813,-0.9700234532356262,-0.015647364780306816,0.2425067275762558,0.2103341817855835,0.07675880938768387,-0.030073881149291992,0.4054054940033464,0.6013117002984439,-0.509585720298182,0.4630258956818443,0.01564800327069043,-1.815775829052903,1.7233433746351354
1773065653486251264,2.4684324264526367,0.35473817586898804,0.2529813051223755,0.39522892236709595,-0.9707997441291809,-0.01107155904173851,0.2396351397037506,0.10210180282592773,0.1303190141916275,-0.003169700503349304,0.4046133981224813,0.5999195124566165,-0.5098177569101974,0.4652636940149389,0.01107178556458816,-1.8128015116549154,1.7241535788055145
1773065653496288256,2.4784693717956543,0.4053954780101776,0.18051616847515106,0.28549444675445557,-0.9713226556777954,-0.006734693422913551,0.23766954243183136,-0.017065346240997314,0.0545252300798893,-0.010359421372413635,0.40309126408166523,0.5993980063327037,-0.5094671755972392,0.4676351389551135,0.006734744125324769,-1.8107678305573602,1.727359890652037
1773065653506326528,2.4885075092315674,0.15562774240970612,0.2199125736951828,0.25308990478515625,-0.9718079566955566,-0.0035414379090070724,0.235747292637825,-0.058206021785736084,-0.07922224700450897,0.06517134606838226,0.4021369132846467,0.5988455856007466,-0.5091734573055915,0.4694808673857034,0.0035414452867277204,-1.8087853001804182,1.7295195687361231
1773065653516364288,2.4985454082489014,-0.03569001704454422,0.32577961683273315,0.39686837792396545,-0.9724544882774353,-0.0003129169635940343,0.23309288918972015,0.03356587886810303,-0.1480635702610016,0.14311257004737854,0.40191741943040665,0.5975028596445027,-0.5094475233733218,0.4710796263776884,0.00031291696683441136,-1.8060532951174364,1.729310677451425
1773065653526402560,2.5085835456848145,-0.04621194675564766,0.33630162477493286,0.4518241882324219,-0.9732416272163391,0.003833760740235448,0.2297528237104416,0.12351006269454956,-0.10666278004646301,0.13596990704536438,0.40193459538028425,0.595446495310534,-0.5102155234570784,0.47283435213255404,-0.0038337700284228984,-1.8026217167722642,1.7276981350045042
1773065653536440320,2.5186214447021484,0.06228390708565712,0.25075238943099976,0.347250372171402,-0.9738765358924866,0.007778225466609001,0.2269456684589386,0.07752937078475952,-0.03896722197532654,0.015760689973831177,0.40167378368290607,0.5937695162892332,-0.5107940836308662,0.4745371348679917,-0.00777830385409475,-1.7997437009162074,1.72693005645086
1773065653546477312,2.528658390045166,0.16068686544895172,0.24400778114795685,0.3920842707157135,-0.9744001626968384,0.011470116674900055,0.2245280146598816,0.04637587070465088,0.0018202709034085274,-0.03617358207702637,0.4011619338750384,0.5924746995310968,-0.5111142137806948,0.4762406291895981,-0.011470368568653369,-1.7972701337705264,1.7271050961998702
1773065653556515328,2.538696527481079,0.34397202730178833,0.1704893559217453,0.5164725184440613,-0.9748063683509827,0.016536444425582886,0.22243912518024445,0.07409530878067017,0.028568526729941368,-0.0015680789947509766,0.3998343332236681,0.5913141835853201,-0.5114363118676033,0.4784484972529738,-0.01653719882055495,-1.7951430897305583,1.7286028254045946
1773065653566553344,2.548734426498413,0.376080185174942,0.16412533819675446,0.4558764398097992,-0.9750756621360779,0.022234665229916573,0.22075656056404114,0.03125840425491333,0.04417157545685768,0.03922274708747864,0.39796393673542957,0.5903759966799246,-0.5116976294933164,0.48088103991596726,-0.022236497272017996,-1.7934423581411483,1.7311022526307949
1773065653576591360,2.558772325515747,0.45722058415412903,0.11320409923791885,0.302156925201416,-0.975296139717102,0.026838185265660286,0.21926480531692505,-0.056976139545440674,0.06840717792510986,0.17903529107570648,0.3962069871021595,0.5898723688214067,-0.5115495996893975,0.48310202284336945,-0.026841407654110225,-1.7919382013828378,1.734255847845372
1773065653586629376,2.56881046295166,0.5152860283851624,0.13251614570617676,0.20447096228599548,-0.9754738211631775,0.030338285490870476,0.21801497042179108,-0.07709270715713501,0.023448949679732323,0.16954302787780762,0.3944343107060852,0.5899453810571812,-0.5108541235290784,0.48519495371237514,-0.030342942056327392,-1.7906792455536629,1.7385583805816887
1773065653596667392,2.578848361968994,0.369192510843277,0.1642695516347885,0.17555196583271027,-0.975730836391449,0.03319622203707695,0.21644240617752075,-0.041206419467926025,-0.05674051493406296,0.06709635257720947,0.39297694139765227,0.590020149892324,-0.5099974773389626,0.48718363634794126,-0.0332023233468311,-1.7890876089150525,1.742679035519184
1773065653606704384,2.588885545730591,0.05660320818424225,0.24207234382629395,0.17829860746860504,-0.9761000871658325,0.035315968096256256,0.21443301439285278,0.01201927661895752,-0.11394451558589935,-0.08284115791320801,0.39245087536293854,0.5895086115118467,-0.509603871109252,0.4886367033145897,-0.03532331514728107,-1.7870446640526407,1.7443464013175167
1773065653616742400,2.598923444747925,-0.04015982151031494,0.26911115646362305,0.35127678513526917,-0.9765738248825073,0.03776693344116211,0.21184244751930237,0.13802707195281982,-0.07728719711303711,-0.10739600658416748,0.3925358558552803,0.588195890555441,-0.5098497985414732,0.489892209306748,-0.037775917681725696,-1.784410892845728,1.7437171249070793
1773065653626780160,2.608961343765259,-0.021768609061837196,0.24509090185165405,0.5846118927001953,-0.9769266843795776,0.04233058542013168,0.20933771133422852,0.2560252547264099,0.043057605624198914,-0.11722041666507721,0.3921242749866114,0.5862908705023251,-0.5108149067336673,0.4914973533479984,-0.04234323644765947,-1.7818860171707258,1.742403709151362
1773065653636818432,2.618999481201172,0.12050624936819077,0.20088694989681244,0.6258205771446228,-0.9771216511726379,0.04849204421043396,0.2070794701576233,0.25553345680236816,0.16708412766456604,-0.10516607761383057,0.3910501057227571,0.5842256979568928,-0.5120742787460926,0.493497825312709,-0.04851106881895752,-1.7796344034114044,1.7415442401052383
1773065653646856192,2.629037380218506,0.34598371386528015,0.07535392791032791,0.4798978567123413,-0.9771144390106201,0.05449913069605827,0.20561395585536957,0.1499660611152649,0.19280007481575012,-0.10267819464206696,0.38933355492775423,0.5828812372458498,-0.5128902836506687,0.49559291287896995,-0.05452614553095979,-1.7782001010346205,1.742620419783233
1773065653656894464,2.639075517654419,0.40433835983276367,0.1082271933555603,0.2671946585178375,-0.9770577549934387,0.05892452597618103,0.2046608030796051,0.01311427354812622,0.09006229043006897,-0.057932257652282715,0.3874638839076845,0.5825056209736446,-0.5128524188606937,0.49753524450767994,-0.05895867865492157,-1.7772774413145136,1.7456972703697242
1773065653666932224,2.649113416671753,0.13795407116413116,0.1880519837141037,0.20880939066410065,-0.977209746837616,0.0617871955037117,0.20308451354503632,-0.04819607734680176,-0.05914741009473801,0.07102428376674652,0.38639179430199666,0.582129992635146,-0.5125104210256043,0.49915833710906493,-0.06182657569353634,-1.7757004662453961,1.7481301244959975
1773065653676970240,2.659151315689087,-0.21602396667003632,0.32339197397232056,0.19041679799556732,-0.977602481842041,0.06363378465175629,0.20060890913009644,-0.013944029808044434,-0.13153541088104248,0.053678736090660095,0.38670089214687525,0.580877658866683,-0.5127237070187083,0.5001578766288435,-0.063676806756076,-1.7731916353486417,1.7472193271514405
1773065653687008256,2.669189214706421,-0.21503430604934692,0.34244781732559204,0.22923730313777924,-0.9781736731529236,0.06512883305549622,0.19731858372688293,0.06406539678573608,-0.07965520769357681,0.04904985427856445,0.3877856574637915,0.5790240888339268,-0.5132157413464766,0.5009621336596236,-0.06517496331378685,-1.7698465477383083,1.7444993653914973
1773065653697046272,2.679227352142334,-0.22096702456474304,0.2826465368270874,0.3768507242202759,-0.9785730838775635,0.06768563389778137,0.1944565773010254,0.14802193641662598,0.023165196180343628,-0.04247903823852539,0.3884040720227755,0.5770844237562948,-0.5140056941271332,0.5019103124505658,-0.06773742562552834,-1.7669554412685722,1.7419012866353418
1773065653707084288,2.689265251159668,-0.15345709025859833,0.23862648010253906,0.5192087888717651,-0.9787787199020386,0.071694016456604,0.19196870923042297,0.19733047485351562,0.1453927904367447,-0.06643465161323547,0.3885651959765564,0.5748428387297984,-0.5153058015374365,0.5030235041483894,-0.07175558018272649,-1.7644688116430238,1.738972590360481
1773065653717122304,2.699303388595581,0.11579382419586182,0.09274916350841522,0.5883849263191223,-0.978676974773407,0.07717952132225037,0.19035431742668152,0.1970759630203247,0.21043336391448975,-0.05818268656730652,0.3876296282529407,0.5729295670719948,-0.5166515939112255,0.5045455014390013,-0.07725635323406582,-1.7628994894762071,1.7376944807546912
1773065653727159296,2.7093403339385986,0.27113890647888184,-0.00018064514733850956,0.4592609107494354,-0.9783180356025696,0.08284317702054977,0.1898188591003418,0.13609373569488525,0.19201338291168213,-0.04168650507926941,0.38580045416595854,0.571814614402132,-0.517626776232372,0.5062101444415116,-0.08293822697306606,-1.7624408520369086,1.7385980971637447
1773065653737197056,2.7193782329559326,0.40608900785446167,-0.02848605252802372,0.2195732295513153,-0.9780226945877075,0.08680543303489685,0.18956896662712097,-0.011494457721710205,0.07559384405612946,0.04039619863033295,0.383915639498262,0.5716449149337262,-0.5176935174727664,0.5077640154181887,-0.08691481933504071,-1.7622510650992929,1.7414692430807355
1773065653747235328,2.7294163703918457,0.028414534404873848,0.030309218913316727,0.10723056644201279,-0.9778615236282349,0.08877009153366089,0.18949022889137268,-0.11764317750930786,-0.1148931235074997,0.011910542845726013,0.38279803610467056,0.5717440641343708,-0.517545976297041,0.5086457293627583,-0.0888870933774432,-1.7622042429632165,1.7435565811408378
1773065653757273088,2.7394542694091797,-0.3015657663345337,0.11507630348205566,0.1512630134820938,-0.9779008030891418,0.08966633677482605,0.1888648122549057,-0.057057082653045654,-0.17841145396232605,0.014672160148620605,0.38315326863076526,0.5709137472680091,-0.5181601122792069,0.50868569234076,-0.08978692464008181,-1.7615802726672445,1.741719804989942
1773065653767311360,2.7494924068450928,-0.2176499217748642,0.061292435973882675,0.28689807653427124,-0.9778849482536316,0.09122814238071442,0.1881987601518631,0.12700897455215454,-0.09893384575843811,-0.04258403182029724,0.38365920229785155,0.5695763345006986,-0.5193093287857634,0.5086318672327788,-0.09135516130282598,-1.7609265768910731,1.738524947188164
1773065653777349120,2.7595303058624268,-0.09564518183469772,-0.006019758991897106,0.4740155041217804,-0.9775749444961548,0.09468922019004822,0.18809860944747925,0.24634331464767456,0.03734508156776428,-0.11626018583774567,0.38313524913735214,0.5682720812253531,-0.5206881482148367,0.5090756814030043,-0.09483128884364835,-1.7608866393310552,1.736476715450507
1773065653787386112,2.7695672512054443,0.15292218327522278,-0.032702233642339706,0.5157940983772278,-0.9770426750183105,0.09974633157253265,0.18825127184391022,0.2074044942855835,0.19067421555519104,-0.022495001554489136,0.38180433259868896,0.566934032611824,-0.5222178057300644,0.5099999145551927,-0.09991247920135687,-1.7611383782349932,1.7353837211815626
1773065653797424384,2.7796053886413574,0.4811360239982605,-0.13267090916633606,0.26132744550704956,-0.9764729738235474,0.10432451963424683,0.1887255609035492,-0.0026990175247192383,0.19122296571731567,0.038691446185112,0.3795457941320533,0.5667899398117824,-0.5226011318992472,0.5114512395649853,-0.10451468846383812,-1.7617150331577083,1.7381517760218528
1773065653807462144,2.7896432876586914,0.11356747150421143,0.004569368436932564,0.006187436170876026,-0.9761877059936523,0.10619418323040009,0.18915793299674988,-0.2306910753250122,0.018805794417858124,-0.05117270350456238,0.3780818870793489,0.5672788292235289,-0.5222774150537294,0.5123234042781516,-0.10639480136133737,-1.762196407919574,1.7411385355157245
1773065653817500416,2.7996814250946045,-0.2192048877477646,0.1387133151292801,-0.052687063813209534,-0.9763839244842529,0.1056552603840828,0.18844525516033173,-0.22326219081878662,-0.1101108267903328,-0.0006705224514007568,0.37862138473022877,0.5670244388048243,-0.5222125157629298,0.5122726878451056,-0.10585282804495161,-1.7614552622621664,1.7404337307828714
1773065653827538176,2.8097193241119385,-0.2261795848608017,0.18748340010643005,0.13779407739639282,-0.9766606688499451,0.10552377998828888,0.187079057097435,0.037451744079589844,-0.15026256442070007,-0.08525718748569489,0.3796237463320716,0.5660868154773443,-0.5225755880737246,0.5121974586747546,-0.1057206082218895,-1.7600535514170026,1.7381066401013572
1773065653837575168,2.819756269454956,-0.15596693754196167,0.21309635043144226,0.4105773866176605,-0.9767545461654663,0.10783412307500839,0.18526318669319153,0.2858976125717163,-0.056030549108982086,-0.16206979751586914,0.3800450889158018,0.5644394615799583,-0.5234879980531207,0.5127710791949823,-0.10804420795276648,-1.7582418711977819,1.7355491572162796
1773065653847613440,2.829794406890869,-0.06272563338279724,0.17624418437480927,0.5955324769020081,-0.9765474200248718,0.11267414689064026,0.18346650898456573,0.3024140000343323,0.09403665363788605,-0.14670811593532562,0.379487380201043,0.5624313039336077,-0.5247897541247678,0.5140585380375445,-0.11291392421429737,-1.7565042132241173,1.7337193342358383
1773065653857651200,2.839832305908203,-0.020738497376441956,0.13028894364833832,0.44220709800720215,-0.9762052893638611,0.11794328689575195,0.18196992576122284,0.14428061246871948,0.18170881271362305,-0.09244652092456818,0.3786842852755856,0.5604320303347663,-0.5262137401361203,0.5153769761834439,-0.11821845675559317,-1.7550866291716138,1.7320090135728239
1773065653867689216,2.849870204925537,0.18824832141399384,-0.021458368748426437,0.09076397120952606,-0.9759764671325684,0.12063397467136383,0.1814318150281906,-0.10043954849243164,0.09181414544582367,-0.08713245391845703,0.3778232208071043,0.5598655038346994,-0.5265610394249036,0.5162690678204492,-0.12092849982019319,-1.7545959882045123,1.7326450827757853
1773065653877727232,2.85990834236145,-0.28618451952934265,0.1964007169008255,0.1615140438079834,-0.9759792685508728,0.12158294767141342,0.1807817816734314,-0.07644987106323242,-0.09327790141105652,-0.11963975429534912,0.3778063906513935,0.5593774461495714,-0.5267710724594705,0.5165960338179505,-0.12188450418664981,-1.7539515971823165,1.7322383784128066
1773065653887765248,2.869946241378784,-0.22352121770381927,0.24214184284210205,0.28142020106315613,-0.9761344790458679,0.12337486445903778,0.17871835827827454,0.10771101713180542,-0.09461204707622528,0.11942315101623535,0.37871404204035386,0.5575057803014035,-0.5277750331279942,0.516929909544236,-0.12369001752965657,-1.751878592389656,1.728711728796776
1773065653897802240,2.879983425140381,-0.18938028812408447,0.23217523097991943,0.21594612300395966,-0.9762048125267029,0.12555889785289764,0.17680302262306213,0.09877866506576538,-0.10926251113414764,-0.033599257469177246,0.37908659721122945,0.5559653754280105,-0.5284922056441737,0.5175827864622309,-0.1258911615423346,-1.749966761943261,1.7266334620798311
1773065653907840256,2.890021324157715,-0.31039345264434814,0.27740931510925293,0.1664949506521225,-0.976448118686676,0.12691046297550201,0.17447958886623383,0.049064576625823975,-0.0388977974653244,-0.024241551756858826,0.38008925922326314,0.5542358151156679,-0.5292092734768058,0.5179695969871481,-0.12725363613487703,-1.7476181747063868,1.7235598797935763
1773065653917878272,2.900059223175049,-0.290008544921875,0.16974593698978424,0.1577853411436081,-0.9766193628311157,0.12800189852714539,0.17271453142166138,0.010127663612365723,0.04204203188419342,-0.005554556846618652,0.3810384813691686,0.5526946035164675,-0.529986736862881,0.5181240289959119,-0.12835404557102023,-1.7458358517266592,1.720428013690398
1773065653927916288,2.910097360610962,-0.3790820837020874,0.15480148792266846,0.15287914872169495,-0.9767063856124878,0.12890538573265076,0.17154696583747864,0.06329989433288574,0.05056849122047424,-0.042976364493370056,0.3820401956803564,0.5511931491898613,-0.5309986760849912,0.5179497500238673,-0.12926507689805353,-1.7446611741257116,1.7166980166833399
1773065653937954304,2.920135259628296,-0.3240662217140198,0.1507367044687271,0.2667553722858429,-0.9766887426376343,0.1302579641342163,0.1706230342388153,0.15732216835021973,0.007437348365783691,0.009979978203773499,0.3828469842142862,0.5496419540090757,-0.5321703114647159,0.5177999234988753,-0.13062915611420606,-1.7437464382996792,1.7129273053095488
1773065653947992320,2.930173397064209,-0.4880935847759247,0.2951371669769287,0.5147855281829834,-0.9765582084655762,0.13343939185142517,0.16890248656272888,0.22878599166870117,-0.029359206557273865,-0.0070372819900512695,0.38352586046432446,0.5472338945919479,-0.5338410917423431,0.5181280593863152,-0.13383860956965885,-1.742058932812078,1.7082982555941062
1773065653958029312,2.9402103424072266,-0.2526080906391144,0.24380898475646973,0.31488707661628723,-0.9764326810836792,0.1372298002243042,0.1665746569633484,0.10105127096176147,0.0651322603225708,0.10263621807098389,0.38426837508810724,0.5444318761502984,-0.5356129748196848,0.5187007579196613,-0.1376642178079978,-1.7397648291704773,1.7033475938640859
1773065653968067072,2.9502482414245605,-0.05217547342181206,0.060019977390766144,-0.17459926009178162,-0.9765677452087402,0.13761992752552032,0.16545768082141876,-0.18265771865844727,0.03854277729988098,-0.022604942321777344,0.3847445840669415,0.5437458155930094,-0.5357885114903965,0.5188861178820144,-0.13805807359491606,-1.7386302574963552,1.7022259461936724
1773065653978105344,2.9602863788604736,-0.35696282982826233,0.1656356304883957,-0.20181488990783691,-0.9770578145980835,0.13510024547576904,0.16463910043239594,-0.164772629737854,-0.07459916174411774,-0.06390058994293213,0.3861889263396207,0.5436501073748242,-0.5355036037347984,0.5182071064532217,-0.13551463274129522,-1.7377330875264942,1.7005341703223078
1773065653988143104,2.9703242778778076,-0.4302017390727997,0.2421792596578598,0.12387119233608246,-0.9774564504623413,0.13394795358181,0.1632090061903,0.13660550117492676,-0.10576498508453369,0.022490516304969788,0.3879768569454389,0.5424588310694208,-0.5360437650805533,0.5175611943990805,-0.1343517772699962,-1.736243212911448,1.696519586465506
1773065653998181376,2.9803624153137207,-0.42349961400032043,0.3701867461204529,0.4371744990348816,-0.9775698184967041,0.13610216975212097,0.16072717308998108,0.33097875118255615,-0.09226365387439728,-0.049872055649757385,0.3891740545129874,0.5400839844669629,-0.5372828613848393,0.5178608478359426,-0.13652589813266533,-1.7337534248289324,1.6919583889387835
1773065654008219136,2.9904003143310547,-0.31688645482063293,0.3770263195037842,0.47960638999938965,-0.9775208234786987,0.14020389318466187,0.15746746957302094,0.25143134593963623,0.01925046741962433,0.012942671775817871,0.3900697317882868,0.5369636392754635,-0.5388912533896217,0.5187599668322239,-0.14066733767586,-1.7305128423624931,1.6870880347768595
1773065654018256128,3.0004372596740723,0.07341019064188004,0.1570473313331604,0.1860746443271637,-0.9774588942527771,0.14337623119354248,0.15497548878192902,-0.0105782151222229,0.10807333886623383,-0.0331188440322876,0.39021132864443114,0.5351183576983737,-0.5395702809199947,0.5198532477877488,-0.1438720604773519,-1.7280368449741312,1.6854270593196634
1773065654028294400,3.0104753971099854,0.1917923241853714,0.05828160047531128,-0.04148581251502037,-0.9775312542915344,0.1442062258720398,0.1537432074546814,-0.13951879739761353,0.1263168305158615,-0.031703487038612366,0.38994519323700744,0.5349607706950188,-0.5391554266699595,0.520644845827489,-0.1447107668751564,-1.7267954506735945,1.6867738463515471
1773065654038332160,3.0205132961273193,0.1708444207906723,-0.031278643757104874,-0.14020013809204102,-0.977690577507019,0.14356087148189545,0.15333424508571625,-0.09584152698516846,0.06470634043216705,0.11755502223968506,0.3897338678133223,0.5355427308003244,-0.5383875037429456,0.5209994119133985,-0.14405862121341065,-1.7263622177405902,1.6887820056732799
1773065654048370176,3.0305511951446533,0.08690376579761505,-0.07563212513923645,-0.1466861218214035,-0.9778029918670654,0.14229868352413177,0.15379345417022705,-0.03139805793762207,-0.10235118865966797,0.04885852336883545,0.3895605310310439,0.5364081926598123,-0.537738761491595,0.5209087061118096,-0.14278334588757133,-1.7268029493620602,1.6904557121374966
1773065654058408192,3.0405893325805664,-0.17816253006458282,0.019413428381085396,0.06308680772781372,-0.9778335690498352,0.14166425168514252,0.15418460965156555,0.1031845211982727,-0.20691083371639252,-0.037729501724243164,0.3897561465421295,0.5365481963955471,-0.5377809367534523,0.5205745760314163,-0.14214242004720862,-1.7271884954134322,1.69004221150216
1773065654068446208,3.0506272315979004,-0.15786714851856232,0.01791207306087017,0.3385683298110962,-0.9775744676589966,0.14340433478355408,0.15421943366527557,0.23686695098876953,-0.15106424689292908,-0.0440509170293808,0.3897873775843123,0.5355572778186654,-0.5387839256073137,0.5205345284637227,-0.14390045830671003,-1.7272640330384361,1.6878256869143846
1773065654078483456,3.060664415359497,-0.2040165364742279,-0.00681085092946887,0.40598756074905396,-0.977010190486908,0.14696776866912842,0.15443913638591766,0.20036840438842773,-0.028590098023414612,-0.07802321016788483,0.38922710058422066,0.5341661810865653,-0.5402648022954124,0.520847995850155,-0.1475020531534967,-1.7275723276049952,1.685523190010812
1773065654088521216,3.070702314376831,0.025350920855998993,-0.10280781984329224,0.2108786553144455,-0.9764578342437744,0.14994165301322937,0.1550731211900711,0.014238536357879639,0.09664036333560944,-0.026899337768554688,0.38853237422570924,0.5332275276749223,-0.5414840377075608,0.5210624264945855,-0.1505092639435597,-1.7282929285322153,1.6839901316242285
1773065654098559232,3.080740213394165,0.12647327780723572,-0.12838853895664215,0.02907690778374672,-0.9760972261428833,0.15117239952087402,0.15614430606365204,-0.12499219179153442,0.11593270301818848,-0.02285875380039215,0.387685282988033,0.5334021594968184,-0.5418065081890565,0.5211793580379293,-0.1517541980307822,-1.7294203813939262,1.6846391757489452
1773065654108597248,3.090778350830078,0.22075273096561432,-0.13890084624290466,-0.06051689386367798,-0.9759180545806885,0.15125200152397156,0.1571839153766632,-0.12501883506774902,0.06351545453071594,0.04557490348815918,0.3868958846013843,0.53415617525897,-0.5415432942217302,0.5212673244724623,-0.15183471821631767,-1.730487510638041,1.6864667734179286
1773065654118635264,3.100816249847412,0.10729487985372543,-0.02188713848590851,-0.02099185436964035,-0.9758560061454773,0.15106341242790222,0.15774953365325928,-0.0922287106513977,-0.07748551666736603,-0.026279807090759277,0.3862777312032818,0.5348907948407196,-0.5410791125444011,0.5214544420183579,-0.15164393793418113,-1.731062401405483,1.6884606367413673
1773065654128672000,3.1108531951904297,-0.19832003116607666,0.020479092374444008,0.0480632446706295,-0.9758451581001282,0.15113931894302368,0.157744362950325,-0.04447966814041138,-0.16124063730239868,-0.0671071857213974,0.3864172206276457,0.5347040611323357,-0.5412612575492264,0.5213536185302203,-0.15172072758268956,-1.7310589869056143,1.6878409209180765
1773065654138710272,3.1208913326263428,-0.307834267616272,0.037008266896009445,0.0813642144203186,-0.9757962822914124,0.1513216495513916,0.15787139534950256,0.043118059635162354,-0.149399071931839,-0.19693388044834137,0.38703506494804796,0.5339578535113919,-0.5420560006013182,0.5208340793907552,-0.1519051841158978,-1.7311937418278294,1.685117021593772
1773065654148748032,3.1309292316436768,-0.28823673725128174,0.1116485521197319,0.2988215684890747,-0.9756515026092529,0.1525491327047348,0.15758414566516876,0.2113388180732727,-0.0786203145980835,-0.22836972773075104,0.38760896981760595,0.5326837386163186,-0.5431759462464835,0.520545065162388,-0.15314707731264054,-1.730930213526952,1.6817582035089969
1773065654158786304,3.14096736907959,0.06552665680646896,0.15744319558143616,0.628975510597229,-0.9751436114311218,0.15691114962100983,0.15644074976444244,0.2787477970123291,-0.0005543231964111328,-0.16918183863162994,0.3870930494766763,0.530817562687126,-0.5444750558362492,0.5214772600381493,-0.15756227038925874,-1.7298692834729539,1.6797707545055693
1773065654168824320,3.151005268096924,-0.220155730843544,0.27603018283843994,0.7227020859718323,-0.9743419885635376,0.16381245851516724,0.15434713661670685,0.14667481184005737,0.08189983665943146,-0.06868433952331543,0.3859267463789177,0.5282245555395427,-0.5460333198928875,0.5233420844270398,-0.16455409261376822,-1.7279025135218862,1.6782683294806946
1773065654178862336,3.161043405532837,0.11642841249704361,0.043880023062229156,0.08419488370418549,-0.973902702331543,0.16792555153369904,0.15269184112548828,-0.21986877918243408,0.22404223680496216,0.2030515819787979,0.38560372763500406,0.5262932548786009,-0.5471392215248062,0.524370037594889,-0.16872495453880004,-1.7263137775040394,1.6763860904222752
1773065654188899328,3.1710803508758545,0.25649377703666687,-0.1376584768295288,-0.44110044836997986,-0.9741687178611755,0.16606973111629486,0.15302427113056183,-0.5292951464653015,0.06616903841495514,-0.039285168051719666,0.38529483470079073,0.527648850842815,-0.5459842694360059,0.52443863107593,-0.16684270808282825,-1.726605030589886,1.679413424774417
1773065654198937088,3.1811182498931885,-0.2520331144332886,0.026625534519553185,-0.19654104113578796,-0.9746682643890381,0.16263215243816376,0.1535339504480362,-0.22975373268127441,-0.14784640073776245,-0.0336456298828125,0.38611625557069595,0.528706786926329,-0.5451936430585739,0.5235907785475882,-0.16335774356358074,-1.7270367727202771,1.6798170389769387
1773065654208975360,3.1911563873291016,-0.26541489362716675,0.07727872580289841,0.1715601533651352,-0.9747629761695862,0.16219119727611542,0.15339802205562592,0.18211477994918823,-0.20697574317455292,0.0794205516576767,0.3870287711077705,0.5280054071232421,-0.5458106808821305,0.5229814917344063,-0.16291085236253608,-1.726885756654471,1.6769981021706415
1773065654219013120,3.2011942863464355,-0.24485930800437927,0.11066864430904388,0.3646606504917145,-0.9744465947151184,0.16451485455036163,0.15293355286121368,0.3159841299057007,-0.22976146638393402,-0.11844862997531891,0.3871989795376471,0.5265362645378938,-0.547015845687099,0.5230775959357712,-0.16526614792077418,-1.7264704565611215,1.6740859709547584
1773065654229051392,3.2112324237823486,-0.22929760813713074,0.10247209668159485,0.4623290002346039,-0.9739273190498352,0.16822172701358795,0.152207612991333,0.2305343747138977,-0.11740997433662415,-0.08763241767883301,0.38708642012171524,0.5245884370111412,-0.5485533509875233,0.523507737572761,-0.169025409363818,-1.7258246118686473,1.670894249097465
1773065654239089152,3.2212703227996826,-0.06300876289606094,0.05079212412238121,0.4179189205169678,-0.9732853770256042,0.17240658402442932,0.15162967145442963,0.027484655380249023,0.017809465527534485,-0.01044011116027832,0.38650780114125455,0.522849675657243,-0.5499482260211468,0.5242107498944282,-0.17327232076385857,-1.7253455415979055,1.6687548000718837
1773065654249126144,3.2313072681427,-0.10050252079963684,-0.004947037901729345,0.15074847638607025,-0.9727963805198669,0.17525355517864227,0.15150481462478638,-0.18511700630187988,0.11992770433425903,0.017089620232582092,0.3859696502440111,0.5218075217206959,-0.550880494390469,0.5246666901346664,-0.17616330618184411,-1.7252967034032964,1.66755891935796
1773065654259164416,3.2413454055786133,0.11159375309944153,-0.20020441710948944,-0.2647978365421295,-0.9727672934532166,0.17459221184253693,0.15245023369789124,-0.2945359945297241,0.17545965313911438,0.047470420598983765,0.38594782849543213,0.5221784712934879,-0.5509580373667186,0.524231852001853,-0.17549160237683817,-1.7262499683128076,1.6674068895161043
1773065654269202176,3.2513833045959473,0.18207989633083344,-0.20616908371448517,-0.25972187519073486,-0.9729365706443787,0.1719352751970291,0.1543775349855423,-0.149713397026062,0.014145642518997192,-0.12686589360237122,0.3856127489875667,0.5239800489541946,-0.5501215075088778,0.5235589275568412,-0.1727938678755142,-1.7281562023922556,1.6697673643359583
1773065654279240192,3.2614212036132812,-0.14942239224910736,0.02460499480366707,0.16457587480545044,-0.9728977084159851,0.1714419573545456,0.1551710069179535,0.18800073862075806,-0.1671389788389206,-0.16267834603786469,0.38547230817653116,0.524384412104011,-0.5500968053642021,0.5232836206695529,-0.1722931100886791,-1.728957844748743,1.6700355429807061
1773065654289278208,3.2714593410491943,-0.19559010863304138,0.061141565442085266,0.36998987197875977,-0.9724647402763367,0.1740090548992157,0.15502570569515228,0.3025429844856262,-0.2093026340007782,-0.09319712221622467,0.3853482827715759,0.523065585097703,-0.5512850873197114,0.5234441538073418,-0.1748993886933017,-1.7288813763804296,1.6676048531380059
1773065654299316224,3.2814972400665283,-0.2711506485939026,0.1567882001399994,0.33003687858581543,-0.9720054268836975,0.1771286427974701,0.15437175333499908,0.18047112226486206,-0.1804092824459076,-0.15650798380374908,0.38523036062541993,0.52143848855623,-0.5525285330327677,0.5238430920353445,-0.1780681848360674,-1.7282986756871765,1.6650432192574343
1773065654309353472,3.291534423828125,-0.4616359770298004,0.19765068590641022,0.2788535952568054,-0.9717409014701843,0.17953863739967346,0.15324921905994415,0.0354464054107666,-0.03633490204811096,-0.026143565773963928,0.38600578658140816,0.5192824345376251,-0.554049063043354,0.5238080218476929,-0.18051744886297696,-1.7272139039049066,1.6604289843765219
1773065654319391232,3.301572322845459,-0.06863944232463837,0.06339167058467865,0.08382417261600494,-0.9716122150421143,0.18094468116760254,0.15240909159183502,-0.10047018527984619,0.09394240379333496,0.03313778340816498,0.38658427647391785,0.5178949740230635,-0.5549678716773676,0.5237823799930285,-0.18194689943725545,-1.7263904755161603,1.6574598880961473
1773065654329429248,3.311610221862793,-0.012559398077428341,0.04777303338050842,-0.042664527893066406,-0.9716696739196777,0.18099860846996307,0.15197879076004028,-0.11228418350219727,0.08628958463668823,-0.09788632392883301,0.3867513109801398,0.5177014402628662,-0.5549546023127753,0.5238645048300707,-0.18200174177905887,-1.7259491841063226,1.6572272729763449
1773065654339467264,3.321648359298706,0.02111068181693554,0.07628723233938217,-0.012900503352284431,-0.9718283414840698,0.18064206838607788,0.15138763189315796,0.01937466859817505,0.03177553415298462,-0.07832859456539154,0.3870212674620427,0.5176385455939226,-0.5547469265290836,0.52394730964414,-0.18163921892114085,-1.7253304297584136,1.6572656731320374
1773065654349505280,3.33168625831604,-0.053633686155080795,0.17540502548217773,0.157754048705101,-0.9718923568725586,0.18131786584854126,0.15016411244869232,0.14396566152572632,-0.07148511707782745,-0.11960077285766602,0.3871933804931872,0.5171102419299697,-0.554688247375652,0.5244037429812024,-0.18232635936630073,-1.724091097411528,1.657137500500806
1773065654359542016,3.3417232036590576,-0.2169477790594101,0.1644865870475769,0.1995028257369995,-0.9718024730682373,0.18303580582141876,0.1486532837152481,0.15710526704788208,-0.11676689982414246,-0.08165194094181061,0.3875449997656527,0.5158057673661368,-0.5552216233434506,0.5248640154042149,-0.1840735458510439,-1.722586281252459,1.655400446431868
1773065654369580288,3.3517613410949707,-0.20143161714076996,0.0942370742559433,0.07795336842536926,-0.9717357754707336,0.18402810394763947,0.14786294102668762,0.07221478223800659,-0.12242837250232697,-0.09468601644039154,0.3881055008547349,0.5146709258621504,-0.5559184336830577,0.5248263940894284,-0.1850829820922517,-1.7218017104201535,1.65294799680142
1773065654379618048,3.3617992401123047,-0.23466520011425018,0.10541622340679169,0.14678649604320526,-0.971692681312561,0.18470297753810883,0.1473025530576706,0.08718651533126831,-0.08697046339511871,-0.0701846033334732,0.38864033700466083,0.5137363175996366,-0.5565305659281494,0.5246974104527262,-0.18576963625999746,-1.7212446003751496,1.6507198140691297
1773065654389656320,3.3718373775482178,-0.11249323189258575,0.014050355181097984,0.1544228494167328,-0.9714803099632263,0.1860649436712265,0.1469898819923401,0.10760396718978882,0.02111886441707611,0.05691337585449219,0.3889038141750457,0.5126867052406213,-0.5573574106425827,0.5246513007046412,-0.18715562921722834,-1.7209623624824837,1.6484421359980486
1773065654399694080,3.3818752765655518,0.08005837351083755,-0.07974378019571304,-0.03552818298339844,-0.9712949991226196,0.18666411936283112,0.1474544256925583,-0.0067018866539001465,0.0323910266160965,-0.05265152454376221,0.38860584817958016,0.5126432519522932,-0.5576056927620806,0.5246507217132468,-0.18776548976728416,-1.7214581226434287,1.6483589210812226
1773065654409732352,3.391913414001465,0.04141337797045708,-0.009223408997058868,-0.03516559302806854,-0.9713224172592163,0.18624445796012878,0.14780256152153015,-0.004400730133056641,-0.004512280225753784,-0.07178331911563873,0.3884424135681178,0.513045547647342,-0.5573917378605995,0.5246056987446239,-0.18733833485113396,-1.7218042571864582,1.649098692619952
